Timestamp,Index,Frame ID,w,x,y,z,ax,ay,az,x_0,y_0,z_0,x_1,y_1,z_1,x_2,y_2,z_2,x_3,y_3,z_3,x_4,y_4,z_4,x_5,y_5,z_5,x_6,y_6,z_6,x_7,y_7,z_7,x_8,y_8,z_8,x_9,y_9,z_9,x_10,y_10,z_10,x_11,y_11,z_11,x_12,y_12,z_12,x_13,y_13,z_13,x_14,y_14,z_14,x_15,y_15,z_15,x_16,y_16,z_16,x_17,y_17,z_17,x_18,y_18,z_18,x_19,y_19,z_19,x_20,y_20,z_20
2023-08-01 15:51:51.371409,0,309,0.7602373957633972,0.5099464058876038,-0.3530685305595398,0.1932265013456344,0.20849609375,0.9228515625,0.4287109375,0.4930964410305023,0.7077462673187256,2.337874747126989e-07,0.4241922497749328,0.6518428921699524,-0.0130671374499797,0.392636239528656,0.543739914894104,-0.006751119159162,0.3959790468215942,0.4522204399108886,-0.0022587210405617,0.3846703469753265,0.3900755047798157,0.0041656168177723,0.4306779205799103,0.4319505989551544,0.0321400947868824,0.4220564067363739,0.3412317633628845,0.025728702545166,0.4210627377033233,0.2832590341567993,0.0113889193162322,0.4217287898063659,0.2290122359991073,-0.0007112402818165,0.4688968062400818,0.4162196815013885,0.0271292906254529,0.4614098072052002,0.3121392726898193,0.0254549793899059,0.458123117685318,0.2463478595018386,0.0134752430021762,0.4542479515075683,0.1851187944412231,0.0032292315736413,0.5031790733337402,0.4221368134021759,0.0159466005861759,0.500272274017334,0.3250586688518524,0.0119764413684606,0.4982233643531799,0.2684075236320495,0.006205016747117,0.4947535693645477,0.217541366815567,0.0004130484594497,0.5410163998603821,0.4430466890335083,0.0009138243040069,0.5391920208930969,0.3654187619686126,-0.0019658193923532,0.5371251106262207,0.3186329901218414,-0.0014385397080332,0.5337604284286499,0.2733317613601684,-0.0022232483606785
2023-08-01 15:51:51.432147,1,310,0.778098464012146,0.5049324035644531,-0.2888495624065399,0.2370062619447708,-0.0947265625,0.9716796875,0.052734375,0.4913112819194793,0.7068489193916321,2.270933379122653e-07,0.4226167798042297,0.6509485244750977,-0.0128823863342404,0.3918806314468384,0.5438133478164673,-0.0066694375127553,0.3958913385868072,0.4527566432952881,-0.0023750134278088,0.3854069113731384,0.3913069665431976,0.0037458902224898,0.4296023845672607,0.4315945208072662,0.0324052944779396,0.4212270379066467,0.3417759537696838,0.0261914450675249,0.4203642904758453,0.2843017578125,0.0119538754224777,0.4213519692420959,0.2302702516317367,-0.0002099464909406,0.4680789113044739,0.4160929322242737,0.0272390767931938,0.4604080617427826,0.3123894333839416,0.0255626421421766,0.4572331011295318,0.2466748505830764,0.0134837348014116,0.4536375403404236,0.1854455769062042,0.0030000926926732,0.5024471282958984,0.4221633076667785,0.0159043427556753,0.4993873238563537,0.3254831433296203,0.011667831800878,0.497648686170578,0.2687783241271972,0.0054385657422244,0.4946416318416595,0.2182189226150512,-0.0007366902427747,0.5404954552650452,0.4428642988204956,0.0007619878160767,0.5383578538894653,0.3653367459774017,-0.0025264634750783,0.5361576676368713,0.3184161782264709,-0.0025155274197459,0.5326758623123169,0.273036241531372,-0.0037740832194685
2023-08-01 15:51:51.513469,2,311,0.8009806871414185,0.488095223903656,-0.1538784056901931,0.3106673955917358,-0.08349609375,0.9423828125,0.13720703125,0.4837458431720733,0.7051649689674377,1.9399226403038488e-07,0.4233090579509735,0.644672155380249,-0.0070474571548402,0.4014340043067932,0.5293895602226257,0.0025694018695503,0.4083741903305053,0.4412690997123718,0.0091999778524041,0.4004096686840057,0.38428595662117,0.0170302968472242,0.4355660676956177,0.4296532869338989,0.034183382987976,0.4304521977901459,0.3388422131538391,0.0290611311793327,0.4301868081092834,0.2801055014133453,0.0166428014636039,0.4335474669933319,0.2254734337329864,0.0054813744500279,0.4712128341197967,0.4146741330623626,0.0263243857771158,0.4641028344631195,0.3100035190582275,0.0243208147585392,0.4619609713554382,0.242100715637207,0.0127231962978839,0.4609537422657013,0.1789205372333526,0.0027982976753264,0.505161464214325,0.4209930896759033,0.0129910130053758,0.5040575265884399,0.3191820979118347,0.0078170876950025,0.50447016954422,0.260453999042511,0.000618117453996,0.5034587979316711,0.2074550688266754,-0.0062303873710334,0.5408027172088623,0.4420114159584045,-0.0034374275710433,0.5410104990005493,0.3623354136943817,-0.0087113110348582,0.5424681305885315,0.3139161765575409,-0.0105003863573074,0.5421854257583618,0.2666910588741302,-0.0131345512345433
2023-08-01 15:51:51.591029,3,312,0.802672266960144,0.4564642906188965,-0.0033045895397663,0.3838576376438141,-0.12353515625,0.9521484375,0.27392578125,0.4846890270709991,0.7033406496047974,1.67279253560082e-07,0.4252680838108063,0.6414715051651001,-0.0042646992951631,0.4052141606807709,0.527750551700592,0.0048812599852681,0.4124080538749695,0.4427439868450165,0.0099515989422798,0.4068409204483032,0.3831537663936615,0.0162427108734846,0.4431672394275665,0.423941433429718,0.0377929955720901,0.4369491040706634,0.3336829543113708,0.0333633348345756,0.4343874752521515,0.275877833366394,0.0210177693516016,0.4350089132785797,0.2219534367322921,0.009499829262495,0.4753943979740143,0.4105870127677917,0.0276310238987207,0.4685352742671966,0.3049824237823486,0.0249728523194789,0.4652438759803772,0.2356254160404205,0.0122661255300045,0.4622304737567901,0.1721799671649933,0.0013078342890366,0.5061654448509216,0.4175382554531097,0.0120925763621926,0.5052750110626221,0.31524658203125,0.0062928725965321,0.5059303641319275,0.2552985846996307,-0.0023442124947905,0.5045549869537354,0.2023043036460876,-0.0102098686620593,0.5376810431480408,0.4374696314334869,-0.006335926707834,0.5377336144447327,0.3565250039100647,-0.0126754278317093,0.5390059351921082,0.3051297068595886,-0.0161525905132293,0.538969874382019,0.2563525438308716,-0.0200219023972749
2023-08-01 15:51:51.661530,4,313,0.786784291267395,0.4124640524387359,0.1300324350595474,0.4403809905052185,0.04150390625,0.90869140625,0.24169921875,0.5084925889968872,0.6896991729736328,1.6266845648260644e-07,0.4627271890640259,0.6086322069168091,0.0056414329446852,0.4654288291931152,0.50140780210495,0.0107767209410667,0.4848264157772064,0.4262096583843231,0.0094781499356031,0.4935471713542938,0.3675981760025024,0.0078869387507438,0.4965716004371643,0.3975151777267456,0.032027892768383,0.4988032281398773,0.301406592130661,0.023037014529109,0.4949360191822052,0.2381319999694824,0.0109091326594352,0.492621511220932,0.1842460632324218,0.0007004623766988,0.5204834938049316,0.3915115892887115,0.0130723770707845,0.5220959782600403,0.2838298082351684,0.0047474526800215,0.520536482334137,0.2120784521102905,-0.0071673081256449,0.5193345546722412,0.1540069282054901,-0.0160821117460727,0.5416608452796936,0.4035787284374237,-0.0097802774980664,0.5461942553520203,0.2948957085609436,-0.0189791917800903,0.5482871532440186,0.2293846309185028,-0.0245637893676757,0.5498190522193909,0.1730198562145233,-0.0297639369964599,0.5591092109680176,0.4289925694465637,-0.0344640687108039,0.5602840185165405,0.3400456011295318,-0.0426405370235443,0.5637661218643188,0.2825745940208435,-0.043466430157423,0.5666513442993164,0.231031447649002,-0.0448269471526145
2023-08-01 15:51:51.719133,5,314,0.7572764754295349,0.3602061867713928,0.2532724142074585,0.4823245406150818,-0.23779296875,0.98046875,0.0439453125,0.5317028760910034,0.7016006708145142,1.984531650123245e-07,0.4857511520385742,0.6046801805496216,1.8835071387002245e-05,0.4948700070381164,0.5020679235458374,-0.0048319469206035,0.5165834426879883,0.4256080985069275,-0.0126652522012591,0.5253947973251343,0.3648035526275635,-0.0199247878044843,0.5547677278518677,0.4248687028884887,-0.000970238703303,0.5416890978813171,0.3114993870258331,-0.0188438035547733,0.532380998134613,0.2381809949874878,-0.0336012616753578,0.5299462080001831,0.1773400008678436,-0.043962575495243,0.5691859126091003,0.4284826219081878,-0.0156141836196184,0.5481952428817749,0.3040690422058105,-0.0349225029349327,0.542043924331665,0.2212899178266525,-0.047977291047573,0.5412444472312927,0.1552711725234985,-0.0567920207977294,0.5712885856628418,0.4478781819343567,-0.0321098864078521,0.5545084476470947,0.3338677287101745,-0.0473994053900241,0.5529013872146606,0.2562288343906402,-0.0542607083916664,0.5574395656585693,0.1955233514308929,-0.0596214793622493,0.5618905425071716,0.4768422245979309,-0.0498139224946498,0.5476683974266052,0.3969018757343292,-0.0585525818169117,0.5415042638778687,0.3436142802238464,-0.0600712448358535,0.5393202304840088,0.2982926964759826,-0.0620241425931453
2023-08-01 15:51:51.778177,6,315,0.7054962515830994,0.2886761426925659,0.3864855468273163,0.5192012786865234,-0.56005859375,0.98583984375,-0.4921875,0.5422084927558899,0.6889784932136536,1.391582742371611e-07,0.4910102486610412,0.5913643836975098,0.0159606728702783,0.505632758140564,0.4995926320552826,0.0154071394354105,0.5248923897743225,0.4340130090713501,0.0088899722322821,0.53642338514328,0.3789868950843811,0.001863834215328,0.5852479934692383,0.4201662838459015,0.0112984171137213,0.5618780255317688,0.3065506815910339,-0.0015011274954304,0.5494886040687561,0.2338642179965973,-0.0125792380422353,0.5445231199264526,0.1696711480617523,-0.0210685078054666,0.5957522392272949,0.4217433333396911,-0.0095882974565029,0.5611998438835144,0.2902260422706604,-0.024817869067192,0.5497210025787354,0.2059156894683838,-0.0354233905673027,0.548376739025116,0.1366088688373565,-0.0438524112105369,0.5862898826599121,0.4324200451374054,-0.0308983512222766,0.5600643157958984,0.2985616028308868,-0.0443110913038253,0.5510991811752319,0.211243063211441,-0.0501942411065101,0.5522029399871826,0.140098750591278,-0.0555776804685592,0.5611699819564819,0.4413416087627411,-0.0516488850116729,0.551979124546051,0.3362523317337036,-0.0616343133151531,0.5516476631164551,0.272787868976593,-0.0643452182412147,0.5563249588012695,0.214019775390625,-0.0673154443502426
2023-08-01 15:51:51.848406,7,316,0.6533878445625305,0.2224743366241455,0.4828601479530334,0.5389207601547241,-0.29296875,0.908203125,-0.0751953125,0.571755051612854,0.6457714438438416,-6.312953360065876e-08,0.6130197644233704,0.54694002866745,0.0392980016767978,0.623780369758606,0.4597328901290893,0.0469852350652217,0.6096094250679016,0.3870760500431061,0.04530606046319,0.5826590657234192,0.3424171805381775,0.0385443717241287,0.636570155620575,0.407047688961029,0.0090624317526817,0.5973000526428223,0.2925190329551697,-0.0021266944240778,0.5618113875389099,0.2663612067699432,-0.0092614544555544,0.5395817160606384,0.2607796192169189,-0.0134194213896989,0.605974018573761,0.4002943336963653,-0.0201911348849535,0.5823217034339905,0.2557504177093506,-0.0290189497172832,0.5703160166740417,0.1738267242908477,-0.0339796841144561,0.564920961856842,0.1066392362117767,-0.0400010980665683,0.5652053952217102,0.407230943441391,-0.0458346121013164,0.5576950311660767,0.2616684436798095,-0.0551569275557994,0.5539464354515076,0.1796484887599945,-0.0604534186422824,0.5569050312042236,0.1144534945487976,-0.0667737275362014,0.5177984833717346,0.4236435294151306,-0.0669204667210578,0.5197135210037231,0.3155548572540283,-0.0776282250881195,0.5249215960502625,0.2508729696273803,-0.0782855898141861,0.533867359161377,0.193368524312973,-0.0797985643148422
2023-08-01 15:51:51.922541,8,317,0.6360812187194824,0.2022599726915359,0.5129063129425049,0.5398321151733398,-0.392578125,0.83935546875,-0.2626953125,0.5690696835517883,0.6423107385635376,3.094360678801422e-08,0.6230505704879761,0.5586426854133606,0.0310509335249662,0.6424198150634766,0.46265509724617,0.0411953032016754,0.6406248807907104,0.3749270141124725,0.0458948761224746,0.6303748488426208,0.3131084740161896,0.0459511876106262,0.6357772946357727,0.3967870473861694,-0.0010567174758762,0.6041766405105591,0.2776570320129394,-0.0073941489681601,0.5816819667816162,0.2146660238504409,-0.0096039930358529,0.5646662712097168,0.1650084108114242,-0.0117692984640598,0.5998923182487488,0.394908994436264,-0.0239953249692916,0.5770837664604187,0.2499204576015472,-0.0329254269599914,0.5644455552101135,0.1603624522686004,-0.0369068682193756,0.5563370585441589,0.0905440151691436,-0.0405838191509246,0.5571714043617249,0.4051464796066284,-0.0429093651473522,0.5460874438285828,0.2680158317089081,-0.0521484091877937,0.5449488162994385,0.1842015534639358,-0.0579817295074462,0.5474932789802551,0.1199699640274047,-0.0631952509284019,0.5110472440719604,0.4263602495193481,-0.0578293465077877,0.5079969167709351,0.3189763128757477,-0.0698763728141784,0.509321391582489,0.2569438219070434,-0.0731294900178909,0.5140216946601868,0.2028829455375671,-0.0749397277832031
2023-08-01 15:51:51.977192,9,318,0.6286349296569824,0.1963948756456375,0.5266850590705872,0.5374476313591003,-0.05322265625,0.92529296875,-0.2587890625,0.5761154294013977,0.6450931429862976,1.444791735139006e-07,0.6329994797706604,0.5627197027206421,0.0204466953873634,0.653300404548645,0.4617933630943298,0.0270317122340202,0.6504325866699219,0.3704662024974823,0.0298136211931705,0.642268180847168,0.3036901950836181,0.0292490124702453,0.6357381343841553,0.393503338098526,-0.0035642855800688,0.6129927039146423,0.2752552628517151,-0.0115515813231468,0.5980367064476013,0.2081378698348999,-0.0154627412557601,0.5880070328712463,0.151582270860672,-0.0190371610224246,0.5987548232078552,0.3906838595867157,-0.0217289719730615,0.578306257724762,0.2494929879903793,-0.0344407260417938,0.5680884718894958,0.1611181199550628,-0.0417223311960697,0.5622504353523254,0.0915780067443847,-0.0469342023134231,0.5563770532608032,0.4021033346652984,-0.0369528830051422,0.5443716049194336,0.2670974433422088,-0.0510586947202682,0.5439966320991516,0.1817126274108886,-0.0598394572734832,0.5467603802680969,0.1151500046253204,-0.065674103796482,0.5101149678230286,0.4261053204536438,-0.048851154744625,0.5045114755630493,0.3192338347434997,-0.0640220418572425,0.5054418444633484,0.2555019855499267,-0.0692820772528648,0.5105487108230591,0.1992686986923217,-0.0717739164829254
2023-08-01 15:51:52.038909,10,319,0.6243369579315186,0.1914936453104019,0.5384362936019897,0.5325596928596497,-0.2021484375,0.91357421875,-0.37939453125,0.5760675668716431,0.6451448202133179,1.5637874639651272e-07,0.6435165405273438,0.571544885635376,0.0153010636568069,0.6696790456771851,0.4775080382823944,0.0230911299586296,0.6618809103965759,0.3820322155952453,0.0295100416988134,0.6563296914100647,0.3130809664726257,0.0346238650381565,0.6326690912246704,0.3925415575504303,0.0028588892892003,0.6106040477752686,0.2735074162483215,0.0027076750993728,0.5948700904846191,0.2142672091722488,0.0045424001291394,0.5820487141609192,0.1696473360061645,0.0057826219126582,0.5826026797294617,0.3914211094379425,-0.0075945751741528,0.5611109137535095,0.2545184791088104,-0.0124522447586059,0.5484917759895325,0.1775360256433487,-0.0149145331233739,0.5398524403572083,0.1201660335063934,-0.0159333236515522,0.5368941426277161,0.4072397351264953,-0.0154583677649497,0.5230804085731506,0.2785577178001404,-0.0206973198801279,0.5186430811882019,0.2006158381700515,-0.0246287491172552,0.5156089663505554,0.1393434405326843,-0.0272484105080366,0.4962275624275207,0.4387268424034118,-0.0205126889050006,0.485202819108963,0.3362226486206054,-0.0253149531781673,0.4813175499439239,0.2798826098442077,-0.0239644851535558,0.4802526533603668,0.230539470911026,-0.0215940289199352
2023-08-01 15:51:52.102292,11,320,0.6213040351867676,0.1857002824544906,0.5507948994636536,0.5254727005958557,-0.27587890625,0.86181640625,-0.302734375,0.5744211673736572,0.6490997672080994,1.8788878719533386e-07,0.6409196257591248,0.5790224075317383,0.0152898291125893,0.6669838428497314,0.4841642379760742,0.0230503510683774,0.6592921018600464,0.3883129060268402,0.0294107981026172,0.6528341770172119,0.3175215125083923,0.0343341827392578,0.6285046339035034,0.3909629583358764,0.0032796340528875,0.6044139266014099,0.2709791660308838,0.0028023759368807,0.5882918834686279,0.2126659899950027,0.0046640434302389,0.5753311514854431,0.1699757725000381,0.006052634678781,0.5799334645271301,0.3899227678775787,-0.0070536658167839,0.5568317770957947,0.2545725107192993,-0.0109372250735759,0.543096125125885,0.1791101694107055,-0.0124038532376289,0.5342329740524292,0.1240779757499694,-0.0129069620743393,0.534359335899353,0.407067060470581,-0.0150388525798916,0.5195522308349609,0.279436707496643,-0.0200040470808744,0.5146075487136841,0.2025145143270492,-0.0233558267354965,0.5122045278549194,0.1424458920955658,-0.0257292706519365,0.4929426610469818,0.4403373003005981,-0.0202723965048789,0.4821295142173767,0.339029461145401,-0.0254076402634382,0.4787243008613586,0.2819421887397766,-0.0243729166686534,0.4788378179073334,0.2307525724172592,-0.0222725253552198
2023-08-01 15:51:52.158142,12,321,0.6179816126823425,0.1830079853534698,0.557417631149292,0.5233471989631653,-0.16015625,0.87939453125,-0.2822265625,0.5714783668518066,0.6559123992919922,2.0812299794670253e-07,0.6387699246406555,0.5843116044998169,0.0135366916656494,0.6643968224525452,0.4870090186595917,0.0209986828267574,0.6573221683502197,0.389722466468811,0.0275483932346105,0.6497048735618591,0.317805528640747,0.033163733780384,0.6261757612228394,0.3967587947845459,0.0029298081062734,0.6022632718086243,0.2753126919269562,0.0026078801602125,0.5865970253944397,0.2147544175386428,0.0044046379625797,0.5741655230522156,0.1697824001312255,0.005632309243083,0.5768105387687683,0.3943415880203247,-0.0064745368435978,0.5539767146110535,0.2579603195190429,-0.0109270140528678,0.5408021807670593,0.1799354553222656,-0.0132055208086967,0.5322368144989014,0.1218600571155548,-0.0141866244375705,0.530835747718811,0.4098934233188629,-0.0136107476428151,0.5167545676231384,0.2809723615646362,-0.0188785754144191,0.5124043226242065,0.2019171714782714,-0.0228231735527515,0.5101919770240784,0.1395984292030334,-0.0255396198481321,0.4900113046169281,0.4415333271026611,-0.0181389190256595,0.4795171618461609,0.3395670056343078,-0.0237630829215049,0.4754699468612671,0.2818804085254669,-0.0230913795530796,0.474869042634964,0.2304808497428894,-0.0210951641201972
2023-08-01 15:51:52.222946,13,322,0.6087459921836853,0.1793194413185119,0.5694003701210022,0.522547721862793,-0.255859375,0.8896484375,-0.427734375,0.5683515071868896,0.6593185067176819,2.2359259332915826e-07,0.6376796364784241,0.5872683525085449,0.0129046142101287,0.6632136106491089,0.4902618527412414,0.0199595484882593,0.6542813777923584,0.3930733501911163,0.0260987766087055,0.648619532585144,0.3210666179656982,0.0315005034208297,0.6239285469055176,0.3979417383670807,0.0035226251929998,0.5991263389587402,0.2764526605606079,0.003348279511556,0.5829513072967529,0.2164233773946762,0.0050917090848088,0.5698315501213074,0.1717148870229721,0.0063924421556293,0.5730395317077637,0.3948905169963836,-0.0053715566173195,0.5498085618019104,0.2570067644119262,-0.009314339607954,0.536506175994873,0.1794858127832412,-0.0107906302437186,0.527956485748291,0.1223578453063964,-0.0109220966696739,0.5257077813148499,0.4104255437850952,-0.012124546803534,0.5112853646278381,0.2803494930267334,-0.0167128816246986,0.5071545839309692,0.2024388611316681,-0.0195372123271226,0.5048819780349731,0.1416455805301666,-0.0212201848626136,0.4841707348823547,0.442664623260498,-0.0163953360170125,0.4743249118328094,0.3383939862251282,-0.0206491313874721,0.4706192910671234,0.2820318937301636,-0.0184171553701162,0.4695040881633758,0.2327596992254257,-0.0151680596172809
2023-08-01 15:51:52.283339,14,323,0.6023968458175659,0.1769252568483352,0.5774746537208557,0.5218605995178223,-0.2841796875,0.9140625,-0.36376953125,0.5493621230125427,0.6684015393257141,2.566196428688272e-07,0.6268643140792847,0.6007286310195923,0.0232588313519954,0.655198335647583,0.5026264786720276,0.0375608466565609,0.6481319665908813,0.3990123271942138,0.0511599630117416,0.6425179243087769,0.3238213062286377,0.0647372677922248,0.6106629967689514,0.4015127122402191,0.0128736402839422,0.586877703666687,0.2749776840209961,0.0218090713024139,0.5694634914398193,0.2130966484546661,0.0312313325703144,0.5541430115699768,0.1670377254486084,0.0376122221350669,0.5559852123260498,0.3981746137142181,0.0036894734948873,0.5343388319015503,0.2519540786743164,0.003981664776802,0.5218392610549927,0.1717426627874374,0.0074213254265487,0.5139806866645813,0.1147816479206085,0.0115104848518967,0.5066311955451965,0.4147400856018066,-0.0016244270373135,0.4928239583969116,0.2805606722831726,-0.0015072502428665,0.4888044595718384,0.2025950103998184,0.0005113272345624,0.4859065115451813,0.143610417842865,0.0027686066459864,0.4652972817420959,0.4488189220428467,-0.0033646759111434,0.456446886062622,0.3398945331573486,-0.0011611949885264,0.4545218646526336,0.282880961894989,0.0050801131874322,0.4548264145851135,0.2340974509716034,0.0112140141427516
2023-08-01 15:51:52.346151,15,324,0.6000214219093323,0.1745751798152923,0.5805056095123291,0.5220259428024292,-0.337890625,0.88134765625,-0.36328125,0.5460229516029358,0.6771337389945984,2.439307138502045e-07,0.6236826777458191,0.606013834476471,0.0172215811908245,0.6538751721382141,0.5058085322380066,0.0272963233292102,0.6476320624351501,0.4057048559188843,0.0365901328623294,0.639226496219635,0.3327168822288513,0.045702077448368,0.6071837544441223,0.4057254493236542,0.0074757426045835,0.5840545296669006,0.2765419483184814,0.0102190766483545,0.5668997764587402,0.2114888280630111,0.0145396795123815,0.5522932410240173,0.1636408865451812,0.0179549679160118,0.5517101883888245,0.4024113118648529,-0.0012357638916,0.5295903086662292,0.2556550502777099,-0.0051675443537533,0.5158780813217163,0.1741589158773422,-0.0045604929327964,0.5069313049316406,0.1164315640926361,-0.0022133912425488,0.5018024444580078,0.4171066284179687,-0.007068617735058,0.4893393218517303,0.2807230353355407,-0.0100950142368674,0.4868646562099457,0.2009717226028442,-0.0101998029276728,0.484527587890625,0.1414427459239959,-0.0090727610513567,0.4591422975063324,0.4497540891170501,-0.0100604752078652,0.4524869620800018,0.339792400598526,-0.0093885837122797,0.4510578513145447,0.2809359431266784,-0.0036762424279004,0.4516907930374145,0.2322301566600799,0.0021825418807566
2023-08-01 15:51:52.414034,16,325,0.6073122024536133,0.1788988262414932,0.5714432001113892,0.5221299529075623,-0.35400390625,0.85791015625,-0.40869140625,0.5393677949905396,0.680267333984375,2.532173937197513e-07,0.6185656189918518,0.6114824414253235,0.0150559348985552,0.6506161689758301,0.5101566314697266,0.0246032625436782,0.6432693004608154,0.4075132608413696,0.0337808839976787,0.6363876461982727,0.3339287042617798,0.0427525974810123,0.6019499897956848,0.4089992642402649,0.0063248802907764,0.5800764560699463,0.2785046100616455,0.0092121977359056,0.5632272362709045,0.2131471931934356,0.0132445972412824,0.5481922030448914,0.1646875143051147,0.0163369476795196,0.5464172959327698,0.4042557775974273,-0.0012885478790849,0.5278466939926147,0.2569262087345123,-0.0034683062694966,0.5152777433395386,0.1746976971626281,-0.002451897598803,0.5064607858657837,0.1163042485713958,-0.0002258652675664,0.4968942701816559,0.418184220790863,-0.0062559777870774,0.487181156873703,0.2811447978019714,-0.0076225246302783,0.4854558706283569,0.2018850445747375,-0.0073818317614495,0.4835517406463623,0.1427793502807617,-0.0066600763238966,0.454515665769577,0.4500982463359833,-0.0086929723620414,0.4491746723651886,0.3410604596138,-0.0073431101627647,0.4485963582992553,0.2832497358322143,-0.0014576155226677,0.4497462809085846,0.2353495955467224,0.0042403768748044
2023-08-01 15:51:52.468771,17,326,0.6464171409606934,0.2172462344169616,0.518180787563324,0.5161759257316589,-0.193359375,0.89501953125,-0.5146484375,0.5247969627380371,0.6798639893531799,2.583822151791537e-07,0.6060203313827515,0.6068646907806396,0.0193700827658176,0.6384044289588928,0.5051403641700745,0.0314372666180133,0.6324768662452698,0.4006101489067077,0.0437651239335536,0.6233677268028259,0.3241334557533264,0.056980550289154,0.586725652217865,0.4081262052059173,0.0096227461472153,0.5669190883636475,0.278092622756958,0.0169938337057828,0.5514276623725891,0.215708240866661,0.0256572235375642,0.5371801257133484,0.1699676513671875,0.0321833603084087,0.5299452543258667,0.4038304686546325,0.0024082490708678,0.5125777125358582,0.2559866905212402,0.001413878519088,0.5007315278053284,0.1779897511005401,0.0048108072951436,0.4919639527797699,0.1225558817386627,0.0092183798551559,0.481157511472702,0.4173636734485626,-0.0012085442431271,0.471299946308136,0.2794319987297058,-0.0002878156374208,0.4701321721076965,0.2078684717416763,0.004322319291532,0.4676875174045563,0.1544024646282196,0.0086255352944135,0.4414910674095154,0.447703093290329,-0.0017716930015012,0.4361598491668701,0.3310344219207763,0.0035207697656005,0.4372518658638,0.2758381366729736,0.013355815783143,0.4396023154258728,0.2314027994871139,0.0221253596246242
2023-08-01 15:51:52.538978,18,327,0.7048409581184387,0.286991149187088,0.4107976853847503,0.5020762085914612,-0.01513671875,0.93359375,-0.03857421875,0.5246404409408569,0.677692174911499,2.521805413380207e-07,0.6039396524429321,0.6066399216651917,0.0179688893258571,0.6371644139289856,0.5059741139411926,0.0296912342309951,0.6284023523330688,0.4030610024929046,0.0410175360739231,0.6197001338005066,0.3284793496131897,0.0527761615812778,0.585451066493988,0.4066658616065979,0.0128795569762587,0.5634239912033081,0.2766797542572021,0.0193110983818769,0.5467748045921326,0.2128393054008484,0.0258495584130287,0.5320632457733154,0.1658222377300262,0.0309110172092914,0.5290263295173645,0.4007495045661926,0.0053804889321327,0.5111817717552185,0.2552860975265503,0.0062251016497612,0.4990801811218261,0.1758822798728943,0.0094026317819952,0.4907453656196594,0.1192826032638549,0.0133972810581326,0.480074942111969,0.4133346974849701,0.0006028071511536,0.469342976808548,0.2788963317871094,0.0024150635581463,0.4678234755992889,0.2048640847206115,0.0054917428642511,0.4660739600658417,0.1493233144283294,0.0085509149357676,0.4393386840820312,0.4435411989688873,-0.0015726746059954,0.4333424568176269,0.3285777568817138,0.0043453234247863,0.4335137009620666,0.2734798789024353,0.013797853142023,0.4351680874824524,0.2291816174983978,0.022097447887063
2023-08-01 15:51:52.601864,19,328,0.7391672134399414,0.3332327306270599,0.3279193043708801,0.4848265051841736,-0.38818359375,0.935546875,-0.22314453125,0.5271844267845154,0.6778368949890137,2.6678938525037665e-07,0.6025879979133606,0.602406919002533,0.0145470779389142,0.6327664852142334,0.5016345381736755,0.0220006294548511,0.6235255599021912,0.3992566466331482,0.0290700774639844,0.6156716346740723,0.3237640261650085,0.0360834114253521,0.5847020149230957,0.4069236218929291,0.00329962791875,0.5599252581596375,0.2765287458896637,0.0047265351749956,0.5421808958053589,0.2126789689064026,0.008480348624289,0.5266811847686768,0.165683627128601,0.0117905773222446,0.5280859470367432,0.4047039151191711,-0.0049329143948853,0.5065361261367798,0.2569918036460876,-0.0082966005429625,0.49384206533432,0.1762520521879196,-0.0065331505611538,0.4855498373508453,0.1189616918563842,-0.0035691265948116,0.4780318140983581,0.4201589226722717,-0.0105588901787996,0.4649654626846313,0.2822882533073425,-0.0125703383237123,0.4643847048282623,0.2059410363435745,-0.0100178271532058,0.4645875990390777,0.1492411792278289,-0.0074101616628468,0.4364403784275055,0.4519106149673462,-0.0138001469895243,0.4309328198432922,0.3361905813217163,-0.0123991640284657,0.4320791959762573,0.279236376285553,-0.0043876711279153,0.4354051351547241,0.2325815707445144,0.0030828940216451
2023-08-01 15:51:52.659198,20,329,0.772451639175415,0.3906794190406799,0.2108857929706573,0.454109251499176,-0.4072265625,0.93798828125,-0.19482421875,0.5359016060829163,0.6654273867607117,1.1439385616540677e-07,0.5872127413749695,0.5690096020698547,0.0220376905053854,0.6023558378219604,0.4687637686729431,0.0284306667745113,0.5922667980194092,0.3807578980922699,0.0299001913517713,0.5727792382240295,0.3199417293071747,0.0277300085872411,0.5740806460380554,0.3967765271663666,0.0029473712202161,0.5358051657676697,0.2826687395572662,-0.0073658605106174,0.5122770667076111,0.2217701077461242,-0.0142282312735915,0.495553970336914,0.1732613146305084,-0.0192397665232419,0.5356377959251404,0.3996371030807495,-0.016739934682846,0.5023043155670166,0.2578226923942566,-0.0288278013467788,0.4847603440284729,0.1724873483180999,-0.0361150428652763,0.4738744795322418,0.1055050194263458,-0.0416363067924976,0.4934954643249511,0.4170951545238495,-0.0344350077211856,0.4719721376895904,0.2803652882575989,-0.0469055697321891,0.464390218257904,0.1959332525730133,-0.0546528846025466,0.4623299837112427,0.1281962692737579,-0.0605294629931449,0.4497090578079223,0.4470050930976867,-0.0491880401968956,0.4370220303535461,0.3376592993736267,-0.062139842659235,0.4334150552749634,0.2744814157485962,-0.0657102614641189,0.4335013628005981,0.2173551023006439,-0.0676546245813369
2023-08-01 15:51:52.716868,21,330,0.7891022562980652,0.4254688024520874,0.1268226355314254,0.4245113432407379,0.0361328125,0.90673828125,0.10107421875,0.5397783517837524,0.6578129529953003,1.9949425222876016e-08,0.577772319316864,0.5551661849021912,0.0316244959831237,0.5861131548881531,0.4600001573562622,0.040485642850399,0.5717339515686035,0.3819519579410553,0.0408333726227283,0.5456430912017822,0.3296034932136535,0.0370980016887187,0.5807580351829529,0.4029557108879089,0.0155072910711169,0.5372102856636047,0.2947720885276794,0.0027870023623108,0.504010796546936,0.2503220438957214,-0.0076121450401842,0.4811941087245941,0.224420890212059,-0.0142069719731807,0.5536693930625916,0.3964836597442627,-0.0110653638839721,0.5189021825790405,0.254953384399414,-0.0233793184161186,0.4985380172729492,0.1672617793083191,-0.0321949683129787,0.4841977655887604,0.0972691774368286,-0.0396618507802486,0.5163620710372925,0.4072660505771637,-0.0358429662883281,0.4967842102050781,0.2650369107723236,-0.0480461679399013,0.4856984615325928,0.1827082186937332,-0.0562794581055641,0.479595273733139,0.1207038462162017,-0.0630921125411987,0.4706470966339111,0.4300454556941986,-0.0573340393602848,0.4606146514415741,0.318766713142395,-0.0680210441350936,0.4576286077499389,0.2515483796596527,-0.0706106945872306,0.4573465287685394,0.1946531534194946,-0.0729717463254928
2023-08-01 15:51:52.782076,22,331,0.8003678321838379,0.4709618091583252,-0.0116808349266648,0.3707693517208099,0.04443359375,0.931640625,0.05859375,0.53499436378479,0.6602407693862915,5.634364796947011e-08,0.5671628713607788,0.572968602180481,0.0247078780084848,0.5782188177108765,0.480316549539566,0.0343578308820724,0.576130747795105,0.4178261756896972,0.0359430685639381,0.5666517019271851,0.3781593143939972,0.0352230258285999,0.5599011182785034,0.3961655795574188,0.0265354495495557,0.5311195254325867,0.2969607412815094,0.0167976841330528,0.5141026973724365,0.2286557406187057,0.0066315964795649,0.5003654956817627,0.1702801138162613,-0.0019818334840238,0.5463634133338928,0.3915458917617798,0.0006555665167979,0.5189046263694763,0.2630239129066467,-0.0135882766917347,0.5037657022476196,0.173724815249443,-0.0262878444045782,0.4911288321018219,0.0954447090625763,-0.0359093472361564,0.5215115547180176,0.3994572758674621,-0.0252853501588106,0.5033901333808899,0.2728712856769562,-0.0396267138421535,0.4936719536781311,0.1896206587553024,-0.0512354113161563,0.4868439733982086,0.1178897321224212,-0.0596421770751476,0.4875831604003906,0.4165729582309723,-0.0495692268013954,0.4785079061985016,0.3170224130153656,-0.0622575767338275,0.4771651923656463,0.2498291283845901,-0.0688688829541206,0.4789063930511474,0.1904646903276443,-0.0742772072553634
2023-08-01 15:51:52.844641,23,332,0.7967048287391663,0.4993266761302948,-0.1273711025714874,0.315770536661148,-0.26416015625,0.95703125,0.11767578125,0.5361542701721191,0.6656410694122314,6.986853406942829e-08,0.5558720231056213,0.5685329437255859,0.0295274555683136,0.5632854104042053,0.4744370579719543,0.0368481203913688,0.5615113973617554,0.4052892327308655,0.0350756496191024,0.5546597242355347,0.3541098833084106,0.0304978750646114,0.5649913549423218,0.4059012234210968,0.0198320802301168,0.5374582409858704,0.2928996086120605,0.0063211061060428,0.5195261240005493,0.2173818945884704,-0.0050325957126915,0.5067564249038696,0.1530265212059021,-0.0140186408534646,0.5576502680778503,0.402489423751831,-0.0096128275617957,0.5290353298187256,0.2639562487602234,-0.0248457137495279,0.5126962065696716,0.1726090013980865,-0.0375651232898235,0.5006639361381531,0.0957197546958923,-0.0480380840599536,0.5352254509925842,0.4090582430362701,-0.0382326617836952,0.5189806222915649,0.269735723733902,-0.0512854866683483,0.5082703232765198,0.1806736886501312,-0.0625486150383949,0.5013989210128784,0.1067324578762054,-0.0723566114902496,0.5016555190086365,0.4224972724914551,-0.0647261440753936,0.4982420802116394,0.3173559308052063,-0.0772993192076683,0.4987882077693939,0.2478333115577697,-0.08472940325737,0.5003050565719604,0.186675950884819,-0.0914252921938896
2023-08-01 15:51:52.905884,24,333,0.7812206149101257,0.5180841088294983,-0.2368125319480896,0.255348801612854,-0.1328125,0.89453125,0.234375,0.5086973309516907,0.6610865592956543,2.5298677996943297e-07,0.4581285119056701,0.5744940638542175,0.0033584700431674,0.4617553651332855,0.4739916026592254,0.0045492253266274,0.4770338535308838,0.4062120914459228,0.0005653922562487,0.4799216389656067,0.3435869514942169,-0.0035500156227499,0.5016749501228333,0.3803041577339172,0.0182908065617084,0.4959211945533752,0.268125981092453,0.0033953702077269,0.4910542964935303,0.192728042602539,-0.0107057774439454,0.4911311566829681,0.1283524334430694,-0.0215837843716144,0.5202785730361938,0.3792380392551422,0.000459902541479,0.5114961862564087,0.2528005242347717,-0.0172917414456605,0.5117020606994629,0.1681142747402191,-0.0340850688517093,0.5158977508544922,0.0953547656536102,-0.0455691963434219,0.5332061648368835,0.3900435268878937,-0.0204025376588106,0.5273736119270325,0.2636087238788605,-0.0392357185482978,0.5293601751327515,0.1819515526294708,-0.05235505849123,0.5336804389953613,0.1136002838611602,-0.0607489794492721,0.5405348539352417,0.410703182220459,-0.0421297214925289,0.5364030003547668,0.3124028742313385,-0.0568484775722026,0.5365095138549805,0.2475010305643081,-0.0637496635317802,0.5379196405410767,0.1905822902917862,-0.0687354505062103
2023-08-01 15:51:52.969022,25,334,0.7602848410606384,0.5230412483215332,-0.3295820653438568,0.1994255185127258,0.224609375,0.87939453125,0.32568359375,0.5052052140235901,0.6537047028541565,2.4534679710086493e-07,0.449527770280838,0.5684642791748047,0.0094051146879792,0.4488320648670196,0.4630072116851806,0.0149625251069664,0.465833842754364,0.391357272863388,0.013993595726788,0.4733213186264038,0.3322548866271972,0.0129119325429201,0.4816013276576996,0.3627272546291351,0.0296868383884429,0.4818248450756073,0.2538889050483703,0.0218554120510816,0.4786325395107269,0.1858800202608108,0.0116906771436333,0.4777731597423553,0.1283230781555175,0.0030257059261202,0.5064001679420471,0.3586011826992035,0.009061093442142,0.5060149431228638,0.2366986572742462,-4.822248956770636e-05,0.5066397786140442,0.1556763648986816,-0.0113183334469795,0.5086796283721924,0.090407907962799,-0.0193200130015611,0.5268210768699646,0.3749549686908722,-0.0144910020753741,0.5314491987228394,0.2531235218048095,-0.0253291968256235,0.5357874631881714,0.1791554689407348,-0.03198978677392,0.5411630868911743,0.1190243661403656,-0.0372145697474479,0.5420815348625183,0.4069524705410003,-0.0390248522162437,0.5442936420440674,0.3155146837234497,-0.0479835234582424,0.5472909212112427,0.2552490234375,-0.0488943755626678,0.5511953234672546,0.205482542514801,-0.0500375069677829
2023-08-01 15:51:53.032959,26,335,0.7556251883506775,0.515859067440033,-0.3616812825202942,0.1791832596063614,0.13623046875,0.8447265625,0.5849609375,0.503464937210083,0.6553590893745422,2.086341339690989e-07,0.4428333342075348,0.5738005638122559,0.0034273765049874,0.4345701336860657,0.4637919068336487,0.0088673094287514,0.4477382898330688,0.3871671259403229,0.0080305850133299,0.4515692293643951,0.3253414928913116,0.0072882962413132,0.4696644246578216,0.3631907105445862,0.0342642478644847,0.466826468706131,0.2622742056846618,0.0262407436966896,0.4633349478244781,0.1989441812038421,0.0134282847866415,0.4629991352558136,0.1410059630870819,0.0021578988526016,0.496386706829071,0.3531708717346191,0.0167984627187252,0.4965806007385254,0.2368957847356796,0.0087372027337551,0.4958351254463196,0.1584725379943847,-0.0055041136220097,0.4961970448493957,0.0901856422424316,-0.0169148463755846,0.5204343199729919,0.3645122647285461,-0.00498928129673,0.528499186038971,0.2490025609731674,-0.0143051259219646,0.5330752730369568,0.1778825670480728,-0.0249762944877147,0.5358806252479553,0.1170689761638641,-0.0340276360511779,0.5412899255752563,0.3904400765895843,-0.0287320148199796,0.54775071144104,0.301537811756134,-0.0364646092057228,0.5516496896743774,0.2413577735424041,-0.0408232808113098,0.5542859435081482,0.1885365545749664,-0.0455692112445831
2023-08-01 15:51:53.093061,27,336,0.7546812891960144,0.5122886300086975,-0.3716343641281128,0.1729289442300796,0.12646484375,0.93017578125,0.3720703125,0.4995309710502624,0.652608335018158,2.010739450497568e-07,0.4379245936870575,0.5819306969642639,-0.0017169206403195,0.4228943884372711,0.4732320308685303,0.0030998003203421,0.433286041021347,0.3917981088161468,0.0024998479057103,0.4330792427062988,0.3267165124416351,0.0020620226860046,0.4598157405853271,0.362063854932785,0.0352110192179679,0.4563550651073456,0.2656302452087402,0.0278871096670627,0.4544092416763305,0.2047011852264404,0.0138019397854805,0.4556948542594909,0.1474150717258453,0.0010895539307966,0.4893100559711456,0.3497140109539032,0.0204974543303251,0.4880540668964386,0.237157866358757,0.0145491594448685,0.4869474172592163,0.1618628948926925,-0.0011878967052325,0.4867131412029266,0.0934264361858367,-0.0147935571148991,0.5159315466880798,0.3598242402076721,0.000728155602701,0.522164523601532,0.2502661943435669,-0.0081146443262696,0.5260939002037048,0.1810500174760818,-0.0211191959679126,0.5275412797927856,0.1199608147144317,-0.0324835926294326,0.540341317653656,0.3846505880355835,-0.0214622728526592,0.5457846522331238,0.2967857718467712,-0.0306775067001581,0.5489802956581116,0.2381390482187271,-0.0372476354241371,0.5502685904502869,0.1842537969350814,-0.043870486319065
2023-08-01 15:51:53.154333,28,337,0.7552130818367004,0.5088357329368591,-0.3780014216899872,0.166896253824234,0.0546875,0.94140625,0.416015625,0.4951692223548889,0.6723503470420837,2.1170131958569985e-07,0.4255205690860748,0.6129364967346191,-0.0093677174299955,0.3932486772537231,0.5016824007034302,-0.0032655708491802,0.3946744203567505,0.4129546582698822,-0.0004187951271887,0.3821808099746704,0.3503259122371673,0.0035771280527114,0.4227977991104126,0.3824802935123443,0.0328447706997394,0.4136168658733368,0.2857440114021301,0.0256504155695438,0.4132441878318786,0.2256935983896255,0.0100940931588411,0.4157465696334839,0.1681713759899139,-0.0036857174709439,0.4596405327320099,0.366740882396698,0.0232289396226406,0.4499227404594421,0.2546395659446716,0.0192622542381286,0.4474717974662781,0.1821188628673553,0.0046779084950685,0.446358859539032,0.1150755584239959,-0.0079924678429961,0.4941082298755646,0.3755968511104584,0.0076380604878067,0.4926585853099823,0.2676838040351867,0.0005014743073843,0.4921528100967407,0.2033823430538177,-0.0095054525882005,0.4913588166236877,0.1464615166187286,-0.0188237838447093,0.5325825810432434,0.4015965163707733,-0.0112484823912382,0.5331301689147949,0.3174377679824829,-0.0184107292443513,0.5337843298912048,0.2631458640098572,-0.0216029118746519,0.535426914691925,0.2109005749225616,-0.0256520882248878
2023-08-01 15:51:53.213257,29,338,0.753907322883606,0.5077710151672363,-0.3834951221942901,0.1634745895862579,0.1025390625,0.90966796875,0.5791015625,0.4955316483974457,0.6817933320999146,2.412588173683617e-07,0.4270010590553283,0.6257320642471313,-0.0094621637836098,0.3923502564430237,0.5117577314376831,-0.003246413776651,0.3887018859386444,0.4194335341453552,-0.0004169046587776,0.368830144405365,0.3582111299037933,0.0033380300737917,0.4250543713569641,0.3866795599460602,0.0345189049839973,0.4136714935302734,0.290415346622467,0.0263016447424888,0.4122018814086914,0.2290853708982467,0.0096071437001228,0.4137670397758484,0.1705349683761596,-0.0049692532047629,0.4616491496562958,0.3699300587177276,0.0250310637056827,0.4514512121677398,0.2597813606262207,0.0201719440519809,0.4476644396781921,0.1882990300655365,0.0039051549974828,0.4437342882156372,0.1209192276000976,-0.0100864423438906,0.4951045513153076,0.3777546882629394,0.0094317141920328,0.490893542766571,0.2729781866073608,0.0018990385578945,0.4885615706443786,0.2098020017147064,-0.0089980186894536,0.484933078289032,0.153346836566925,-0.0190694984048604,0.5313838720321655,0.402004212141037,-0.0096045164391398,0.5295341610908508,0.318581074476242,-0.0166588518768548,0.5283048748970032,0.2665026187896728,-0.0204788595438003,0.5259646773338318,0.2156175374984741,-0.0251542441546916
2023-08-01 15:51:53.262207,30,339,0.7524060010910034,0.50776207447052,-0.3867571949958801,0.1627319902181625,0.021484375,0.912109375,0.306640625,0.4938542246818542,0.6862293481826782,2.563422754064959e-07,0.4258725345134735,0.6280577778816223,-0.0104446318000555,0.3923426270484924,0.5161507725715637,-0.0048041092231869,0.3891659379005432,0.4246951639652252,-0.0023335516452789,0.3702355027198791,0.3628422319889068,0.0014456935459747,0.4224946796894073,0.3908398747444153,0.0349107384681701,0.411851167678833,0.2952095866203308,0.0267202891409397,0.4113311767578125,0.2345283925533294,0.0099524175748229,0.4137116074562073,0.1763143539428711,-0.0043862625025212,0.4600358605384826,0.3731920123100281,0.0261809639632701,0.4510534405708313,0.2624788880348205,0.0223266556859016,0.4476586878299713,0.1915735751390457,0.0070116305723786,0.4437586367130279,0.1245709955692291,-0.0062458161264657,0.4941719174385071,0.380113422870636,0.0112006310373544,0.4907829165458679,0.2748747169971466,0.0051969164051115,0.4884942173957824,0.2128302156925201,-0.0039544571191072,0.4846661686897278,0.1572247147560119,-0.0127473901957273,0.5310353636741638,0.4039683938026428,-0.0074643059633672,0.5296621322631836,0.3194233477115631,-0.0124267321079969,0.5287183523178101,0.2680780291557312,-0.0142503306269645,0.5262697339057922,0.2184272557497024,-0.0173916909843683
2023-08-01 15:51:53.320115,31,340,0.7514640688896179,0.5065903663635254,-0.3907065093517303,0.1612959504127502,0.04248046875,0.90576171875,0.43603515625,0.4956410229206085,0.6903238296508789,2.821420821419452e-07,0.4268766045570373,0.6314650177955627,-0.0111943939700722,0.3931679129600525,0.5219865441322327,-0.0061454786919057,0.3893548250198364,0.4306526780128479,-0.0041095041669905,0.36984783411026,0.3686726093292236,-0.0005361452349461,0.4224449098110199,0.3933223485946655,0.0352759398519992,0.4118857383728027,0.2955360412597656,0.0272896792739629,0.4112232625484466,0.2335248589515686,0.0105682080611586,0.4137000143527984,0.174257218837738,-0.0036908108741045,0.4597440063953399,0.376210480928421,0.0271433088928461,0.4503400921821594,0.2650271654129028,0.0237527471035718,0.4472996294498443,0.1940663605928421,0.0085618151351809,0.4441041946411133,0.1269897222518921,-0.0046254629269242,0.4938254058361053,0.3834575414657593,0.0126903019845485,0.4899297058582306,0.2785249352455139,0.0074140112847089,0.4879129827022552,0.2164207696914672,-0.0013647109735757,0.4849644601345062,0.161085158586502,-0.0099577140063047,0.5312416553497314,0.4075450003147125,-0.0055727651342749,0.5295649170875549,0.3232728242874145,-0.0095970034599304,0.5285409688949585,0.2724458575248718,-0.0108702722936868,0.526457667350769,0.2234818786382675,-0.0136256953701376
2023-08-01 15:51:53.368897,32,341,0.751416027545929,0.50627601146698,-0.3917461037635803,0.1599791496992111,0.14453125,0.86181640625,0.484375,0.4985881149768829,0.6915844678878784,2.617022403228475e-07,0.428642600774765,0.6331040263175964,-0.0109178926795721,0.3937262296676636,0.5222808122634888,-0.0049819881096482,0.390317440032959,0.4302955269813537,-0.0021206932142376,0.3701287508010864,0.369110107421875,0.002200863091275,0.4222369194030761,0.3958123028278351,0.0368162840604782,0.4109838008880615,0.3007459938526153,0.0289535652846097,0.4108572006225586,0.2402799278497696,0.0117936413735151,0.4136446118354797,0.181524395942688,-0.002939514350146,0.4601131677627563,0.3773660659790039,0.0284830816090106,0.4506892263889313,0.2670572102069855,0.0254743807017803,0.4476131498813629,0.1975240409374237,0.0100646493956446,0.4438124299049377,0.1303602457046508,-0.0034656564239412,0.49420166015625,0.384076714515686,0.0137101598083972,0.4904297292232513,0.2795130610466003,0.0085659129545092,0.4881511926651001,0.218667984008789,-9.167495591100304e-06,0.4848081469535827,0.1635943055152893,-0.0086101545020937,0.5322398543357849,0.408062994480133,-0.0049098799936473,0.5300780534744263,0.3240306973457336,-0.0088125420734286,0.5290893912315369,0.2736437916755676,-0.0097719971090555,0.5268164873123169,0.2243533581495285,-0.0124842189252376
2023-08-01 15:51:53.449189,33,342,0.7509090304374695,0.5082928538322449,-0.3898866176605224,0.1605070978403091,0.07373046875,0.90478515625,0.35595703125,0.5029933452606201,0.6893921494483948,2.821520013185364e-07,0.4319208264350891,0.6309517621994019,-0.011927243322134,0.3944110870361328,0.521162211894989,-0.0064131123945117,0.3868826925754547,0.4285190105438232,-0.0037420666776597,0.3627808690071106,0.3690643608570099,0.000680853263475,0.4199900031089782,0.3968004882335663,0.036691840738058,0.4066906571388244,0.2998563051223755,0.0288817975670099,0.4053013026714325,0.2387763410806656,0.0120483832433819,0.406758576631546,0.1800660192966461,-0.0022752822842448,0.4577372670173645,0.3774709403514862,0.0294174514710903,0.4457901120185852,0.2666099369525909,0.0268655661493539,0.4417431652545929,0.1967630684375763,0.0120352283120155,0.43714639544487,0.1299495995044708,-0.0009666528785601,0.4923951923847198,0.3826302289962768,0.0156124522909522,0.4867759048938751,0.2786465287208557,0.0112978611141443,0.4839823544025421,0.2171192169189453,0.0033609506208449,0.4803436994552612,0.162355750799179,-0.004776909481734,0.5311959385871887,0.4044885039329529,-0.0021719301585108,0.5276956558227539,0.3231307864189148,-0.0048448513261973,0.5254628658294678,0.2740781903266907,-0.0050126342102885,0.5223056077957153,0.2265969365835189,-0.0071396795101463
2023-08-01 15:51:53.519125,34,343,0.7521425485610962,0.5097942352294922,-0.3846891820430755,0.1624981462955474,0.1083984375,0.9091796875,0.32470703125,0.502044677734375,0.6893537044525146,2.7540713176676945e-07,0.4322837591171264,0.6330978870391846,-0.0120741352438926,0.3945918679237366,0.5218051671981812,-0.0067071276716887,0.386841356754303,0.4288780093193054,-0.0041459132917225,0.361825942993164,0.3702711462974548,-0.0001363120391033,0.4195036292076111,0.3965464830398559,0.0348357409238815,0.4055647253990173,0.2998688817024231,0.0264879018068313,0.4029926359653473,0.238082930445671,0.0097372625023126,0.4036763906478882,0.1788505017757415,-0.0045682294294238,0.4576419591903686,0.3772542178630829,0.0271262172609567,0.4445628821849823,0.267125517129898,0.0233329311013221,0.4394982159137726,0.1964978873729705,0.0082488935440778,0.4341164827346802,0.1294393539428711,-0.0048268428072333,0.4928224980831146,0.3830298781394958,0.0129228318110108,0.485917180776596,0.2792320251464844,0.0069147883914411,0.4822601079940796,0.2177487164735794,-0.0016815764829516,0.4775318801403045,0.1623083353042602,-0.0100668696686625,0.5318108797073364,0.4054805338382721,-0.0051463926210999,0.5272248387336731,0.323019415140152,-0.009925914928317,0.5242628455162048,0.2728795409202575,-0.0113325081765651,0.5199943780899048,0.2237001955509185,-0.0141909318044781
