Timestamp,Index,Frame ID,w,x,y,z,ax,ay,az,x_0,y_0,z_0,x_1,y_1,z_1,x_2,y_2,z_2,x_3,y_3,z_3,x_4,y_4,z_4,x_5,y_5,z_5,x_6,y_6,z_6,x_7,y_7,z_7,x_8,y_8,z_8,x_9,y_9,z_9,x_10,y_10,z_10,x_11,y_11,z_11,x_12,y_12,z_12,x_13,y_13,z_13,x_14,y_14,z_14,x_15,y_15,z_15,x_16,y_16,z_16,x_17,y_17,z_17,x_18,y_18,z_18,x_19,y_19,z_19,x_20,y_20,z_20
2023-08-01 15:51:49.053200,0,272,0.7532299160957336,0.506926953792572,-0.3886001706123352,0.1570337414741516,0.1240234375,0.90576171875,0.40283203125,0.4950057864189148,0.725638210773468,2.433125700918027e-07,0.4267150461673736,0.6699820756912231,-0.0124346436932682,0.3920941054821014,0.5655559301376343,-0.0071575711481273,0.3882038295269012,0.475609689950943,-0.0036390866152942,0.3670595288276672,0.4168642461299896,0.0020677661523222,0.4267388582229614,0.4362738728523254,0.0326725728809833,0.4164042472839355,0.3417583107948303,0.0264324471354484,0.4143677353858948,0.2839969396591186,0.01162950694561,0.4153464138507843,0.2294135987758636,-0.0001851004053605,0.4666277170181274,0.4219884574413299,0.027588028460741,0.4570454657077789,0.3127617239952087,0.0292435977607965,0.4528261721134186,0.2451635301113128,0.020055403932929,0.4483800828456878,0.1846901178359985,0.0116827059537172,0.5022649765014648,0.4299890398979187,0.0163671225309371,0.4989078044891357,0.3302649855613708,0.0167231205850839,0.4968921840190887,0.2745577692985534,0.0159190185368061,0.4944275021553039,0.2272231727838516,0.0133640505373477,0.5413091778755188,0.4535514712333679,0.0009234398603439,0.5382355451583862,0.3737033903598785,0.0023736623115837,0.5352963805198669,0.3284962475299835,0.0075195548124611,0.5322701930999756,0.2866487205028534,0.0103192841634154
2023-08-01 15:51:49.117026,1,273,0.7591475248336792,0.5071782469749451,-0.3700613379478454,0.1718131899833679,0.07421875,0.90625,0.4501953125,0.4966928362846374,0.7261844873428345,2.487367964931764e-07,0.4282517433166504,0.6708967685699463,-0.0137216029688715,0.3929350078105926,0.5634543895721436,-0.0088457642123103,0.3894451260566711,0.4716052114963531,-0.0054957722313702,0.3672116994857788,0.4146518409252167,-8.976982644526288e-05,0.4262909591197967,0.4365201592445373,0.0314211919903755,0.4162365794181824,0.3427620828151703,0.025235641747713,0.4141780436038971,0.2849968075752258,0.0103848483413457,0.4144488871097564,0.2302185595035553,-0.0018717440543696,0.4661152362823486,0.4214787185192108,0.0266513507813215,0.4572581350803375,0.3130896091461181,0.0277448762208223,0.4534376859664917,0.2465559393167495,0.0178711507469415,0.4488577842712402,0.185776025056839,0.0086953155696392,0.5016793012619019,0.4292483925819397,0.0156721696257591,0.4989160597324371,0.3299756050109863,0.0153344217687845,0.4970875978469848,0.2742519974708557,0.0130806388333439,0.494105577468872,0.2257889807224273,0.00913324393332,0.540442943572998,0.4524803459644317,0.0004466144309844,0.5377136468887329,0.3731715083122253,0.0013327926862984,0.5350313186645508,0.3279048204421997,0.0053622601553797,0.5316705107688904,0.2853893041610718,0.0068703759461641
2023-08-01 15:51:49.176994,2,274,0.774574875831604,0.5046228766441345,-0.3182330429553985,0.2100413292646408,0.30517578125,0.90966796875,0.4482421875,0.4966630637645721,0.7278581857681274,2.624971671139065e-07,0.4279963076114654,0.6701375842094421,-0.0136621603742241,0.3932411074638366,0.5620332360267639,-0.008685135282576,0.3899507522583008,0.4694801270961761,-0.0053178733214735,0.3668977618217468,0.4140225648880005,9.419651178177446e-05,0.4261407554149627,0.4367392361164093,0.032437901943922,0.4157245457172394,0.3429040312767029,0.0257753189653158,0.4142619371414184,0.2846188843250274,0.0103063732385635,0.4151018261909485,0.2292205393314361,-0.0023611583746969,0.4660941362380981,0.4216170907020569,0.0275177415460348,0.4572338163852691,0.313302218914032,0.0278325360268354,0.453538030385971,0.2459655404090881,0.016878230497241,0.4492591619491577,0.1838949024677276,0.0069643785245716,0.5016918778419495,0.429414302110672,0.0163185968995094,0.4986585676670074,0.3301953673362732,0.0151697639375925,0.4964043796062469,0.2741784155368805,0.011983829550445,0.4932740032672882,0.2249947488307953,0.0075240731239318,0.5405756235122681,0.4529339969158172,0.0009072551620192,0.5378910899162292,0.3732168078422546,0.001289592240937,0.5350433588027954,0.3275060057640075,0.0048641385510563,0.5315653681755066,0.2843866348266601,0.0060520004481077
2023-08-01 15:51:49.242813,3,275,0.800535261631012,0.4913328289985657,-0.1882517039775848,0.2868740260601043,0.01171875,0.93896484375,0.2392578125,0.4963846206665039,0.728569507598877,2.7235239485889906e-07,0.4283001124858856,0.672182023525238,-0.0132520031183958,0.3939225077629089,0.5618602633476257,-0.0076211518608033,0.3914364874362945,0.4690241813659668,-0.0036380456294864,0.3689400255680084,0.414836049079895,0.0023435964249074,0.425551176071167,0.4360147416591644,0.0325848273932933,0.4161542356014251,0.340971827507019,0.0263991374522447,0.4154127836227417,0.2814905643463135,0.0114007806405425,0.4171224236488342,0.225455641746521,-0.001076900283806,0.4656755924224853,0.4210698008537292,0.0275781396776437,0.4574046730995178,0.3120986521244049,0.0280985012650489,0.454238623380661,0.2446213215589523,0.0172012150287628,0.4503899812698364,0.1820794641971588,0.0072265062481164,0.5014932751655579,0.4287874400615692,0.0163678787648677,0.4985923171043396,0.3290683329105377,0.0154439071193337,0.4963705539703369,0.2724743485450744,0.0119834225624799,0.4934088885784149,0.2225118279457092,0.0071093188598752,0.5404176712036133,0.4518297910690307,0.0009690743754617,0.5377731323242188,0.3721511960029602,0.0014990024501457,0.535419225692749,0.3263189792633056,0.0047603333368897,0.5325169563293457,0.2825582921504974,0.0054823770187795
2023-08-01 15:51:49.306877,4,276,0.8072900176048279,0.4674553871154785,-0.0591755621135234,0.3553398847579956,-0.1337890625,0.97802734375,0.1015625,0.4910806119441986,0.7180067300796509,2.246814574391465e-07,0.4320207238197326,0.64913010597229,-0.0061292890459299,0.4130202829837799,0.5359368920326233,-0.0008664315100759,0.4207604229450226,0.4498329162597656,0.0004982380196452,0.4166078269481659,0.3941392600536346,0.0024251034483313,0.4490655362606048,0.4256450533866882,0.0304489731788635,0.4443526566028595,0.3296577036380768,0.0219921059906482,0.4415703415870666,0.269781082868576,0.0077100410126149,0.4430470764636993,0.215232640504837,-0.0043623270466923,0.4813559651374817,0.412801057100296,0.0197051670402288,0.4756026566028595,0.3008948564529419,0.0139312716200947,0.4744216203689575,0.2303422540426254,-1.4446919522015378e-05,0.4754668772220611,0.1667350232601165,-0.011289338581264,0.5125356912612915,0.4212244153022766,0.0037858027499169,0.5144008994102478,0.3149443864822387,-0.00416174903512,0.5186978578567505,0.2528843879699707,-0.0136379273608326,0.5212882161140442,0.197878748178482,-0.0219811853021383,0.5441222190856934,0.4452454149723053,-0.0150350127369165,0.5479901432991028,0.3619217276573181,-0.0222104582935571,0.5517368912696838,0.3094544410705566,-0.0254733469337224,0.5533075332641602,0.2595395445823669,-0.0291601754724979
2023-08-01 15:51:49.366499,5,277,0.7978728413581848,0.4224989116191864,0.0856759548187255,0.4213706254959106,-0.27978515625,0.88134765625,0.21533203125,0.4959025681018829,0.7185872793197632,1.8450545269388385e-07,0.4392207860946655,0.646446704864502,0.0034431100357323,0.4250065982341766,0.5285183191299438,0.0117531763389706,0.4342532455921173,0.4452341794967651,0.01388088054955,0.4380496442317962,0.3908418416976928,0.0163752902299165,0.4649892449378967,0.4198258519172668,0.0393477082252502,0.4638914167881012,0.3204591870307922,0.0339690968394279,0.462893009185791,0.2584532499313354,0.022350613027811,0.4654343724250793,0.2033601403236389,0.0116602424532175,0.4919462502002716,0.4110758900642395,0.0232272967696189,0.4897713959217071,0.2979893088340759,0.0192467086017131,0.4895328879356384,0.2247411757707595,0.007707402575761,0.4906504452228546,0.159783273935318,-0.0021013496443629,0.5180536508560181,0.4213218092918396,0.0023932550102472,0.5226483941078186,0.3087264597415924,-0.0037020803429186,0.5275608897209167,0.2422884553670883,-0.0115562938153743,0.5311905741691589,0.1854169070720672,-0.0191428009420633,0.5430499911308289,0.4445634484291076,-0.0208192188292741,0.5483123660087585,0.3562530875205993,-0.027709923684597,0.5526120066642761,0.2983572483062744,-0.0313158817589283,0.5557764768600464,0.2459939420223236,-0.0354653038084507
2023-08-01 15:51:49.428963,6,278,0.7693536877632141,0.3728866279125213,0.2186225205659866,0.4703770577907562,-0.322265625,0.9541015625,0.03173828125,0.5101951360702515,0.7126894593238831,1.980149733071812e-07,0.4509741961956024,0.6296655535697937,0.0051905536092817,0.4430502653121948,0.5149333477020264,0.0116353379562497,0.454962819814682,0.4350502789020538,0.0111818248406052,0.4607658982276916,0.3837331533432007,0.010568618774414,0.4780645966529846,0.4124234616756439,0.0377443209290504,0.4786118566989898,0.3119239211082458,0.0311866980046033,0.4773621559143066,0.2500481605529785,0.0195117089897394,0.4778068661689758,0.1940998136997223,0.0087531134486198,0.5034620761871338,0.4047011435031891,0.0186569709330797,0.50511634349823,0.291703313589096,0.0128617072477936,0.5046462416648865,0.218152105808258,0.0004848777025472,0.504008948802948,0.1524072885513305,-0.0099933203309774,0.5262060165405273,0.416252851486206,-0.0048602479510009,0.5335457921028137,0.3025492429733276,-0.0119744632393121,0.5353996157646179,0.2344919294118881,-0.0202534906566143,0.5365943908691406,0.1754029393196106,-0.028377778828144,0.54567950963974,0.4418439567089081,-0.0305925887078046,0.5497666597366333,0.350772887468338,-0.0376775488257408,0.5527985095977783,0.2906775772571563,-0.0409590303897857,0.5555851459503174,0.2368320226669311,-0.0451697073876857
2023-08-01 15:51:49.488451,7,279,0.7393914461135864,0.3274615406990051,0.3130754232406616,0.4980491995811462,-0.38330078125,0.92626953125,-0.3251953125,0.5241870880126953,0.7098190784454346,2.5084960952881374e-07,0.4682402014732361,0.6205722689628601,0.0044426168315112,0.4668183028697967,0.5149944424629211,0.0043257512152194,0.4787849187850952,0.4416906833648681,-0.0014990422641858,0.4804935157299042,0.3802543878555298,-0.0075631565414369,0.511792004108429,0.4216738641262054,0.0191602855920791,0.5054933428764343,0.3105177283287048,0.0053126304410398,0.4993484616279602,0.2413262277841568,-0.0084818676114082,0.4967394769191742,0.181097537279129,-0.0190848503261804,0.5328373312950134,0.4216166138648987,-9.983190830098464e-05,0.5253482460975647,0.2973722219467163,-0.0141576128080487,0.5217998027801514,0.2164832651615142,-0.0283701103180646,0.5207549333572388,0.1475897133350372,-0.0391484275460243,0.5455888509750366,0.4375666379928589,-0.0225048437714576,0.5412596464157104,0.3157218694686889,-0.0359917841851711,0.5412169098854065,0.2394925504922866,-0.0452659204602241,0.5448416471481323,0.1770309805870056,-0.0529889911413192,0.5485016107559204,0.4637117385864258,-0.0462396889925003,0.5393214225769043,0.3729536831378937,-0.055474255234003,0.535590648651123,0.3157760500907898,-0.0581429153680801,0.5342669486999512,0.2689894437789917,-0.0614950992166996
2023-08-01 15:51:49.550962,8,280,0.7123351097106934,0.2824612855911255,0.3847896456718445,0.5145204067230225,-0.10107421875,0.83544921875,-0.18701171875,0.5418950915336609,0.6985843777656555,2.534494285555411e-07,0.4798322021961212,0.6077742576599121,0.0053282734006643,0.4839370548725128,0.5139256119728088,0.0009620624477975,0.4987338781356811,0.4418070912361145,-0.0077490014955401,0.5049900412559509,0.3847187757492065,-0.0171072110533714,0.5585311651229858,0.4276989102363586,0.0022556900512427,0.5385267734527588,0.3102155923843384,-0.0140735944733023,0.526701807975769,0.2346258908510208,-0.0273254178464412,0.5223885178565979,0.1704254150390625,-0.0367665067315101,0.5705702900886536,0.4262635409832001,-0.0145594673231244,0.5378344058990479,0.2910543978214264,-0.0330233126878738,0.5264813899993896,0.2027731537818908,-0.0450248941779136,0.5241603255271912,0.1315311789512634,-0.0537016801536083,0.5666038990020752,0.4390436708927154,-0.0327617824077606,0.5405020117759705,0.3063887357711792,-0.0502204895019531,0.5320740938186646,0.2212791591882705,-0.0589398890733718,0.5334049463272095,0.1546874940395355,-0.0653968080878257,0.5479822158813477,0.4567034542560577,-0.0512755960226058,0.5380081534385681,0.3594774007797241,-0.0641524940729141,0.5366938710212708,0.29425048828125,-0.0693993270397186,0.5397896766662598,0.2353482097387313,-0.0741417780518531
2023-08-01 15:51:49.627895,9,281,0.664966344833374,0.2107790410518646,0.4832804799079895,0.5289914608001709,-0.2099609375,0.89111328125,-0.05810546875,0.5708367824554443,0.6580774188041687,6.98541171573197e-08,0.6148322820663452,0.5651695728302002,0.0313826464116573,0.6252599358558655,0.4693158566951751,0.0389321893453598,0.6201857328414917,0.3896681070327759,0.0388989448547363,0.6023447513580322,0.3327625095844269,0.0346775092184543,0.6130497455596924,0.402700275182724,0.0070506175979971,0.5763126015663147,0.2899007797241211,-0.0040909810923039,0.5523777008056641,0.2398114651441574,-0.01217439211905,0.5376091003417969,0.203935295343399,-0.017967589199543,0.5844135880470276,0.4013724327087402,-0.0181265696883201,0.5541446805000305,0.2581364512443542,-0.0307521503418684,0.5418257117271423,0.1720644235610962,-0.039114911109209,0.5360585451126099,0.1021094620227813,-0.0464222878217697,0.5466357469558716,0.4130235016345978,-0.0403401143848896,0.5267504453659058,0.2752285599708557,-0.0533414743840694,0.5237070918083191,0.188843160867691,-0.0616316683590412,0.5264408588409424,0.1194714903831482,-0.0688038617372512,0.5035809874534607,0.4348821938037872,-0.0588220059871673,0.4961499869823456,0.3290279507637024,-0.0714551731944084,0.4973661601543426,0.2621382474899292,-0.0747445672750473,0.5030598044395447,0.2029817998409271,-0.0775823816657066
2023-08-01 15:51:49.694500,10,282,0.6379309296607971,0.1834851801395416,0.5270859003067017,0.5306201577186584,-0.10498046875,0.8564453125,-0.1875,0.5589736104011536,0.6584427952766418,2.11524522342188e-07,0.6143969893455505,0.5755643844604492,0.012681771069765,0.634470522403717,0.4751121997833252,0.0157876964658498,0.6279401779174805,0.3853716254234314,0.0165476519614458,0.6213392615318298,0.3181875348091125,0.0146053778007626,0.6013889908790588,0.3943901360034942,-0.0087256869301199,0.5738577246665955,0.2733598947525024,-0.0182728171348571,0.5573943853378296,0.2070520669221878,-0.0236533153802156,0.5449227094650269,0.1526065468788147,-0.028049087151885,0.5621440410614014,0.3961198925971985,-0.0233088862150907,0.5376429557800293,0.2565407752990722,-0.0366838462650775,0.5261866450309753,0.170491024851799,-0.0461561903357505,0.5201798677444458,0.1023283004760742,-0.053227886557579,0.5198761820793152,0.4146875739097595,-0.0355822592973709,0.5056185722351074,0.2821131348609924,-0.0499356463551521,0.5046502351760864,0.19807069003582,-0.0611300319433212,0.5068386197090149,0.1311131715774536,-0.0692430138587951,0.4765006601810455,0.4471728801727295,-0.045072853565216,0.4668432772159576,0.3414113521575928,-0.0609389878809452,0.4650865197181701,0.2801146805286407,-0.0676250681281089,0.4658862054347992,0.2251121550798416,-0.0713676214218139
2023-08-01 15:51:49.756511,11,283,0.6223103404045105,0.1783086210489273,0.547852098941803,0.5298999547958374,-0.162109375,0.876953125,-0.42041015625,0.5566527247428894,0.661270022392273,2.765741839994007e-07,0.6185605525970459,0.5845960974693298,0.0114714736118912,0.6386750936508179,0.4821345806121826,0.0151224173605442,0.6286889314651489,0.3877602815628052,0.0177875012159347,0.6254936456680298,0.3177224993705749,0.0181402675807476,0.5990961790084839,0.3963455557823181,-0.013261835090816,0.5736638307571411,0.2691592574119568,-0.0223766397684812,0.5605574250221252,0.2003907114267349,-0.0251838490366935,0.550804078578949,0.1470175683498382,-0.0268018562346696,0.5533829927444458,0.39964759349823,-0.0257733613252639,0.532924234867096,0.2532278299331665,-0.0401956140995025,0.5227360129356384,0.1632555425167083,-0.047747902572155,0.5165953636169434,0.094981700181961,-0.0520093962550163,0.5101931691169739,0.4200206995010376,-0.0354417264461517,0.4973002076148987,0.2832587361335754,-0.0496460758149623,0.4945308566093445,0.1962330341339111,-0.0587731078267097,0.494994044303894,0.1294062733650207,-0.0640933439135551,0.4692988991737366,0.4567855596542358,-0.0422461554408073,0.45859095454216,0.3461632132530212,-0.0561816841363906,0.4564831852912903,0.2831779718399048,-0.0605500116944313,0.4569555819034576,0.2293993234634399,-0.0616859011352062
2023-08-01 15:51:49.818005,12,284,0.6132816076278687,0.1752702593803405,0.5608352422714233,0.5278539657592773,-0.2099609375,0.91552734375,-0.42822265625,0.5525893568992615,0.666632890701294,2.8050152423020336e-07,0.6196426153182983,0.5897283554077148,0.0147268073633313,0.6416555047035217,0.4891280233860016,0.0208116136491298,0.6332908868789673,0.3919424414634704,0.0256608165800571,0.6297914981842041,0.3209995031356811,0.0289105046540498,0.6008707284927368,0.4003590643405914,-0.0056652138009667,0.5758394598960876,0.2714728415012359,-0.0117492647841572,0.5603429675102234,0.2036226689815521,-0.012250536121428,0.5477138757705688,0.1534972488880157,-0.0119338650256395,0.5518808960914612,0.3994942307472229,-0.0177278835326433,0.5326098799705505,0.2513796091079712,-0.0296822525560855,0.52046799659729,0.1632986962795257,-0.034638337790966,0.5126487612724304,0.097845584154129,-0.0364620573818683,0.505956768989563,0.4169802963733673,-0.0268127508461475,0.4931453168392181,0.2776936590671539,-0.0375627800822258,0.4882731437683105,0.1942875385284423,-0.042588148266077,0.4863076210021972,0.1311297416687011,-0.044805072247982,0.4635135233402252,0.4530017971992492,-0.0330223254859447,0.4532960653305053,0.3423580825328827,-0.0419294126331806,0.4505068063735962,0.2795066237449646,-0.0421839877963066,0.4507724642753601,0.2255682647228241,-0.0402115024626255
2023-08-01 15:51:49.878813,13,285,0.6120787262916565,0.1716746538877487,0.5660059452056885,0.5249043703079224,-0.31201171875,0.90283203125,-0.28173828125,0.5469111204147339,0.6730258464813232,3.204818028734735e-07,0.61788409948349,0.5984967350959778,0.0093104736879467,0.6435946822166443,0.4964508414268493,0.0127393063157796,0.6359022259712219,0.3974485993385315,0.0157731026411056,0.6349893808364868,0.3240211009979248,0.0174357797950506,0.5993651151657104,0.4051856994628906,-0.0103877149522304,0.5772979259490967,0.272014319896698,-0.0190440788865089,0.5628705620765686,0.2013186961412429,-0.0214969702064991,0.5508002638816833,0.1481127440929412,-0.022399578243494,0.5486912727355957,0.4056739211082458,-0.0206035859882831,0.5327092409133911,0.254645824432373,-0.0337561033666133,0.5220033526420593,0.1639688313007354,-0.0397868044674396,0.5151225924491882,0.0954689681529998,-0.0425001494586467,0.5028295516967773,0.4239265322685241,-0.0284081008285284,0.4924445748329162,0.2826141119003296,-0.0401855073869228,0.4882714450359344,0.1961354613304138,-0.0460692420601844,0.4871107339859009,0.1302071213722229,-0.0488841235637664,0.4619684219360351,0.4591566920280456,-0.033919483423233,0.4543692171573639,0.3476905226707458,-0.0437562614679336,0.4536938369274139,0.2832462787628174,-0.0447309724986553,0.4564631283283233,0.2283110171556472,-0.0432548001408577
2023-08-01 15:51:49.946401,14,286,0.6164394617080688,0.1724748164415359,0.5652167201042175,0.5203699469566345,-0.3505859375,0.9345703125,-0.34375,0.5461013913154602,0.6796035170555115,2.9894394515395106e-07,0.620182454586029,0.6058101654052734,0.017231011763215,0.6450698971748352,0.5045189261436462,0.0248048808425664,0.6396583318710327,0.4035864472389221,0.030973071232438,0.6425560712814331,0.3320031762123108,0.0356254540383815,0.6023287773132324,0.4102773368358612,-0.0020149282645434,0.5822038650512695,0.2744830846786499,-0.005488752387464,0.5682294368743896,0.204344093799591,-0.0042384630069136,0.5556718111038208,0.151808887720108,-0.0026667583733797,0.5509235262870789,0.4087500274181366,-0.0136005338281393,0.5378273725509644,0.2558551430702209,-0.023192835971713,0.5279046297073364,0.1671465933322906,-0.0261586308479309,0.5208560228347778,0.1018581092357635,-0.0263153370469808,0.503985583782196,0.4267938733100891,-0.0218939632177352,0.4952938854694366,0.2855015993118286,-0.0297418292611837,0.4926339983940124,0.2000305503606796,-0.0327441357076168,0.4916656911373138,0.1372658312320709,-0.0334968008100986,0.4620580673217773,0.4625531136989593,-0.0271810498088598,0.4556171298027038,0.3479324877262115,-0.0318990908563137,0.4555387496948242,0.2840094566345215,-0.0293485485017299,0.458251416683197,0.2314983457326889,-0.0255144629627466
2023-08-01 15:51:50.007886,15,287,0.620220959186554,0.1776708662509918,0.5601479411125183,0.5196088552474976,-0.2275390625,0.88525390625,-0.41064453125,0.5274779796600342,0.7055470943450928,2.862580004148185e-07,0.6089320778846741,0.6321476697921753,0.0072849867865443,0.6411706805229187,0.52723228931427,0.0101018147543072,0.6353049874305725,0.427243024110794,0.0138366250321269,0.6329376101493835,0.3548799455165863,0.016457287594676,0.5934522151947021,0.4368355572223663,-0.0193708185106515,0.5741903781890869,0.2997964322566986,-0.0281078480184078,0.5596580505371094,0.2267093956470489,-0.0299823004752397,0.5470613837242126,0.1704953014850616,-0.0306376535445451,0.5350216031074524,0.4339775443077087,-0.0278062280267477,0.5231743454933167,0.2777298092842102,-0.0423633717000484,0.5145068168640137,0.185930848121643,-0.0468048751354217,0.5086749196052551,0.1177482604980468,-0.0479905717074871,0.4845032095909118,0.4494466781616211,-0.0333275273442268,0.4794308543205261,0.3015614748001098,-0.0444220937788486,0.4790796637535095,0.2145096361637115,-0.0490399524569511,0.4797044098377228,0.1491182744503021,-0.0511776842176914,0.4413574635982513,0.4831941425800323,-0.0365862697362899,0.4395980536937713,0.3661593198776245,-0.0448051169514656,0.4419375360012054,0.3001800775527954,-0.0449050739407539,0.4459719359874725,0.2464562207460403,-0.0430767945945262
2023-08-01 15:51:50.065163,16,288,0.6252765655517578,0.1845902502536773,0.5507140755653381,0.5212193727493286,-0.28076171875,0.888671875,-0.3388671875,0.5280454158782959,0.7076320648193359,3.427789749821386e-07,0.6069613695144653,0.63470059633255,0.0106685599312186,0.6377779245376587,0.532025933265686,0.015139183960855,0.6310546398162842,0.4278300106525421,0.0194459054619073,0.6285458207130432,0.3547908067703247,0.0222132336348295,0.5865991711616516,0.4346728026866913,-0.0088593047112226,0.5685977339744568,0.3001208901405334,-0.0135037768632173,0.5557464361190796,0.2315277904272079,-0.0140279717743396,0.5442438125610352,0.1782889068126678,-0.0141566460952162,0.5296701192855835,0.4320774674415588,-0.0182695034891366,0.5164889097213745,0.2766117453575134,-0.0284622088074684,0.5085304975509644,0.1859676837921142,-0.0323133952915668,0.5037965774536133,0.1192609071731567,-0.0336405932903289,0.4794168174266815,0.4503132104873657,-0.0248695164918899,0.4724718034267425,0.3041456937789917,-0.033976674079895,0.4727353453636169,0.2166996449232101,-0.038522396236658,0.4736189544200897,0.1508444845676422,-0.0409020259976387,0.4362618327140808,0.4871602654457092,-0.0288414061069488,0.4333562552928924,0.3701074719429016,-0.0360385663807392,0.4350746870040893,0.3063061237335205,-0.0350090004503726,0.4387156069278717,0.2525681257247925,-0.0324665419757366
2023-08-01 15:51:50.136512,17,289,0.6345565915107727,0.1952395886182785,0.5350936651229858,0.522392749786377,-0.34814453125,0.90625,-0.32763671875,0.5305770635604858,0.7078256607055664,3.652251905350568e-07,0.6088194847106934,0.6330108046531677,0.0077119087800383,0.6407907009124756,0.5305154919624329,0.0108472686260938,0.6362611055374146,0.4301259219646454,0.0139317931607365,0.6299557685852051,0.3549492955207824,0.0160185266286134,0.5897126793861389,0.4317673444747925,-0.0111987572163343,0.569165050983429,0.2937125563621521,-0.0195954255759716,0.5550850033760071,0.2215126156806945,-0.0219735000282526,0.5425591468811035,0.1670385003089904,-0.0226897504180669,0.5351842045783997,0.4312735795974731,-0.0203722175210714,0.5210212469100952,0.2740542292594909,-0.033352144062519,0.512202262878418,0.1813392639160156,-0.0381998792290687,0.5059452652931213,0.1133138537406921,-0.0396036952733993,0.4862368404865265,0.4507429599761963,-0.0273983590304851,0.4763960242271423,0.3036820292472839,-0.0385841056704521,0.4742469489574432,0.2160309553146362,-0.0431149415671825,0.4739364385604858,0.1498385667800903,-0.0446735061705112,0.4437029957771301,0.4886462390422821,-0.0323752798140049,0.4385426640510559,0.3732169866561889,-0.040714755654335,0.4390285313129425,0.3080706596374511,-0.0400492586195468,0.442442387342453,0.2541176378726959,-0.0372559316456317
2023-08-01 15:51:50.191441,18,290,0.6662523150444031,0.233007937669754,0.480742871761322,0.5202896595001221,-0.48828125,0.89794921875,-0.39794921875,0.5341622829437256,0.7074716091156006,3.3693959267111495e-07,0.6110817790031433,0.6319671273231506,0.0082338601350784,0.6422783136367798,0.5272108316421509,0.0121924998238682,0.6351209878921509,0.4259812831878662,0.01588686555624,0.6299389600753784,0.351148396730423,0.0182366929948329,0.5923160314559937,0.430744469165802,-0.0100112780928611,0.573167085647583,0.2958905696868896,-0.0181035809218883,0.5594249367713928,0.2249432802200317,-0.0206181593239307,0.5470457077026367,0.1701751053333282,-0.0218130312860012,0.5377097725868225,0.4292883574962616,-0.0201962869614362,0.5249819159507751,0.2734724879264831,-0.0331098027527332,0.5160918831825256,0.1798611283302307,-0.0388699024915695,0.5097081065177917,0.1092137396335601,-0.0413232259452343,0.4888382852077484,0.4484222829341888,-0.0282289907336235,0.4811812341213226,0.3018960356712341,-0.040157463401556,0.4794809520244598,0.2134377062320709,-0.0459815822541713,0.4793736338615417,0.1448907256126403,-0.0487706698477268,0.4455025196075439,0.4865321218967438,-0.0340663269162178,0.4402445554733276,0.3715237975120544,-0.0441216863691806,0.4418176114559173,0.3058257699012756,-0.044736374169588,0.4462164640426636,0.249668464064598,-0.0430471897125244
2023-08-01 15:51:50.255889,19,291,0.6912920475006104,0.2660405337810516,0.42792609333992,0.5178967714309692,-0.4130859375,0.90625,-0.25634765625,0.5352885127067566,0.7045539617538452,3.2287439921674377e-07,0.6104148030281067,0.6270396113395691,0.0131486998870968,0.6406849026679993,0.5251925587654114,0.0186470113694667,0.6358104944229126,0.4249860346317291,0.0231048762798309,0.6312859654426575,0.3510385751724243,0.0258300136774778,0.5939966440200806,0.4285289943218231,-0.0068176658824086,0.57416170835495,0.2943161129951477,-0.0140664065256714,0.5604896545410156,0.2228454500436782,-0.0162456110119819,0.5482191443443298,0.1670053899288177,-0.0172850508242845,0.5415875315666199,0.4268325567245483,-0.0189693961292505,0.5274162888526917,0.2710976600646972,-0.0320449620485305,0.5182939171791077,0.1780500710010528,-0.0382383465766906,0.5120311379432678,0.1077490746974945,-0.0409460887312889,0.4932048320770263,0.4455285966396332,-0.0283078830689191,0.4838854372501373,0.3003495335578918,-0.0399180240929126,0.4816189408302307,0.2120290100574493,-0.045624054968357,0.4812130928039551,0.1440309584140777,-0.0482688099145889,0.4491484761238098,0.4835872948169708,-0.0349730737507343,0.4437119960784912,0.3666249513626098,-0.0439796820282936,0.44509357213974,0.3018136620521545,-0.0436592064797878,0.4491179287433624,0.2468648999929428,-0.0413195453584194
2023-08-01 15:51:50.325095,20,292,0.7251392602920532,0.3170571029186249,0.3432883620262146,0.5057676434516907,-0.3486328125,0.89453125,-0.1806640625,0.5381507277488708,0.7045707106590271,3.0328439493132464e-07,0.6103451251983643,0.6263239979743958,0.0099316071718931,0.6392875909805298,0.5217533707618713,0.0138122858479619,0.6335052847862244,0.4207488298416137,0.0168540496379137,0.6295233964920044,0.3470882773399353,0.0181905422359704,0.5970487594604492,0.4262309670448303,-0.0089277382940053,0.5757701992988586,0.2941758036613464,-0.0179933793842792,0.562163233757019,0.2230306416749954,-0.0218441002070903,0.5508629083633423,0.1681563556194305,-0.0239114724099636,0.5460845828056335,0.4247670769691467,-0.0205714423209428,0.5294936299324036,0.2705637216567993,-0.0343286171555519,0.5198689699172974,0.1770530641078949,-0.0414465740323066,0.5137031674385071,0.1062565445899963,-0.0449300929903984,0.498044341802597,0.4430556893348694,-0.029899388551712,0.4880402684211731,0.2980883717536926,-0.042850412428379,0.4854516386985779,0.2095593214035034,-0.0496260039508342,0.4850269854068756,0.1411389708518982,-0.0529733635485172,0.4531907439231872,0.4808174967765808,-0.0368617959320545,0.4472762644290924,0.3642867505550384,-0.0480624362826347,0.4476984441280365,0.2996531128883362,-0.0490289963781833,0.4505955576896667,0.2445450127124786,-0.0474070981144905
2023-08-01 15:51:50.381286,21,293,0.755836546421051,0.3696483671665191,0.2471542507410049,0.48061004281044,-0.07177734375,1.0087890625,-0.04638671875,0.5401249527931213,0.6998404860496521,2.5446448148613854e-07,0.6097192168235779,0.6206693053245544,0.0165675710886716,0.635945200920105,0.5182843208312988,0.0241756495088338,0.6318417191505432,0.4208419919013977,0.0295575391501188,0.6267163753509521,0.3482391834259033,0.0323842763900756,0.5977044105529785,0.4230265021324157,-0.0023759177420288,0.5758509039878845,0.2930957674980163,-0.0101560177281498,0.5629082322120667,0.2230206876993179,-0.0130618214607238,0.5530765056610107,0.1686316430568695,-0.0145204300060868,0.5504608750343323,0.4218367338180542,-0.0169271733611822,0.532640814781189,0.269182801246643,-0.0298895463347435,0.5223310589790344,0.1769532561302185,-0.0366390608251094,0.5163163542747498,0.1065899133682251,-0.0398857779800891,0.5041351914405823,0.4402652680873871,-0.0288477223366498,0.4929388165473938,0.2972612082958221,-0.0416062474250793,0.4893724024295807,0.2093303799629211,-0.0481252186000347,0.4893065094947815,0.1401943266391754,-0.051210694015026,0.4586946964263916,0.4777338206768036,-0.0378675386309623,0.451576828956604,0.3623804748058319,-0.0494945086538791,0.4527340531349182,0.2976150214672088,-0.0506750121712684,0.4571559131145477,0.2409879565238952,-0.0492167547345161
2023-08-01 15:51:50.439185,22,294,0.7716331481933594,0.3982159793376922,0.1764658838510513,0.4635365605354309,-0.53955078125,1.02490234375,-0.14404296875,0.5457817316055298,0.6789141297340393,8.952429197961467e-08,0.5961924195289612,0.5810273885726929,0.0308758188039064,0.6145813465118408,0.4834384620189667,0.0389567166566848,0.6082808375358582,0.3989408016204834,0.0398783609271049,0.5893438458442688,0.3404682874679565,0.0368546172976493,0.6050653457641602,0.4189904928207397,0.0100031327456235,0.56880122423172,0.2983191907405853,0.0018284544348716,0.5417665243148804,0.2367310971021652,-0.0031635975465178,0.5216965675354004,0.1899312436580658,-0.0067762034013867,0.5706431865692139,0.4156269431114197,-0.014394300058484,0.5442323684692383,0.266515165567398,-0.0226275101304054,0.5330062508583069,0.1811924278736114,-0.0259403940290212,0.5283519625663757,0.1164910793304443,-0.0291065406054258,0.5290488004684448,0.4272649884223938,-0.036390196532011,0.5143020749092102,0.2811808586120605,-0.0440382175147533,0.5111660361289978,0.1978896558284759,-0.0470466800034046,0.5143500566482544,0.1346885561943054,-0.050764113664627,0.4830456376075744,0.4503878057003021,-0.0552620403468608,0.4779485762119293,0.3380928039550781,-0.063758336007595,0.4792811274528503,0.2734196782112121,-0.0637266859412193,0.4831894636154175,0.2159083038568496,-0.0637627691030502
2023-08-01 15:51:50.500343,23,295,0.7897851467132568,0.445614218711853,0.0546450912952423,0.4179489910602569,0.4853515625,0.85546875,0.0771484375,0.5529071092605591,0.6722575426101685,3.693480721267407e-08,0.5910615921020508,0.5699326395988464,0.0323234125971794,0.5997685194015503,0.478084921836853,0.0382825285196304,0.5804011821746826,0.4050920307636261,0.0349332727491855,0.5479512810707092,0.3623180389404297,0.0267084036022424,0.608711302280426,0.4196178317070007,0.0152002377435565,0.5652334690093994,0.3084624409675598,0.0018327562138438,0.5302850008010864,0.2639252543449402,-0.010087982751429,0.5058744549751282,0.233045145869255,-0.0182362124323844,0.5783214569091797,0.4115222692489624,-0.0131091941148042,0.5529175996780396,0.2692845463752746,-0.0226776730269193,0.5400301814079285,0.1843945831060409,-0.0293513145297765,0.5322534441947937,0.1150269210338592,-0.0357042402029037,0.5378872156143188,0.4212792515754699,-0.0398517809808254,0.5263843536376953,0.2791036963462829,-0.0488830506801605,0.5215169787406921,0.1990945935249328,-0.0536979250609874,0.5226849913597107,0.1337708234786987,-0.058855727314949,0.4904871582984924,0.4438463747501373,-0.0636671259999275,0.4863509833812713,0.3364759087562561,-0.0719300955533981,0.4878534078598022,0.2730584740638733,-0.07093296200037,0.4916864037513733,0.2153294831514358,-0.0709804445505142
2023-08-01 15:51:50.562681,24,296,0.7940053343772888,0.4875230193138122,-0.0821655467152595,0.353731095790863,0.48583984375,0.888671875,0.1396484375,0.5451160669326782,0.6673827767372131,-1.9775525217369253e-08,0.5832725763320923,0.5776512026786804,0.0323569998145103,0.5973612666130066,0.4927071630954742,0.0435395613312721,0.5950450897216797,0.4299527108669281,0.0465321652591228,0.5807908177375793,0.3870443105697632,0.045663196593523,0.5964458584785461,0.4136787354946136,0.0204729996621608,0.5643318295478821,0.3107932209968567,0.0120678665116429,0.539518415927887,0.2511274814605713,0.0046212621964514,0.5213980078697205,0.2022152841091156,-0.0017303435597568,0.5785698890686035,0.4083760976791382,-0.0062485057860612,0.5551983118057251,0.2735379338264465,-0.0169829241931438,0.5433365702629089,0.1889061033725738,-0.0242890696972608,0.5355786681175232,0.116822212934494,-0.0304799433797597,0.5468844175338745,0.4162625074386596,-0.0313157886266708,0.5335701107978821,0.2826373875141144,-0.0431381985545158,0.5289064049720764,0.201238751411438,-0.0511821992695331,0.5291109681129456,0.1333171427249908,-0.0575937256217002,0.5054184198379517,0.4328140616416931,-0.0533252693712711,0.5007073283195496,0.3281965851783752,-0.066957451403141,0.5025768280029297,0.2636326551437378,-0.0721167027950286,0.5069116950035095,0.2067935615777969,-0.0758882835507392
2023-08-01 15:51:50.629943,25,297,0.7897001504898071,0.5031696557998657,-0.1595069617033004,0.3126522302627563,-0.27734375,0.93994140625,0.19384765625,0.5299548506736755,0.6807022094726562,6.65737971417002e-08,0.4828909635543823,0.5854188799858093,0.0194547530263662,0.4976103007793426,0.4901131987571716,0.0223031397908926,0.5164031386375427,0.4247222542762756,0.018379895016551,0.5339964032173157,0.3742977082729339,0.013581158593297,0.5661911368370056,0.4174808263778686,0.0178280491381883,0.5462683439254761,0.3041542470455169,0.0064874133095145,0.5336660742759705,0.2290302217006683,-0.0046182563528418,0.5288156867027283,0.1646696925163269,-0.0139746898785233,0.574475884437561,0.4188826382160187,-0.0051724822260439,0.5433831214904785,0.2861506938934326,-0.0189485345035791,0.525800883769989,0.2015924751758575,-0.0309538226574659,0.5208823680877686,0.1326022148132324,-0.0412873513996601,0.5636522769927979,0.4271540641784668,-0.0287281852215528,0.5490309000015259,0.2899070382118225,-0.0419850125908851,0.542159378528595,0.20219686627388,-0.0512910261750221,0.5449512004852295,0.1315873265266418,-0.0596371740102767,0.5357713103294373,0.433754414319992,-0.0513600446283817,0.5363801121711731,0.3306528925895691,-0.0620294138789176,0.5401128530502319,0.2682560384273529,-0.0673708468675613,0.5486750602722168,0.2131070047616958,-0.0730312466621398
2023-08-01 15:51:50.695497,26,298,0.7817999720573425,0.511500895023346,-0.2303009629249572,0.2722446322441101,-0.31884765625,0.919921875,0.25146484375,0.511788010597229,0.6802849173545837,1.8621977915245225e-07,0.4641357064247131,0.5904970169067383,0.0061010275967419,0.4716696143150329,0.4923538863658905,0.0091773588210344,0.4905895292758941,0.4256976246833801,0.0070213968865573,0.4967277944087982,0.3651288151741028,0.0045994403772056,0.5116071105003357,0.3981169164180755,0.020625976845622,0.512115478515625,0.2945869863033294,0.0081336153671145,0.5101186037063599,0.2243955135345459,-0.0045060524716973,0.5122907757759094,0.1650053858757019,-0.0144768869504332,0.5316595435142517,0.3997064530849457,0.0026298947632312,0.532036542892456,0.2848338484764099,-0.0120940720662474,0.5361543297767639,0.2055920958518982,-0.025807075202465,0.5439890623092651,0.1389988362789154,-0.0350603051483631,0.5452863574028015,0.4180023372173309,-0.0180924348533153,0.5499120950698853,0.3092603385448456,-0.0341548472642898,0.5581451654434204,0.2393262684345245,-0.0432687997817993,0.5682371258735657,0.180007666349411,-0.0490133836865425,0.552512526512146,0.4480728507041931,-0.0395787134766578,0.5542070865631104,0.3641623258590698,-0.0518346726894378,0.5566921830177307,0.3079670369625091,-0.0550890080630779,0.5610807538032532,0.2598040699958801,-0.057201225310564
2023-08-01 15:51:50.760221,27,299,0.7651476263999939,0.519569456577301,-0.3108327984809875,0.2190425843000412,0.03125,0.93603515625,0.314453125,0.5100761651992798,0.669937014579773,1.5069863934513705e-07,0.4601542353630066,0.5917103290557861,0.0102906161919236,0.4615444839000702,0.4914081692695617,0.018319871276617,0.4785568118095398,0.4208759069442749,0.0199206005781888,0.482500672340393,0.3611099421977997,0.0215618498623371,0.4942531883716583,0.3894824683666229,0.0357066430151462,0.4962280988693237,0.290166825056076,0.0305303856730461,0.4940756261348724,0.2290713191032409,0.020981291308999,0.4938251376152038,0.1743365824222564,0.0122240278869867,0.5157641172409058,0.3817567229270935,0.016929080709815,0.5186570882797241,0.2690960466861725,0.0100326314568519,0.5203188061714172,0.1951955258846283,-0.0006139805191196,0.522027850151062,0.1330721080303192,-0.0087939836084842,0.5336395502090454,0.3919172286987304,-0.0050279144197702,0.5445700287818909,0.2793808877468109,-0.0135124046355485,0.5524584054946899,0.2111104726791381,-0.0205950252711772,0.5587589740753174,0.1543724238872528,-0.0265744663774967,0.5495776534080505,0.4163341224193573,-0.0280290953814983,0.5583699345588684,0.328485369682312,-0.0342567861080169,0.5659214854240417,0.2728486657142639,-0.0356793403625488,0.5720410943031311,0.2254529297351837,-0.0379231199622154
2023-08-01 15:51:50.815098,28,300,0.7561606764793396,0.5187767744064331,-0.349528044462204,0.1921499371528625,0.13330078125,0.89501953125,0.4287109375,0.4864906966686249,0.6796078681945801,1.7550350150941085e-07,0.4300834238529205,0.6153354644775391,-0.0060792262665927,0.4132466614246368,0.5061242580413818,-0.0013091006549075,0.4245050549507141,0.424302190542221,-0.0003539439640007,0.426779568195343,0.3661203980445862,0.0014401805819943,0.4588811993598938,0.3979359269142151,0.0284375920891761,0.4584514200687408,0.3038203418254852,0.0216676145792007,0.459499329328537,0.2471655905246734,0.0083742225542664,0.4633694887161255,0.1944932788610458,-0.003289686050266,0.4890444278717041,0.3874928951263428,0.0182035788893699,0.4884580969810486,0.280703067779541,0.0138731533661484,0.4895246922969818,0.2116867899894714,0.0021743518300354,0.4922738075256347,0.1518662571907043,-0.0079264510422945,0.5174643993377686,0.3970810174942016,0.0028846382629126,0.5247976183891296,0.2929147481918335,-0.0028797443956136,0.5295600295066833,0.2325741499662399,-0.0101582175120711,0.5330209136009216,0.1809449940919876,-0.017431465908885,0.5457322001457214,0.4210442006587982,-0.0154382716864347,0.5542250871658325,0.3401557803153991,-0.0209228713065385,0.5603137016296387,0.287329226732254,-0.0231833029538393,0.5656381249427795,0.2384139597415924,-0.0263078901916742
2023-08-01 15:51:50.875219,29,301,0.7518861293792725,0.5150521993637085,-0.3710494041442871,0.1780749559402465,0.05908203125,0.91650390625,0.390625,0.4884597361087799,0.6866891980171204,1.605740180821158e-07,0.427051693201065,0.6242417097091675,-0.0052191577851772,0.4062716662883758,0.5127657651901245,0.0037505002692341,0.4145824313163757,0.4275117814540863,0.0087641328573226,0.4131400287151336,0.3673461079597473,0.0149958282709121,0.4493659138679504,0.4052613973617553,0.0393529571592807,0.4462743401527405,0.3155019283294678,0.0370780788362026,0.4471605122089386,0.2617311477661133,0.0255064442753791,0.4502212405204773,0.2103973478078842,0.01448261924088,0.4831495881080627,0.3927899003028869,0.0300692953169345,0.4814977645874023,0.2883696556091308,0.0301960315555334,0.4825567901134491,0.2220866531133651,0.0188887473195791,0.4841716587543487,0.1621621251106262,0.0087195076048374,0.5133657455444336,0.402126282453537,0.015158575028181,0.5165086388587952,0.3042801022529602,0.0120801366865634,0.52113938331604,0.2457935661077499,0.0040669366717338,0.5247138738632202,0.1943905800580978,-0.003920407500118,0.5439712405204773,0.4249925017356872,-0.002820644993335,0.5475163459777832,0.3462090194225311,-0.0060814437456429,0.5520671606063843,0.2984645366668701,-0.0076875207014381,0.5572892427444458,0.2525633573532104,-0.0106678269803524
2023-08-01 15:51:50.941224,30,302,0.7492877840995789,0.513221025466919,-0.3807657361030578,0.1737511903047561,0.1064453125,0.95263671875,0.400390625,0.4854113459587097,0.69306480884552,1.6399775404352113e-07,0.4208500385284424,0.6296873092651367,-0.0057738199830055,0.3990148901939392,0.5177494883537292,0.0043374230153858,0.4081309139728546,0.4305919408798218,0.0109712649136781,0.4041914939880371,0.3730795681476593,0.0190577991306781,0.4412604570388794,0.4111391305923462,0.0411866530776023,0.4371680915355682,0.3230284452438354,0.0386151298880577,0.4377767443656921,0.2687326669692993,0.026328295469284,0.4398296475410461,0.2172536551952362,0.015018917620182,0.4776751697063446,0.3983732163906097,0.032812625169754,0.4756722152233124,0.2945575714111328,0.0335441529750824,0.4755561053752899,0.2288190275430679,0.0226989276707172,0.474723219871521,0.1688429117202758,0.0129716293886303,0.5097156763076782,0.4073202311992645,0.0185967795550823,0.5114839673042297,0.309920072555542,0.0163552910089492,0.5138226747512817,0.2523799240589142,0.0103950016200542,0.5152888894081116,0.2017043828964233,0.0039426935836672,0.5435003638267517,0.4308979213237762,0.0010783115867525,0.5456287860870361,0.3523558378219604,-0.0006671961746178,0.548247754573822,0.3053978085517883,-0.0001600727555342,0.550918459892273,0.2603573501110077,-0.0015447265468537
2023-08-01 15:51:50.996875,31,303,0.7475308179855347,0.511885941028595,-0.3876881301403045,0.1699064224958419,0.19482421875,0.90869140625,0.4658203125,0.4829679429531097,0.6972955465316772,1.6347698306162786e-07,0.4164509773254394,0.6356555819511414,-0.0073132384568452,0.392251968383789,0.525513768196106,0.0023126043379306,0.4012707471847534,0.436862975358963,0.0089488876983523,0.3942936062812805,0.3799831867218017,0.017019759863615,0.4346371293067932,0.4156809449195862,0.0392208620905876,0.4298483729362488,0.3284502029418945,0.0358014777302742,0.4304984807968139,0.2741436958312988,0.0228320397436618,0.4322566986083984,0.2228924185037613,0.0111307119950652,0.4731074273586273,0.4024078547954559,0.0314608886837959,0.471201479434967,0.2992752194404602,0.0318829417228698,0.4708252847194671,0.2341156899929046,0.0208278782665729,0.4693025350570678,0.1742300987243652,0.010840936563909,0.506077229976654,0.4111543297767639,0.0177794937044382,0.5083280205726624,0.3156246542930603,0.0150347696617245,0.5101185441017151,0.2596799731254577,0.0092313196510076,0.5107061266899109,0.2098479568958282,0.0029452973976731,0.5410981178283691,0.4356586933135986,0.000672991562169,0.5428668856620789,0.3585810363292694,-0.0017564222216606,0.5443242192268372,0.3124026656150818,-0.0012966966023668,0.545316755771637,0.2677092552185058,-0.0025800496805459
2023-08-01 15:51:51.058808,32,304,0.7484537959098816,0.5100206136703491,-0.3901275098323822,0.1658201813697815,0.08203125,0.87060546875,0.4775390625,0.4817076027393341,0.7013248801231384,1.7525186990496877e-07,0.4117283225059509,0.6410905718803406,-0.009127389639616,0.3818819522857666,0.5360701084136963,-0.0001568119914736,0.3869151473045349,0.4476010203361511,0.0063740764744579,0.3800694048404693,0.3903107047080993,0.0148876849561929,0.4236733317375183,0.427171528339386,0.0390168838202953,0.4162030816078186,0.3396276533603668,0.0357538312673568,0.4166731536388397,0.2875025868415832,0.0232391320168972,0.4189868569374084,0.2390845566987991,0.0126333907246589,0.4621496498584747,0.4137724637985229,0.0337557010352611,0.4587086737155914,0.3099503517150879,0.0362087376415729,0.4574712812900543,0.2474488466978073,0.0270340014249086,0.4561875164508819,0.1927837431430816,0.0185715798288583,0.4959249496459961,0.4212601482868194,0.0223292093724012,0.4970275163650512,0.327528715133667,0.0224410407245159,0.4973829090595245,0.2735335230827331,0.0183996092528104,0.4975945353507995,0.2282757461071014,0.0133177377283573,0.5327973961830139,0.4437493085861206,0.0072671165689826,0.5342335104942322,0.369877278804779,0.0082999942824244,0.5342891216278076,0.3262094259262085,0.0107777621597051,0.5345785617828369,0.285805344581604,0.0109841478988528
2023-08-01 15:51:51.127909,33,305,0.7494914531707764,0.5084526538848877,-0.3910861611366272,0.1636767238378524,0.0869140625,0.87890625,0.4775390625,0.4849794805049896,0.7042707204818726,1.9919266946999414e-07,0.4154520034790039,0.6494879722595215,-0.0115662869065999,0.3858079314231872,0.5402935147285461,-0.0036999098956584,0.3923292756080627,0.4488669335842132,0.0021175374276936,0.3819119930267334,0.3915190994739532,0.0096294255927205,0.4244740009307861,0.4321932792663574,0.033975314348936,0.4177607893943786,0.3443760275840759,0.0285446681082248,0.418177843093872,0.2884074449539184,0.0146055910736322,0.4200669825077057,0.235443115234375,0.0024672725703567,0.4631374776363373,0.4174158573150635,0.028526509180665,0.4571069180965423,0.3155153393745422,0.0274326018989086,0.4547431766986847,0.2515076398849487,0.0160624552518129,0.4517065584659576,0.1920096278190612,0.0060036242939531,0.496924489736557,0.4241226613521576,0.0169391054660081,0.496250569820404,0.3283441066741943,0.0128415552899241,0.4956477284431457,0.2735966742038727,0.007339418400079,0.493665486574173,0.2250280380249023,0.001584933605045,0.5339490175247192,0.4454921782016754,0.0016587926074862,0.5342419147491455,0.3698067665100097,-0.0014829440042376,0.533844530582428,0.3246580064296722,-0.0009550004033371,0.5321123600006104,0.2805680632591247,-0.0019926410168409
2023-08-01 15:51:51.186049,34,306,0.7502775192260742,0.5084406137466431,-0.3892824649810791,0.1644111424684524,0.07373046875,0.90966796875,0.34375,0.4877910614013672,0.7047702074050903,2.202609010737433e-07,0.4187465310096741,0.6508606672286987,-0.0120416618883609,0.3881962299346924,0.5404468774795532,-0.0036813269834965,0.3926889598369598,0.4481993317604065,0.002785556949675,0.3805665373802185,0.3890993595123291,0.0110734067857265,0.4252765774726867,0.4332374334335327,0.0340154394507408,0.4178400337696075,0.3447238206863403,0.029314536601305,0.4176691472530365,0.2882099449634552,0.016305822879076,0.4189215898513794,0.2348196506500244,0.0048891911283135,0.4641618132591247,0.4177593886852264,0.0291461981832981,0.4580155909061432,0.315707117319107,0.0287068858742713,0.455327421426773,0.2510830760002136,0.0178062170743942,0.4517221748828888,0.1907207071781158,0.0081480164080858,0.4982045888900757,0.424041599035263,0.018096636980772,0.4970214664936065,0.3285641074180603,0.0143343647941946,0.4950866103172302,0.2737815380096435,0.008474538102746,0.4914814233779907,0.2246466875076294,0.0025741893332451,0.5354145765304565,0.4445402026176452,0.0033464825246483,0.5354629755020142,0.3686543405056,-4.918768900097348e-05,0.5342804789543152,0.3227154016494751,-0.0002935889351647,0.531409502029419,0.2773894071578979,-0.0017702705226838
2023-08-01 15:51:51.246693,35,307,0.751961886882782,0.5082062482833862,-0.3847663700580597,0.1680313795804977,0.0693359375,0.91015625,0.41796875,0.4902546405792236,0.7041699290275574,2.338672118185059e-07,0.4216623306274414,0.6471809148788452,-0.011572471819818,0.3920281231403351,0.5389028787612915,-0.0036361599341034,0.3965170085430145,0.4478315412998199,0.0022101055365055,0.383113294839859,0.3885408937931061,0.0099479975178837,0.4284212589263916,0.431513637304306,0.0359621345996856,0.4201882481575012,0.3416926860809326,0.0312239006161689,0.4195703566074371,0.2843670845031738,0.0177596528083086,0.4209042191505432,0.2296674400568008,0.0059134815819561,0.4676579535007477,0.4162290096282959,0.0306824911385774,0.4599320292472839,0.3138655424118042,0.0304111503064632,0.4569870233535766,0.2485987395048141,0.0186180379241704,0.4537469744682312,0.1863267421722412,0.008192365989089,0.502385675907135,0.4229688048362732,0.0192272551357746,0.5002780556678772,0.3268971145153045,0.0158470328897237,0.4990253150463104,0.2711028754711151,0.0099999587982892,0.496456503868103,0.2201828062534332,0.0039287945255637,0.5407023429870605,0.4445475339889526,0.0040860627777874,0.5397014021873474,0.3684316873550415,0.0013061072677373,0.538233757019043,0.321958065032959,0.0016464664367958,0.5350794792175293,0.2754559516906738,0.0004720984434243
2023-08-01 15:51:51.309377,36,308,0.7535268664360046,0.5088340044021606,-0.3779546320438385,0.1744577586650848,0.1845703125,0.89501953125,0.50244140625,0.4928993880748749,0.7047032713890076,2.2822040079972802e-07,0.4244298934936523,0.6490898132324219,-0.0118292840197682,0.3932958245277405,0.5419360399246216,-0.0044494708999991,0.3965359926223755,0.4503592848777771,0.0008946329471655,0.3835185766220093,0.389441579580307,0.0081758005544543,0.4290132820606231,0.4315229058265686,0.0349098443984985,0.4198353886604309,0.3411714732646942,0.030032517388463,0.4187160730361938,0.2841988801956177,0.0165967736393213,0.4192726016044616,0.2306195199489593,0.0048976535908877,0.4678271412849426,0.4157696962356567,0.0296716801822185,0.4595091044902801,0.3117645978927612,0.0291852355003356,0.4561735093593597,0.2458835244178772,0.0173197295516729,0.4523292481899261,0.185199350118637,0.006969679147005,0.5022271275520325,0.4217499196529388,0.0183408856391906,0.4991859793663025,0.3243899345397949,0.0150284981355071,0.4976495504379272,0.2678163647651672,0.0088023515418171,0.4949546456336975,0.218027263879776,0.0025418333243578,0.5403615832328796,0.4421464204788208,0.0033253815490752,0.5381988286972046,0.3653720021247864,0.0006417817203328,0.5358726978302002,0.3186776638031006,0.0007718887063674,0.5326658487319946,0.2735157907009125,-0.0004225052252877
