Timestamp,Index,Frame ID,w,x,y,z,ax,ay,az,x_0,y_0,z_0,x_1,y_1,z_1,x_2,y_2,z_2,x_3,y_3,z_3,x_4,y_4,z_4,x_5,y_5,z_5,x_6,y_6,z_6,x_7,y_7,z_7,x_8,y_8,z_8,x_9,y_9,z_9,x_10,y_10,z_10,x_11,y_11,z_11,x_12,y_12,z_12,x_13,y_13,z_13,x_14,y_14,z_14,x_15,y_15,z_15,x_16,y_16,z_16,x_17,y_17,z_17,x_18,y_18,z_18,x_19,y_19,z_19,x_20,y_20,z_20
2023-08-01 15:52:05.584801,0,563,0.7383597493171692,0.525680422782898,-0.3545939028263092,0.2296694368124008,0.12255859375,0.935546875,0.27294921875,0.487987220287323,0.6334044933319092,1.539328167154963e-07,0.4217470288276672,0.5846023559570312,-0.0084316320717334,0.3900654315948486,0.4833171665668487,-0.0017388147534802,0.3891686201095581,0.3994599878787994,0.0018019947456195,0.3788223266601562,0.3410884439945221,0.0063956039957702,0.4213114976882934,0.3756754696369171,0.0333637557923793,0.4074802696704864,0.2922927737236023,0.028306920081377,0.4013283252716064,0.2394523024559021,0.0147635219618678,0.397472083568573,0.1882237792015075,0.0023512153420597,0.4536238014698028,0.3577772676944732,0.0252143908292055,0.4402652680873871,0.2584096193313598,0.02307572029531,0.4326522946357727,0.194370687007904,0.0096853403374552,0.4252086877822876,0.1350881159305572,-0.0023536577355116,0.4839414060115814,0.3619520664215088,0.011488695628941,0.4760468304157257,0.268346905708313,0.0064137098379433,0.4711136221885681,0.2094050049781799,-0.0035472719464451,0.4650684893131256,0.1579194664955139,-0.0131222745403647,0.5174800753593445,0.3801523745059967,-0.0053916866891086,0.5131145119667053,0.3059550821781158,-0.0105043509975075,0.5092764496803284,0.2588087320327759,-0.0139672858640551,0.5041832327842712,0.2140429764986038,-0.018546825274825
2023-08-01 15:52:05.641210,1,564,0.7467120289802551,0.522615909576416,-0.329819917678833,0.2459930330514907,0.19580078125,0.92626953125,0.37255859375,0.4867397844791412,0.6380236744880676,1.5578257261950057e-07,0.4213956892490387,0.5843783020973206,-0.0059305252507328,0.3909265398979187,0.4825069308280945,0.0018292075255885,0.3901880979537964,0.3999982476234436,0.0062207491137087,0.3793378472328186,0.3414161801338196,0.0118180122226476,0.421195238828659,0.376648485660553,0.0349200144410133,0.4070308208465576,0.2920508980751037,0.029341472312808,0.4019050002098083,0.2376725673675537,0.0157724376767873,0.3996140658855438,0.1858473718166351,0.003682083915919,0.4531175792217254,0.359524130821228,0.0260746553540229,0.4391981959342956,0.2605847418308258,0.0233978349715471,0.4318573474884033,0.1962649971246719,0.0097648091614246,0.4249811470508575,0.1362515985965728,-0.0020079549867659,0.4841795861721039,0.3632501065731048,0.011957174167037,0.4760342538356781,0.268398642539978,0.0065634897910058,0.4720357656478882,0.2107620686292648,-0.0028556841425597,0.4668740928173065,0.1599687933921814,-0.011478116735816,0.5190125703811646,0.3814599514007568,-0.0050324103794991,0.5149688720703125,0.3055270314216614,-0.0101312156766653,0.5120105147361755,0.2583099007606506,-0.0130057772621512,0.507368803024292,0.2136440128087997,-0.0166801288723945
2023-08-01 15:52:05.696692,2,565,0.75951087474823,0.5157285332679749,-0.2888436317443847,0.2715449631214142,0.0654296875,0.9443359375,0.36279296875,0.4881537556648254,0.6373701095581055,1.6661641666360088e-07,0.4233190417289734,0.5841189622879028,-0.007118762936443,0.3923571109771728,0.4818834364414215,0.0001541108067613,0.3916675150394439,0.3983904421329498,0.0041369753889739,0.3805661201477051,0.3404037356376648,0.009343784302473,0.4212194085121155,0.3774825632572174,0.0341693386435508,0.4076084792613983,0.2925587892532348,0.0281647574156522,0.4032067656517029,0.2379271686077118,0.0143194952979683,0.4012138843536377,0.1855223178863525,0.0018945375923067,0.4537671506404876,0.3594822883605957,0.0256986673921346,0.4406948685646057,0.2604341208934784,0.0225616209208965,0.4338032007217407,0.1964483261108398,0.0087388092651963,0.426695168018341,0.1362503767013549,-0.0033284947276115,0.4849647283554077,0.3625753223896026,0.0117882750928401,0.4779223799705505,0.2683736681938171,0.0059245573356747,0.4741362631320953,0.2112868130207061,-0.0036634330172091,0.4686625599861145,0.160769909620285,-0.0125231742858886,0.519418478012085,0.3800240159034729,-0.0051384670659899,0.5159524083137512,0.3055600821971893,-0.0107132950797677,0.5134466886520386,0.2588391304016113,-0.0140012232586741,0.5090267062187195,0.2143401354551315,-0.018093816936016
2023-08-01 15:52:05.753019,3,566,0.7713709473609924,0.5074569582939148,-0.2408546060323715,0.299104243516922,-0.1748046875,0.96826171875,0.22607421875,0.4871408641338348,0.6373341679573059,1.6747655706694786e-07,0.4233096241950989,0.5818447470664978,-0.0054467204026877,0.3939177691936493,0.4790845513343811,0.0024909002240747,0.3936650156974792,0.3971799612045288,0.0068514607846736,0.3815933763980865,0.3409183025360107,0.0123201981186866,0.4232101738452911,0.375556617975235,0.0353565476834774,0.4096084535121918,0.2906288206577301,0.0296529456973075,0.4048264026641845,0.2356258928775787,0.0160404331982135,0.4030706584453583,0.183202251791954,0.0038038694765418,0.4549597203731537,0.3581851124763489,0.0261364094913005,0.4416005909442901,0.2588129639625549,0.0230493396520614,0.4346036314964294,0.1937495917081833,0.0090327681973576,0.4278649985790252,0.1329788863658905,-0.0031137629412114,0.4856868386268616,0.3617690503597259,0.0116610107943415,0.4788426160812378,0.2668667435646057,0.0058323866687715,0.4750785231590271,0.2089202851057052,-0.0043237903155386,0.4697214365005493,0.1576927006244659,-0.0135624557733535,0.5197535753250122,0.3796121180057525,-0.0056451065465807,0.517235517501831,0.3047052025794983,-0.011561376042664,0.5146707892417908,0.2569819688796997,-0.0155375450849533,0.510033369064331,0.2112685143947601,-0.0200901329517364
2023-08-01 15:52:05.815074,4,567,0.7835043668746948,0.4924146831035614,-0.1769149601459503,0.3351861834526062,0.22802734375,0.9287109375,0.25146484375,0.4890695512294769,0.6375297904014587,1.2968148155323433e-07,0.4301930069923401,0.5800187587738037,0.0031359349377453,0.41000896692276,0.4738673269748688,0.0136860255151987,0.4136861562728882,0.3941512107849121,0.0186369884759187,0.4073358178138733,0.3388515412807464,0.0237558241933584,0.4359593093395233,0.3749918937683105,0.0417077578604221,0.426397442817688,0.2868492007255554,0.0383616052567958,0.4198506474494934,0.2313651740550995,0.0271712206304073,0.4167921245098114,0.1792142987251281,0.0162977315485477,0.4614341557025909,0.3592946231365204,0.0275308210402727,0.4512509107589721,0.2576874494552612,0.0251695867627859,0.4449777007102966,0.1900426000356674,0.012308687902987,0.439869076013565,0.1278785169124603,0.0008032083278521,0.4860173761844635,0.3643082678318023,0.0086453706026077,0.4821710586547851,0.2629920840263366,0.0032084342092275,0.480832427740097,0.2013153433799743,-0.0074856765568256,0.4786756634712219,0.1474087536334991,-0.0176290906965732,0.5121080875396729,0.3811231851577759,-0.0123066008090972,0.5104997158050537,0.3006644546985626,-0.0188761539757251,0.5107213258743286,0.2496807128190994,-0.0240572988986969,0.5102410912513733,0.2025427371263504,-0.0299759656190872
2023-08-01 15:52:05.878022,5,568,0.7937753200531006,0.4628506302833557,-0.0704229399561882,0.3882404267787933,-0.08837890625,0.9521484375,0.22705078125,0.4936729967594147,0.6388559341430664,1.3735781578816386e-07,0.4333899617195129,0.5779677629470825,0.0063831517472863,0.4148605465888977,0.4716165065765381,0.0171706806868314,0.4191162288188934,0.3933313488960266,0.0215407535433769,0.4157883524894714,0.3366885781288147,0.0261733029037714,0.4417089223861694,0.373736709356308,0.0449398718774318,0.433476448059082,0.2840129435062408,0.0430398471653461,0.4269228279590606,0.228426918387413,0.0336645282804966,0.4234810173511505,0.1766988188028335,0.0242125913500785,0.4649947881698608,0.3593507707118988,0.0290480144321918,0.4560175538063049,0.2577571868896484,0.0275217518210411,0.4496676623821258,0.1903991252183914,0.016684228554368,0.4445954859256744,0.1283310949802398,0.0070531480014324,0.4876457750797272,0.3644576966762543,0.0085852816700935,0.4847221374511719,0.2618002891540527,0.0042943158186972,0.4835472702980041,0.1996200680732727,-0.004304464906454,0.4819202721118927,0.1455668807029724,-0.012670318596065,0.5108411908149719,0.3808306455612182,-0.0137669453397393,0.5095443725585938,0.2972472906112671,-0.0188184026628732,0.5102615356445312,0.2444568127393722,-0.0223010256886482,0.5109434127807617,0.1968833059072494,-0.0267847962677478
2023-08-01 15:52:05.940011,6,569,0.7909544110298157,0.4236437678337097,0.0451312325894832,0.4391813576221466,-0.31884765625,0.95703125,0.0927734375,0.4959403276443481,0.6396070718765259,1.5488923565953885e-07,0.4374749958515167,0.5737575888633728,0.0049119000323116,0.423042893409729,0.4673180282115936,0.0139550399035215,0.4287683665752411,0.3895687460899353,0.0168244168162345,0.4268997609615326,0.3331895172595978,0.0201885569840669,0.4472605586051941,0.3739014863967895,0.0426519885659217,0.440234512090683,0.2827832698822021,0.0395647622644901,0.4336928725242615,0.2272033989429474,0.0303681604564189,0.4301215410232544,0.1762236356735229,0.0215754210948944,0.4699559509754181,0.358443021774292,0.0271137580275535,0.4623384177684784,0.2556232810020447,0.0243992954492568,0.4558545351028442,0.1889030784368515,0.014484847895801,0.4497465789318084,0.1285000741481781,0.006101852748543,0.4915152788162231,0.3617240488529205,0.0068657551892101,0.4902959764003753,0.257889449596405,0.002438157564029,0.4877371490001678,0.1953550428152084,-0.0046756230294704,0.4844873547554016,0.1414975225925445,-0.0116428844630718,0.513485312461853,0.3774977922439575,-0.0154978474602103,0.5134326815605164,0.2936547398567199,-0.0194395892322063,0.5143114328384399,0.2404623925685882,-0.0216189846396446,0.5145808458328247,0.1934601664543151,-0.0249698124825954
2023-08-01 15:52:06.002170,7,570,0.7726664543151855,0.375897467136383,0.1649270355701446,0.4842384755611419,0.05712890625,0.94189453125,-0.00439453125,0.5015836954116821,0.637452244758606,1.6315053130711021e-07,0.4468146562576294,0.5637355446815491,0.0079170586541295,0.4355610013008117,0.4610576629638672,0.01604425907135,0.443112313747406,0.3876791000366211,0.0172984916716814,0.440697968006134,0.3318144977092743,0.0184536334127187,0.4545382261276245,0.3687582612037658,0.0408174060285091,0.4483165740966797,0.2748593688011169,0.0360032804310321,0.4429581463336944,0.2174134403467178,0.0258256569504737,0.4403983950614929,0.165123239159584,0.0164215620607137,0.4755504429340362,0.3569131195545196,0.0231072325259447,0.4688537120819092,0.2536479830741882,0.0187968090176582,0.4636980593204498,0.1864626407623291,0.0076258829794824,0.4596673548221588,0.1270724833011627,-0.0017002437962219,0.4956460893154144,0.3640850782394409,0.0013172243488952,0.4949396550655365,0.2595202922821045,-0.0043256608769297,0.4934042394161224,0.1960446685552597,-0.0115372193977236,0.4916078448295593,0.1419240832328796,-0.0186124891042709,0.5152081251144409,0.3857369720935821,-0.022204028442502,0.5134273767471313,0.3034582138061523,-0.0274938251823186,0.5118176341056824,0.249623104929924,-0.0298676136881113,0.509922444820404,0.2023895382881164,-0.0333006717264652
2023-08-01 15:52:06.066913,8,571,0.7496757507324219,0.3361101448535919,0.2543369829654693,0.5102243423461914,-0.00146484375,0.9072265625,-0.0107421875,0.5385050773620605,0.6436188220977783,-4.6767738126618497e-08,0.5440390706062317,0.5415347814559937,0.0435870699584484,0.5440173745155334,0.4573820829391479,0.0562935508787632,0.5388837456703186,0.4022809863090515,0.0575068183243274,0.5310407280921936,0.355840653181076,0.0563710294663906,0.567177951335907,0.3903127908706665,0.0350687429308891,0.5360336303710938,0.2817157506942749,0.0287740863859653,0.510671854019165,0.2153568565845489,0.0238252840936183,0.4945136308670044,0.1596119105815887,0.0193587094545364,0.5605842471122742,0.389475017786026,0.0014200664591044,0.5236358046531677,0.2585151791572571,-0.0079523231834173,0.503699541091919,0.17917400598526,-0.0135816540569067,0.493824690580368,0.1145146787166595,-0.0183846242725849,0.5402523279190063,0.3987115025520324,-0.0307181160897016,0.5147181153297424,0.262401282787323,-0.0362850166857242,0.5024673938751221,0.1818628162145614,-0.0397041998803615,0.5002735257148743,0.1146028339862823,-0.0445421896874904,0.5096918940544128,0.4115010797977447,-0.0598556660115718,0.4984422922134399,0.3072703778743744,-0.0663673728704452,0.495848536491394,0.2418709099292755,-0.068174347281456,0.4970217943191528,0.1834156662225723,-0.0709228515625
2023-08-01 15:52:06.126152,9,572,0.7257636785507202,0.299450546503067,0.3251238763332367,0.5271536111831665,-0.05078125,0.9404296875,-0.05419921875,0.5476008653640747,0.6343464255332947,-7.04396256878681e-08,0.5653183460235596,0.5345922708511353,0.0379256904125213,0.5654270648956299,0.449768602848053,0.0500862896442413,0.5560330748558044,0.39189213514328,0.0521096438169479,0.5459001064300537,0.3493983149528503,0.0510946959257125,0.5712806582450867,0.387925237417221,0.0275129377841949,0.5386577844619751,0.2854694724082947,0.0179706495255231,0.5156448483467102,0.2199323028326034,0.0108958268538117,0.5006739497184753,0.1630084812641143,0.0047232396900653,0.5626475811004639,0.3870445489883423,-0.0037290924228727,0.5298359394073486,0.2591676712036133,-0.0155062498524785,0.5128825306892395,0.1785191148519516,-0.0224649459123611,0.5029200315475464,0.1101972162723541,-0.028441485017538,0.5396345257759094,0.3955666124820709,-0.033834084868431,0.5158076882362366,0.2658248543739319,-0.0447498075664043,0.5048259496688843,0.188163936138153,-0.0509970299899578,0.5019959211349487,0.1221243143081665,-0.0568383932113647,0.5062158107757568,0.4092349112033844,-0.0610816702246665,0.4946090877056122,0.310145765542984,-0.075117751955986,0.4914478659629822,0.2449448108673095,-0.0818773359060287,0.4925181269645691,0.1873470544815063,-0.0872565433382988
2023-08-01 15:52:06.205715,10,573,0.6910167932510376,0.2479507476091385,0.4091180562973022,0.5418843030929565,-0.3427734375,0.96533203125,-0.181640625,0.5516944527626038,0.6209791898727417,-1.0136501060742377e-07,0.577397882938385,0.5230653882026672,0.0431926138699054,0.5806276202201843,0.4472242593765259,0.0585993789136409,0.5698614120483398,0.3901995718479156,0.0638073086738586,0.5516313910484314,0.3519835770130157,0.0645963102579116,0.5814344882965088,0.3815066218376159,0.0292315129190683,0.5418161153793335,0.2889261245727539,0.022802198305726,0.5119519233703613,0.2411868870258331,0.0177791193127632,0.4908878803253174,0.2029657810926437,0.0132308984175324,0.5650831460952759,0.3778387904167175,-0.0016996033955365,0.5335376858711243,0.2498335540294647,-0.0113435089588165,0.516259491443634,0.1719161123037338,-0.016339847818017,0.5045062303543091,0.1077784299850463,-0.0208567399531602,0.5362846255302429,0.388712078332901,-0.0303451977670192,0.5149507522583008,0.2595911622047424,-0.0413166768848896,0.5043995380401611,0.1852724701166153,-0.0474045500159263,0.5010957717895508,0.1249394714832305,-0.0525147914886474,0.4993044137954712,0.4081655144691467,-0.0549100078642368,0.4872816801071167,0.3073849678039551,-0.070161797106266,0.4839850962162018,0.2449511140584945,-0.0763095170259475,0.4841319918632507,0.1914616078138351,-0.0805220827460289
2023-08-01 15:52:06.280060,11,574,0.6599348783493042,0.2073718458414077,0.4706548452377319,0.5476922988891602,-0.42529296875,0.95068359375,-0.28955078125,0.5617297887802124,0.606184720993042,4.196527214617164e-08,0.6101917028427124,0.5199718475341797,0.0308254156261682,0.6210706233978271,0.4283692538738251,0.0406120121479034,0.6114608645439148,0.3451816141605377,0.0451263636350631,0.5976075530052185,0.289095938205719,0.0460886433720588,0.6124727725982666,0.3720202147960663,0.0033176024444401,0.5761935710906982,0.2664227485656738,-0.0020368238911032,0.5507076382637024,0.2121041417121887,-0.0031177382916212,0.5322704911231995,0.171209380030632,-0.0041384603828191,0.575372040271759,0.3713349997997284,-0.0179727226495742,0.5414628982543945,0.2368028461933136,-0.0280985590070486,0.5239577293395996,0.156977891921997,-0.0311202406883239,0.5133420825004578,0.0975660681724548,-0.032971367239952,0.5337562561035156,0.3838819563388824,-0.0354527421295642,0.5092060565948486,0.2579295933246612,-0.0457623489201068,0.5025941729545593,0.180656611919403,-0.0497606359422206,0.5016724467277527,0.1210877001285553,-0.0526151172816753,0.4909014701843261,0.4087761640548706,-0.0489142313599586,0.4777459502220154,0.3095825910568237,-0.0587752759456634,0.4738511741161346,0.2526120543479919,-0.0594531372189521,0.4736902117729187,0.2020450383424759,-0.0592782720923423
2023-08-01 15:52:06.358116,12,575,0.6336785554885864,0.1829912960529327,0.5154993534088135,0.5470156073570251,-0.35693359375,0.92236328125,-0.38818359375,0.5645949840545654,0.6062824130058289,7.472856111689907e-08,0.6129348874092102,0.5216084122657776,0.0187928825616836,0.6264271140098572,0.4275976717472076,0.0239305030554533,0.6156758666038513,0.3440320491790771,0.0251280460506677,0.5965686440467834,0.2870344221591949,0.0228034518659114,0.6108962297439575,0.3704575002193451,-0.0016805391060188,0.5784032344818115,0.2652339935302734,-0.0098963873460888,0.5544456839561462,0.2111364603042602,-0.0148599967360496,0.5367729067802429,0.169682115316391,-0.0185822825878858,0.5723237991333008,0.3681840598583221,-0.0188216771930456,0.5420869588851929,0.2398166209459304,-0.0282625444233417,0.5262293815612793,0.1607297211885452,-0.034503050148487,0.5162868499755859,0.1009218394756317,-0.0393718965351581,0.5310304760932922,0.381582647562027,-0.0337548665702343,0.5087090134620667,0.2592680156230926,-0.0440666042268276,0.5021983981132507,0.1813304722309112,-0.0522282794117927,0.5011024475097656,0.1206505000591278,-0.0585532076656818,0.490271121263504,0.4082742929458618,-0.0457885824143886,0.4749189615249634,0.3101713955402374,-0.0571090131998062,0.4696288704872131,0.2530075907707214,-0.0606533028185367,0.4689070284366607,0.2020488530397415,-0.0626692771911621
2023-08-01 15:52:06.426863,13,576,0.623600959777832,0.177544966340065,0.533516526222229,0.5431019067764282,-0.1142578125,0.8955078125,-0.39013671875,0.5556590557098389,0.6140527725219727,2.468382263032254e-07,0.6180850267410278,0.5461805462837219,0.0102989468723535,0.6415625214576721,0.4523223638534546,0.0150266587734222,0.6358782052993774,0.3631657361984253,0.019370000809431,0.6286067962646484,0.2960656285285949,0.0222459156066179,0.6050578355789185,0.3693407773971557,-0.0089357066899538,0.5847610831260681,0.255359411239624,-0.0140990307554602,0.5719116926193237,0.1942734271287918,-0.014850297011435,0.5623186826705933,0.1465071141719818,-0.0153633011505007,0.5608530640602112,0.3697358667850494,-0.0190516673028469,0.542895495891571,0.2373619675636291,-0.0305771119892597,0.5328313112258911,0.1555208265781402,-0.0364574305713176,0.5265020132064819,0.0940828323364257,-0.0393684916198253,0.5196938514709473,0.3864256143569946,-0.0264973659068346,0.507046639919281,0.2629508674144745,-0.0381065979599952,0.5031440258026123,0.1840103715658188,-0.0451274923980236,0.5018892884254456,0.1236542463302612,-0.0486027635633945,0.482380598783493,0.4193292260169983,-0.0313913784921169,0.4726106524467468,0.3195011019706726,-0.0418049618601799,0.4703166484832763,0.2619559466838836,-0.0441952534019947,0.4714515209197998,0.2121040076017379,-0.0439413227140903
2023-08-01 15:52:06.486676,14,577,0.6211623549461365,0.1730948090553283,0.5363161563873291,0.5445736646652222,-0.21923828125,0.97705078125,-0.28271484375,0.5557102560997009,0.6201928853988647,2.653075625858037e-07,0.6209008097648621,0.5535816550254822,0.0069103478454053,0.6468278169631958,0.4594500660896301,0.0096224127337336,0.6404639482498169,0.3682138919830322,0.0121662095189094,0.6331422924995422,0.2981048822402954,0.0131011493504047,0.6087356805801392,0.3729627728462219,-0.0111500592902302,0.5899891257286072,0.2535198330879211,-0.0187934543937444,0.5776820182800293,0.1911683529615402,-0.0215375758707523,0.5675379633903503,0.143465057015419,-0.0229379404336214,0.5626030564308167,0.3735205829143524,-0.0202794633805751,0.5477775931358337,0.2378443330526352,-0.0308505445718765,0.5384727120399475,0.1564211994409561,-0.0366017408668994,0.5319163203239441,0.096086710691452,-0.0398639924824237,0.5206162333488464,0.3911828994750976,-0.0274812467396259,0.5098681449890137,0.2645503878593445,-0.0378081873059272,0.5066168904304504,0.1848155111074447,-0.0447580590844154,0.5057032108306885,0.1239619255065918,-0.0489942505955696,0.483061134815216,0.4241679310798645,-0.0326670370995998,0.4742218852043152,0.3221798241138458,-0.0427149161696434,0.4724463820457458,0.262819230556488,-0.0452200137078762,0.4740985631942749,0.2116229236125946,-0.0453643575310707
2023-08-01 15:52:06.554932,15,578,0.6228674650192261,0.170427531003952,0.5326464176177979,0.5470634698867798,-0.2548828125,0.94189453125,-0.19677734375,0.5553547143936157,0.6289631128311157,2.658346716089e-07,0.6223742961883545,0.5608233213424683,0.0096812164410948,0.6491020917892456,0.4668523669242859,0.0136203207075595,0.6455113291740417,0.373821884393692,0.0171617716550827,0.6428632140159607,0.3028975129127502,0.019696656614542,0.6123751997947693,0.3766528069972992,-0.0059478431940078,0.5948085188865662,0.2559013664722442,-0.0111792627722024,0.5828598737716675,0.1947189271450042,-0.0120881171897053,0.5737288594245911,0.1493382751941681,-0.0120869511738419,0.5649919509887695,0.3752958476543426,-0.0150624085217714,0.5502923130989075,0.2392312586307525,-0.0242625251412391,0.5422226190567017,0.1586142927408218,-0.0280403029173612,0.5375214219093323,0.0991251468658447,-0.0294138323515653,0.5217830538749695,0.3920695185661316,-0.022091120481491,0.5112426280975342,0.2639352679252624,-0.0310432370752096,0.5086300373077393,0.1856313496828079,-0.0356213860213756,0.5079483985900879,0.1258930265903473,-0.0377454683184623,0.483840137720108,0.4255751073360443,-0.0268771555274724,0.4759180247783661,0.3228045105934143,-0.0347078368067741,0.4743008017539978,0.263735294342041,-0.0348881445825099,0.4754741787910461,0.2132123857736587,-0.0330156832933425
2023-08-01 15:52:06.617093,16,579,0.62327641248703,0.1702579855918884,0.5323129296302795,0.5469751358032227,-0.13037109375,0.90283203125,-0.25537109375,0.5434627532958984,0.6378071904182434,2.3823848493975682e-07,0.6175311207771301,0.5750135779380798,0.0109838861972093,0.6492343544960022,0.4821536839008331,0.0160038173198699,0.6469738483428955,0.3905877470970154,0.0201732292771339,0.6520608067512512,0.32493656873703,0.0232706312090158,0.6085602045059204,0.3918645679950714,-0.0033556846901774,0.5928155183792114,0.2694431841373443,-0.0078359097242355,0.5820004343986511,0.2059282809495926,-0.008157268166542,0.5727856755256653,0.157384380698204,-0.007905876263976,0.5589989423751831,0.3868853151798248,-0.0126775549724698,0.5487167835235596,0.2507066130638122,-0.0220600832253694,0.5415076613426208,0.1708856076002121,-0.0255147870630025,0.5369004011154175,0.1102374196052551,-0.0263526104390621,0.5140758156776428,0.3993512392044067,-0.0198290850967168,0.5092474222183228,0.2738557159900665,-0.0283987279981374,0.5096414089202881,0.1963524520397186,-0.0321307852864265,0.5109729170799255,0.1365221440792083,-0.0336553491652011,0.4734260141849518,0.4282038509845733,-0.0246813297271728,0.4705685079097748,0.3263129889965057,-0.0308268871158361,0.4714399874210357,0.2694414258003235,-0.0293455887585878,0.4741465449333191,0.2217498421669006,-0.0264756456017494
2023-08-01 15:52:06.679505,17,580,0.6266629099845886,0.1743291020393371,0.5270772576332092,0.5468934774398804,-0.17724609375,0.9228515625,-0.27490234375,0.5418980121612549,0.642077624797821,2.279255966186611e-07,0.613389790058136,0.5777840614318848,0.0139132253825664,0.6441144943237305,0.4850060939788818,0.0215703472495079,0.6430625915527344,0.3929880261421203,0.0284899044781923,0.6474905014038086,0.3288027644157409,0.0342000424861907,0.6063750982284546,0.3921036720275879,-8.724066719878465e-05,0.5900558829307556,0.2716196775436401,-0.0005544910673052,0.579143762588501,0.2102233171463012,0.0014072339981794,0.5693660974502563,0.163259819149971,0.0027270028367638,0.5577565431594849,0.386067658662796,-0.0093163708224892,0.5457203984260559,0.2490956485271453,-0.0147507702931761,0.5381300449371338,0.1704089492559433,-0.0165845211595296,0.5332025289535522,0.112609714269638,-0.0168842524290084,0.5121551752090454,0.3985811471939087,-0.0159474276006221,0.5070834159851074,0.2710136175155639,-0.0216438360512256,0.5068528652191162,0.1939035952091217,-0.0253472402691841,0.5070785284042358,0.1341831684112548,-0.0275869276374578,0.4701815843582153,0.4279532432556152,-0.0198602154850959,0.4657101035118103,0.3257309198379516,-0.0259918235242366,0.4657661616802215,0.2683658599853515,-0.0258341096341609,0.4680907726287842,0.2177711874246597,-0.0240411609411239
2023-08-01 15:52:06.736231,18,581,0.6367906928062439,0.1835187822580337,0.5122383832931519,0.5462877154350281,-0.1201171875,0.94580078125,-0.25,0.5403424501419067,0.6383154988288879,2.346977368006265e-07,0.6123998165130615,0.5741839408874512,0.0105211706832051,0.6430737972259521,0.4821941256523132,0.0161363687366247,0.6399809718132019,0.3908612430095672,0.0210584793239831,0.6441437602043152,0.3256981074810028,0.0248563718050718,0.6023060083389282,0.3898776173591614,-0.0025765295140445,0.5862751603126526,0.2697933316230774,-0.0057110856287181,0.5753234624862671,0.2075521945953369,-0.0059011820703744,0.5660029053688049,0.1587123125791549,-0.006142821162939,0.5537784695625305,0.3843736052513122,-0.0113916089758276,0.5418767929077148,0.2489929795265197,-0.0184924062341451,0.5355004668235779,0.1690393984317779,-0.0214389357715845,0.5319955945014954,0.1089881360530853,-0.0227671340107917,0.5094579458236694,0.397562563419342,-0.018187653273344,0.5026060938835144,0.2717643976211548,-0.0254606064409017,0.5026311278343201,0.1956895738840103,-0.0295288134366273,0.503694474697113,0.1355912685394287,-0.0320042707026004,0.4698628783226013,0.4275496900081634,-0.0227898452430963,0.4649680256843567,0.3259224891662597,-0.0300006531178951,0.4645615816116333,0.2687513828277588,-0.0302108321338892,0.4666453003883362,0.2183268219232559,-0.0287907384335994
2023-08-01 15:52:06.794705,19,582,0.6533337235450745,0.1997676193714141,0.4867412149906158,0.5443627834320068,-0.44482421875,0.9384765625,-0.31396484375,0.5375653505325317,0.6363493204116821,2.437366504182137e-07,0.6111855506896973,0.5735714435577393,0.0134811513125896,0.6424462795257568,0.4817202687263489,0.0211507603526115,0.6392776966094971,0.3891140520572662,0.028106328099966,0.6442636847496033,0.3234789967536926,0.0342744179069995,0.6013845801353455,0.387037843465805,0.0025340423453599,0.5852516293525696,0.2669996321201324,0.0031969456467777,0.5740506649017334,0.2059597223997116,0.0059090685099363,0.5645508170127869,0.1590109020471573,0.0075990548357367,0.5525452494621277,0.3804191946983337,-0.0060203159227967,0.5416818261146545,0.2468719184398651,-0.0104582253843545,0.534669816493988,0.1680505126714706,-0.0121280448511242,0.5307930111885071,0.1092768609523773,-0.0124365119263529,0.5080068111419678,0.3930441439151764,-0.0121511202305555,0.501558244228363,0.2692945897579193,-0.0168338660150766,0.5012535452842712,0.1936795562505722,-0.0200008302927017,0.5020073652267456,0.1345805823802948,-0.0219252370297908,0.4680162668228149,0.4231882393360138,-0.0157555565237998,0.462900698184967,0.3220506012439728,-0.019911078736186,0.4619874358177185,0.2655917704105377,-0.0185800585895776,0.4637852013111114,0.2160078436136245,-0.0161733552813529
2023-08-01 15:52:06.858878,20,583,0.6785467863082886,0.2275295704603195,0.4435604214668274,0.539498507976532,-0.4541015625,0.93798828125,-0.2421875,0.5398736000061035,0.6340000629425049,2.0447092197173333e-07,0.6063224673271179,0.5668785572052002,0.0109729738906025,0.6326767206192017,0.4736518859863281,0.0159385278820991,0.6276156306266785,0.3830825984477997,0.0197565462440252,0.6317691802978516,0.3181302547454834,0.0220860783010721,0.5978222489356995,0.3866868019104004,-0.003014416899532,0.5794276595115662,0.2693327665328979,-0.007957293651998,0.5674238801002502,0.2077599167823791,-0.0096074780449271,0.5570707321166992,0.1594940572977066,-0.0106765702366828,0.5518988370895386,0.3823998868465423,-0.0129117676988244,0.5370323657989502,0.2489830553531646,-0.0206701159477233,0.5281784534454346,0.1705281138420105,-0.024306122213602,0.5222987532615662,0.1108214259147644,-0.0263301320374012,0.5079693794250488,0.3952307105064392,-0.0208847150206565,0.499732494354248,0.2702213823795318,-0.0286295842379331,0.4975053071975708,0.1950482726097107,-0.0329361669719219,0.4965561330318451,0.1354514062404632,-0.0358205512166023,0.4664226174354553,0.4241736829280853,-0.026642806828022,0.460873931646347,0.3241455554962158,-0.0342825800180435,0.4605947136878967,0.267467737197876,-0.0346436314284801,0.4627245962619781,0.2167805582284927,-0.0335159413516521
2023-08-01 15:52:06.929041,21,584,0.7159857153892517,0.2753115892410278,0.3666814863681793,0.5264149308204651,-0.2392578125,0.93701171875,-0.06396484375,0.5413440465927124,0.6280468702316284,2.0015497170788882e-07,0.6073981523513794,0.5609131455421448,0.016787052154541,0.6301030516624451,0.4718359410762787,0.024326940998435,0.6265408396720886,0.3827663958072662,0.0299259759485721,0.6282034516334534,0.3185830116271972,0.0339376777410507,0.595832347869873,0.3814671635627746,0.0014463576953858,0.5749523043632507,0.2647723257541656,-0.0008248792146332,0.5623677968978882,0.2042674720287323,0.0001146056383731,0.5528977513313293,0.1573216319084167,0.0005823370884172,0.5508741736412048,0.3779523074626922,-0.0101844612509012,0.5322800874710083,0.2460671961307525,-0.0183091461658477,0.5231552124023438,0.1690126657485962,-0.0216989964246749,0.518994152545929,0.1101448833942413,-0.0232713967561721,0.5076175332069397,0.392795205116272,-0.019117459654808,0.4953929781913757,0.2707265317440033,-0.0273604001849889,0.4923977851867676,0.1947017908096313,-0.0315375812351703,0.49221271276474,0.1343555748462677,-0.033870905637741,0.4675787389278412,0.4242600798606872,-0.0251534711569547,0.4588382840156555,0.3245998322963714,-0.0327619239687919,0.4566138684749603,0.267638623714447,-0.0330678932368755,0.4578242003917694,0.2164528220891952,-0.0317388325929641
2023-08-01 15:52:06.984586,22,585,0.7452276349067688,0.318246454000473,0.2890421152114868,0.5097152590751648,-0.138671875,0.96923828125,-0.13232421875,0.5393850803375244,0.6274769902229309,2.0163186320587561e-07,0.6035444140434265,0.5581810474395752,0.0129941785708069,0.6265435814857483,0.4685723781585693,0.0182934142649173,0.6224057674407959,0.3807198703289032,0.0218785461038351,0.6208131313323975,0.3150424063205719,0.0238511990755796,0.5935339331626892,0.3819469809532165,-0.001228537177667,0.5712405443191528,0.2676453292369842,-0.005855802912265,0.5577576160430908,0.2073171883821487,-0.0072294156998395,0.5477226376533508,0.1598569005727768,-0.0082523496821522,0.5497273206710815,0.3786543011665344,-0.0126354694366455,0.5296294689178467,0.2482116073369979,-0.0223112031817436,0.5196394920349121,0.1702668070793151,-0.0275297947227954,0.5144733190536499,0.1102125942707061,-0.0304496474564075,0.5066064596176147,0.3930454552173614,-0.0218484550714492,0.4935483336448669,0.2713835835456848,-0.0318764708936214,0.4902025461196899,0.1949623078107834,-0.0371219217777252,0.4897201657295227,0.1338208019733429,-0.0400385409593582,0.4655275642871856,0.4232388138771057,-0.0285564716905355,0.4560931324958801,0.3220436573028564,-0.0380749143660068,0.4536872804164886,0.2647615075111389,-0.03892507776618,0.4543924629688263,0.213239312171936,-0.0377808548510074
2023-08-01 15:52:07.045687,23,586,0.7721750736236572,0.363842248916626,0.1939803957939148,0.4834626317024231,-0.451171875,0.93359375,-0.0625,0.5399783253669739,0.6170339584350586,7.03457132544827e-08,0.5870627760887146,0.5312952399253845,0.021780215203762,0.6016663908958435,0.4389837384223938,0.0292062498629093,0.5951269268989563,0.357827752828598,0.0319842584431171,0.5808114409446716,0.3015378713607788,0.0315435156226158,0.5823579430580139,0.3747581541538238,0.0047274054959416,0.5474096536636353,0.2706376314163208,-0.0027116404380649,0.5252678990364075,0.2138726264238357,-0.0074369232170283,0.5093311071395874,0.1685832142829895,-0.0111908437684178,0.5465093851089478,0.3753092288970947,-0.0133606474846601,0.516473650932312,0.2477263659238815,-0.0236519128084182,0.5012530088424683,0.1708394885063171,-0.0295336078852415,0.491980493068695,0.1104983389377594,-0.0338970944285392,0.507501482963562,0.3889058530330658,-0.0294175297021865,0.4883419275283813,0.267156183719635,-0.0400577224791049,0.4820948243141174,0.1910246610641479,-0.0466386228799819,0.480541467666626,0.1297443807125091,-0.0515555031597614,0.4669459164142608,0.4139670729637146,-0.0426376797258853,0.4547629058361053,0.3148213326931,-0.053497564047575,0.4508240222930908,0.2573198676109314,-0.0563886761665344,0.4501079320907593,0.2054511904716491,-0.0579160302877426
2023-08-01 15:52:07.104724,24,587,0.7943315505981445,0.4219096899032593,0.0574327707290649,0.4332796037197113,0.1142578125,0.9013671875,0.16650390625,0.5372936725616455,0.6138643026351929,4.155494437441121e-08,0.5794628858566284,0.5298957824707031,0.0241538137197494,0.5913706421852112,0.4382808804512024,0.0330376140773296,0.5860806107521057,0.3611388504505157,0.0364760346710681,0.5734381675720215,0.3043966889381408,0.0368642583489418,0.5808865427970886,0.3761830627918243,0.0093559306114912,0.5452005863189697,0.2743472158908844,0.0012381606502458,0.5208364129066467,0.2164434790611267,-0.0041731996461749,0.5033895373344421,0.1703723520040512,-0.0082849496975541,0.5508646368980408,0.3753657937049866,-0.0108192637562751,0.5185517072677612,0.249568223953247,-0.0215172618627548,0.5006809234619141,0.1705986261367797,-0.0282306242734193,0.4890642166137695,0.1078691184520721,-0.0331622213125228,0.5145866274833679,0.3873810768127441,-0.0291938502341508,0.491927832365036,0.2669970691204071,-0.0406728349626064,0.4838132858276367,0.1915382295846939,-0.0474552810192108,0.4808984696865082,0.1311259567737579,-0.0521675311028957,0.473608523607254,0.4095695912837982,-0.0447223633527755,0.4610259234905243,0.3116836249828338,-0.0567474253475666,0.4564194083213806,0.2551675140857696,-0.0600263960659503,0.455246090888977,0.2048623263835907,-0.0614949911832809
2023-08-01 15:52:07.168906,25,588,0.7954927682876587,0.4756565690040588,-0.105797529220581,0.3602067232131958,0.51171875,0.91259765625,0.1201171875,0.536706805229187,0.6086851954460144,-4.568446243524704e-08,0.573406457901001,0.5181504487991333,0.0344855412840843,0.5830982327461243,0.4360454678535461,0.0444601252675056,0.5728440880775452,0.3661312758922577,0.0461066551506519,0.5491982698440552,0.3208865523338318,0.0431567914783954,0.5864500999450684,0.3795242607593536,0.014404609799385,0.5437631011009216,0.2812189757823944,0.0060800909996032,0.5110626816749573,0.2354068756103515,-0.0002884475106839,0.4873672127723694,0.2015186697244644,-0.0051144552417099,0.5589195489883423,0.3742674887180328,-0.0124460970982909,0.5250529050827026,0.2446650266647339,-0.0212793499231338,0.5047286152839661,0.163926899433136,-0.0263998843729496,0.4898668527603149,0.1009453237056732,-0.0311240963637828,0.5228232741355896,0.3856221437454223,-0.0366973616182804,0.5013165473937988,0.2580695152282715,-0.0459323972463607,0.4905420839786529,0.1841684132814407,-0.0507367104291915,0.4857049286365509,0.1265232563018798,-0.0553116910159587,0.4808022081851959,0.4082207679748535,-0.0574665777385234,0.470360517501831,0.3083601295948028,-0.0686587914824485,0.4661496579647064,0.2503432631492615,-0.0705214664340019,0.4644367396831512,0.1995387226343155,-0.0717282965779304
2023-08-01 15:52:07.230335,26,589,0.7764239311218262,0.5074487924575806,-0.2326650023460388,0.2924529016017914,-0.09716796875,0.94580078125,0.04443359375,0.5107198357582092,0.6333960890769958,8.669398710026145e-08,0.4622159600257873,0.5474184155464172,0.0026548404712229,0.4692040681838989,0.4570237696170807,0.0013000268954783,0.4848051071166992,0.3934259414672851,-0.0041477987542748,0.4907590746879577,0.3377541899681091,-0.0095196031033992,0.5273754596710205,0.3892758786678314,0.0112551441416144,0.5075892210006714,0.287163496017456,-0.004182003904134,0.4948141574859619,0.2149979770183563,-0.0183913316577672,0.4892887771129608,0.1550496071577072,-0.028935257345438,0.5394608378410339,0.3878782391548157,-0.0042869234457612,0.5136475563049316,0.2704110145568847,-0.0228102002292871,0.5024577379226685,0.1894376575946808,-0.0384730510413646,0.4981094598770141,0.1190671920776367,-0.0490696653723716,0.5404877662658691,0.3936899602413177,-0.0220813825726509,0.5200591683387756,0.2752289474010467,-0.0405652783811092,0.5100719928741455,0.1960323452949524,-0.0523564703762531,0.5066288709640503,0.1297924518585205,-0.0594723634421825,0.5325268507003784,0.4045951068401336,-0.0405254438519477,0.5223140716552734,0.3119992613792419,-0.0535887628793716,0.5168120265007019,0.2513906955718994,-0.0593732520937919,0.5149537324905396,0.1986603587865829,-0.0633540600538253
2023-08-01 15:52:07.293499,27,590,0.7557684779167175,0.515893280506134,-0.3246153891086578,0.2393596321344375,-0.015625,0.9287109375,0.2021484375,0.4977895021438598,0.6190702319145203,1.4836986395039278e-07,0.4509223103523254,0.538230836391449,0.0087941391393542,0.4519529938697815,0.4444908201694488,0.0147638879716396,0.4658280611038208,0.3827968835830688,0.015429163351655,0.4701264798641205,0.3275847434997558,0.0159392058849334,0.4793539643287658,0.3561990857124328,0.0256568770855665,0.4760729670524597,0.2604425251483917,0.0169746223837137,0.4705952405929565,0.1976708173751831,0.0072380839847028,0.4682990312576294,0.144751489162445,-0.0003504501655697,0.5009279251098633,0.3529722094535827,0.0081449225544929,0.4980345964431762,0.2458299100399017,-0.00166747556068,0.4950482249259949,0.1742901802062988,-0.0121679008007049,0.4944987595081329,0.1171946227550506,-0.0188083201646804,0.5188687443733215,0.3664461970329284,-0.0117489350959658,0.5194841027259827,0.2586584091186523,-0.0229240898042917,0.5190179944038391,0.1925234049558639,-0.0286062508821487,0.5201780200004578,0.1366583704948425,-0.0319288037717342,0.5317326188087463,0.3950009644031524,-0.0322555787861347,0.5314483642578125,0.3096777200698852,-0.040387962013483,0.5315775871276855,0.2547294497489929,-0.0401024334132671,0.5324605107307434,0.2072442471981048,-0.0394067615270614
2023-08-01 15:52:07.353939,28,591,0.7472859025001526,0.5143401622772217,-0.3639968037605285,0.2110078781843185,0.1650390625,0.90625,0.37255859375,0.4927224516868591,0.6266974210739136,1.591971283687599e-07,0.442216545343399,0.5506157279014587,0.0025318213738501,0.4391900300979614,0.4496879279613495,0.0070152534171938,0.4519362449645996,0.3809594213962555,0.0064524547196924,0.4536348283290863,0.3220018744468689,0.0065165483392775,0.46770840883255,0.3606151640415191,0.0275676343590021,0.4651979506015777,0.2669811248779297,0.0189100261777639,0.4599151611328125,0.2081702202558517,0.0071010985411703,0.4565244019031524,0.1553460657596588,-0.0027885725721716,0.4906321167945862,0.3522256016731262,0.0127014797180891,0.4894418716430664,0.2465127557516098,0.0033777016215026,0.4864046573638916,0.1756039708852768,-0.0091936942189931,0.4834237396717071,0.1141102313995361,-0.0183854363858699,0.5115863084793091,0.3614130914211273,-0.0057541951537132,0.5156342387199402,0.2536463737487793,-0.0152770308777689,0.5165268778800964,0.1875916570425033,-0.0233238600194454,0.5158379077911377,0.1320123672485351,-0.0293314903974533,0.5305763483047485,0.3853716850280761,-0.0259565040469169,0.5337562561035156,0.3019170463085174,-0.0328621715307235,0.5355151295661926,0.2445801198482513,-0.0355163216590881,0.5363228917121887,0.1954454034566879,-0.0380341410636901
2023-08-01 15:52:07.417112,29,592,0.7444402575492859,0.5129836797714233,-0.380292534828186,0.1950229406356811,0.10986328125,0.91162109375,0.490234375,0.4866658747196197,0.6300061941146851,2.054043193311373e-07,0.4310940206050873,0.5646184682846069,-0.0069640497677028,0.4173126816749573,0.4643745422363281,-0.0057556456886231,0.4268114268779754,0.3879086673259735,-0.0082830535247921,0.4302391409873962,0.3272619843482971,-0.0100648421794176,0.4516775608062744,0.3628836274147033,0.0232987944036722,0.450113832950592,0.2714282274246216,0.0137467803433537,0.4485290050506592,0.2147823274135589,-0.0004848986864089,0.4492542743682861,0.1618599444627761,-0.0125582376495003,0.4796591401100158,0.3517302572727203,0.012527709826827,0.4788168370723724,0.2483123391866684,0.00501603865996,0.4777016937732696,0.1792203187942505,-0.0092197200283408,0.4771991074085235,0.1159117221832275,-0.0209480561316013,0.5058103203773499,0.3598811626434326,-0.0029108298476785,0.5094776153564453,0.2577537894248962,-0.0116443652659654,0.5112661719322205,0.1943480521440506,-0.0219142492860555,0.511400580406189,0.1382116675376892,-0.030713403597474,0.5307328701019287,0.3823553919792175,-0.0210355371236801,0.5343256592750549,0.3012385666370392,-0.0293809343129396,0.5370110869407654,0.2464876025915146,-0.0340148620307445,0.5384721755981445,0.1971926838159561,-0.0383945889770984
2023-08-01 15:52:07.483036,30,593,0.7434765696525574,0.5132216215133667,-0.3850905001163482,0.1885510385036468,0.14794921875,0.9111328125,0.400390625,0.4835018813610077,0.6355519890785217,1.786122254543443e-07,0.4215506911277771,0.5754746794700623,-0.0095422081649303,0.3961068391799927,0.4696109294891357,-0.0041757165454328,0.3991308212280273,0.3862286508083343,-0.0016032059211283,0.3914534747600555,0.3274502158164978,0.0023036224301904,0.4285026788711548,0.3711955547332763,0.0291403271257877,0.4222711324691772,0.2829777300357818,0.0223702192306518,0.4219234585762024,0.229553610086441,0.008549490943551,0.423212468624115,0.1777597367763519,-0.003794390708208,0.4627828299999237,0.3567627370357513,0.0211037639528512,0.4571058452129364,0.2530654072761535,0.0175150353461503,0.4543457627296448,0.1869272887706756,0.0046918191947042,0.451013445854187,0.1255491375923156,-0.0066189654171466,0.494207501411438,0.3642465472221374,0.0075557176023721,0.4938600361347198,0.2631248235702514,0.001382659538649,0.4930524826049804,0.2024203091859817,-0.007480523083359,0.4909082353115082,0.1493450105190277,-0.0159443169832229,0.5283211469650269,0.3874144554138183,-0.0091281291097402,0.5281504392623901,0.3096129298210144,-0.0156221780925989,0.5279640555381775,0.2596787810325622,-0.0188493188470602,0.5271499156951904,0.2129182070493698,-0.0228073075413703
2023-08-01 15:52:07.540064,31,594,0.7424289584159851,0.512681782245636,-0.3892829120159149,0.1855138391256332,0.07177734375,0.9296875,0.31591796875,0.4884504377841949,0.6407864093780518,1.890794720793565e-07,0.4243484735488891,0.5853393077850342,-0.0110817765817046,0.396693617105484,0.4767096042633056,-0.0058455755934119,0.4014137089252472,0.3874651193618774,-0.0028693950735032,0.3896603584289551,0.3271934390068054,0.0011646558996289,0.4284570813179016,0.3765679895877838,0.0279750395566225,0.4204525351524353,0.2873277366161346,0.0193703658878803,0.4210008084774017,0.2304656654596328,0.0038118658121675,0.4237253963947296,0.1765176653861999,-0.0097716944292187,0.465473473072052,0.3613148927688598,0.0206960793584585,0.4583453238010406,0.2579513192176819,0.0149769484996795,0.4570507109165191,0.1917932033538818,-0.0006578214233741,0.4550817906856537,0.1287667155265808,-0.0140818255022168,0.4977902173995971,0.368573248386383,0.0078467363491654,0.4962440729141235,0.2703545987606048,-0.0008942224667407,0.4955377280712127,0.2100625783205032,-0.0117868138477206,0.4934688210487366,0.1562299132347107,-0.021549267694354,0.5334833860397339,0.3912073969841003,-0.0080644572153687,0.5328841209411621,0.3135691285133362,-0.0162897128611803,0.5325504541397095,0.2636390924453735,-0.0207426995038986,0.5304673910140991,0.2150531411170959,-0.0257041733711957
2023-08-01 15:52:07.605192,32,595,0.7409372329711914,0.511865496635437,-0.3943260908126831,0.1830647587776184,0.087890625,0.935546875,0.31591796875,0.4906635284423828,0.6471231579780579,2.0545593315546284e-07,0.4271987974643707,0.5888062715530396,-0.0105762975290417,0.3998304903507232,0.4780665636062622,-0.0048740180209279,0.4029969573020935,0.3887248933315277,-0.001556705799885,0.3892594575881958,0.3263170123100281,0.0028709082398563,0.4314468204975128,0.3770523369312286,0.0292891152203083,0.4222458004951477,0.2868322730064392,0.0208947602659463,0.4220099747180938,0.2289216667413711,0.005345962010324,0.4243938326835632,0.173121303319931,-0.0084192836657166,0.4683747887611389,0.3617305755615234,0.0214578658342361,0.4602914750576019,0.2584530711174011,0.0159033983945846,0.4588605463504791,0.1910437494516372,-0.0003672646998893,0.4565305709838867,0.1256462931632995,-0.0143693862482905,0.5007492303848267,0.3698969781398773,0.0080017112195491,0.4991206526756286,0.2722079753875732,-0.0009613874717615,0.4987778067588806,0.211337611079216,-0.0129044968634843,0.4964326322078705,0.155560702085495,-0.0234660841524601,0.5365644097328186,0.3935865759849548,-0.0084517607465386,0.5356727242469788,0.3153801262378692,-0.017449140548706,0.5354739427566528,0.2652168869972229,-0.0228919368237257,0.5331451296806335,0.2152793109416961,-0.0285642463713884
2023-08-01 15:52:07.667955,33,596,0.7391465306282043,0.5106595158576965,-0.3996056616306305,0.1822214424610138,0.10693359375,0.90283203125,0.45361328125,0.495853453874588,0.6486722230911255,2.312038418494922e-07,0.4317121803760528,0.5902896523475647,-0.0124712921679019,0.4033223390579223,0.4821815490722656,-0.0071225254796445,0.4061017632484436,0.3927130401134491,-0.0036782808601856,0.3896888792514801,0.3317622542381286,0.0016544132959097,0.4319994449615478,0.3777430355548858,0.0308257471770048,0.4209674596786499,0.2868680357933044,0.02319579385221,0.4208237528800964,0.2307422310113906,0.0080852909013628,0.4232614636421203,0.1775427311658859,-0.0046771699562668,0.4689736664295196,0.361831933259964,0.0249641314148902,0.4598278999328613,0.2565829157829284,0.0216189865022897,0.4579722583293915,0.1896655857563018,0.0076891519129276,0.4554980099201202,0.1268114447593689,-0.0041985101997852,0.5015959143638611,0.3685448765754699,0.0130897182971239,0.4986518025398254,0.2698667347431183,0.0074289878830313,0.497436374425888,0.2101379185914993,-0.0008059054962359,0.4952791333198547,0.1572911441326141,-0.0085694994777441,0.5386451482772827,0.3905324339866638,-0.002324488479644,0.5369012355804443,0.3133285343647003,-0.0066774417646229,0.5351707339286804,0.2652317881584167,-0.0079432167112827,0.5319350957870483,0.2191537320613861,-0.01045897975564
2023-08-01 15:52:07.734457,34,597,0.7382278442382812,0.5105177164077759,-0.4013718664646148,0.1824608743190765,0.12890625,0.9033203125,0.42138671875,0.4957586824893951,0.6481053829193115,2.330864390387433e-07,0.4320218563079834,0.5900524258613586,-0.0131919048726558,0.4028550088405609,0.4823645055294037,-0.0091740852221846,0.4037518501281738,0.3931147456169128,-0.0070574870333075,0.3867373466491699,0.3313001692295074,-0.0032759869936853,0.4311828315258026,0.3775722682476043,0.0274262707680463,0.4196972250938415,0.2870211005210876,0.0178047940135002,0.4195664227008819,0.2312147766351699,0.0017581457505002,0.4218088984489441,0.1786037385463714,-0.0113642606884241,0.467992752790451,0.3620028793811798,0.0215521920472383,0.4587168991565704,0.2571245729923248,0.0167682711035013,0.456185519695282,0.1908732950687408,0.0027569525409489,0.4531886279582977,0.1284871995449066,-0.009138599038124,0.5009493231773376,0.3686290383338928,0.009670621715486,0.4979923367500305,0.2695556581020355,0.0031769729685038,0.4965861141681671,0.2108575254678726,-0.0045453980565071,0.4939811527729034,0.1588009595870971,-0.0119166281074285,0.5376967191696167,0.3903059065341949,-0.0058407979086041,0.536237359046936,0.3138551115989685,-0.0104189831763505,0.5345568060874939,0.2667515873908996,-0.011443929746747,0.5312283039093018,0.2222738116979599,-0.013801859691739
2023-08-01 15:52:07.791289,35,598,0.7375748157501221,0.5106488466262817,-0.4023876190185547,0.1824975460767746,0.109375,0.9296875,0.34423828125,0.4960506558418274,0.6484744548797607,2.263938370106189e-07,0.4318950772285461,0.5886139869689941,-0.0129927266389131,0.4020343422889709,0.4808846414089203,-0.0080301221460103,0.4018587172031402,0.3914538621902466,-0.0049106511287391,0.3835601508617401,0.331118643283844,0.0001225892046932,0.4294845461845398,0.3782217800617218,0.0304853320121765,0.4175819754600525,0.288281500339508,0.0220985691994428,0.4163741171360016,0.2332684099674224,0.0062743560411036,0.416958212852478,0.1810626834630966,-0.0066574309021234,0.4668239653110504,0.3624041974544525,0.0252097342163324,0.4575120806694031,0.258540391921997,0.0223310906440019,0.4544211328029632,0.1927249431610107,0.0087881945073604,0.4504945874214172,0.1305707991123199,-0.0029616032261401,0.5001221895217896,0.3685813546180725,0.0138174593448638,0.4968138933181762,0.2713812589645386,0.0094401696696877,0.4949175715446472,0.213003471493721,0.0025447255466133,0.4920696318149566,0.1619948446750641,-0.0044607757590711,0.5374560356140137,0.3896737992763519,-0.0013355578994378,0.5347422361373901,0.313386857509613,-0.003628950798884,0.532021701335907,0.2666279971599579,-0.0032413112930953,0.5281043648719788,0.2227981984615326,-0.004714882466942
2023-08-01 15:52:07.849107,36,599,0.7374361753463745,0.5103212594985962,-0.4031077325344085,0.1823852509260177,0.1416015625,0.90966796875,0.37451171875,0.4971776306629181,0.6468105316162109,2.303811612591744e-07,0.4336177408695221,0.5895549654960632,-0.0135687151923775,0.4015299081802368,0.4827994108200073,-0.0090390751138329,0.3993470966815948,0.3938392102718353,-0.0062393015250563,0.3800633251667022,0.3354744613170624,-0.0013961150543764,0.4249144792556762,0.3804162740707397,0.0294974856078624,0.411882996559143,0.2921591103076935,0.0205720476806163,0.4106315970420837,0.2379164844751358,0.0046396870166063,0.4111641943454742,0.1865541487932205,-0.0083365039899945,0.4623967707157135,0.3636715412139892,0.0243780333548784,0.4522015452384949,0.2604889571666717,0.0208629127591848,0.449235051870346,0.1953659951686859,0.0075322994962334,0.4452897906303406,0.1350074708461761,-0.004007872659713,0.4959205389022827,0.3689088225364685,0.0130505375564098,0.4908626973628998,0.2728455364704132,0.0076339477673172,0.4880015850067138,0.2151574492454528,0.0004994820337742,0.4844062328338623,0.1655769199132919,-0.0064716930501163,0.5338472127914429,0.3881679475307464,-0.0020157545804977,0.5306450128555298,0.312930166721344,-0.0054294816218316,0.5275601744651794,0.2670113444328308,-0.0056570791639387,0.5235183238983154,0.2243785709142685,-0.0074715414084494
2023-08-01 15:52:07.915895,37,600,0.7380179166793823,0.5109243988990784,-0.4002738296985626,0.1845715939998626,0.1318359375,0.92724609375,0.37109375,0.4968625605106354,0.648891806602478,2.2743689953586e-07,0.4323899745941162,0.5936952233314514,-0.0137433158233761,0.4007448554039001,0.4865588545799255,-0.0095828790217638,0.4004725217819214,0.3968919813632965,-0.0071130897849798,0.3815713226795196,0.3367621004581451,-0.0028652551118284,0.4264516830444336,0.3819468319416046,0.0267818439751863,0.4120787978172302,0.2926694750785827,0.017052486538887,0.4102250337600708,0.2371280044317245,0.0011268345406278,0.4111344218254089,0.1849490106105804,-0.0117008537054061,0.4632813930511474,0.364966481924057,0.0215281825512647,0.4512597322463989,0.2619759440422058,0.0169864650815725,0.4471315443515777,0.196652665734291,0.0033691716380417,0.4429226219654083,0.1357970237731933,-0.0080825760960578,0.4968214631080627,0.3700872361660003,0.0102522633969783,0.4913228452205658,0.2732861638069153,0.0041732667014002,0.488666832447052,0.2160185575485229,-0.0029945538844913,0.4851238131523132,0.1654855012893676,-0.0098476586863398,0.5342397689819336,0.3899928629398346,-0.0047282981686294,0.5312814116477966,0.3147875964641571,-0.0089276181533932,0.5285587310791016,0.2687191963195801,-0.0096125165000557,0.5242375731468201,0.2252144664525985,-0.0115482881665229
2023-08-01 15:52:07.974662,38,601,0.7449718713760376,0.5097352266311646,-0.3814156353473663,0.1992712765932083,0.3125,0.92626953125,0.4072265625,0.4972546696662903,0.6499276161193848,2.3489612033245066e-07,0.4338511824607849,0.5917974710464478,-0.012979825027287,0.4019425511360168,0.4846450686454773,-0.0084547419100999,0.3998909592628479,0.395623117685318,-0.005774809513241,0.3805947303771972,0.336160272359848,-0.0011551998322829,0.4263991415500641,0.3811302781105041,0.0285565629601478,0.4124951064586639,0.2919105887413025,0.0195885803550481,0.4104006886482239,0.2363921552896499,0.0039962078444659,0.4105982184410095,0.1835413426160812,-0.0086319707334041,0.4627100527286529,0.3649207055568695,0.0232768487185239,0.4507595002651214,0.2627846002578735,0.0196648985147476,0.4464182257652282,0.1980182528495788,0.006632181815803,0.4417014718055725,0.1371161937713623,-0.0043657505884766,0.496399313211441,0.3704867959022522,0.0120216282084584,0.4906369149684906,0.2737376689910888,0.0069563211873173,0.4882758259773254,0.2172272652387619,0.0006100747268646,0.4846650958061218,0.1677459478378296,-0.0055550076067447,0.5338191390037537,0.3904477953910827,-0.002948043635115,0.5305051803588867,0.3147044479846954,-0.0060148173943161,0.5279664993286133,0.2687268257141113,-0.0057706856168806,0.5240738987922668,0.2260989546775818,-0.0069371508434414
2023-08-01 15:52:08.021837,39,602,0.7671805024147034,0.5024339556694031,-0.3173808157444,0.2413786798715591,0.10791015625,0.935546875,0.37353515625,0.4970856308937073,0.6490200757980347,2.3234878199218659e-07,0.434093028306961,0.5932717323303223,-0.0130491955205798,0.4026106297969818,0.4850176870822906,-0.0082438765093684,0.4008358120918274,0.3949768543243408,-0.0052369013428688,0.381389707326889,0.3344567418098449,-0.000341748149367,0.4263119101524353,0.3820808529853821,0.0284834615886211,0.4127009510993957,0.2922531366348266,0.0199733432382345,0.4108482301235199,0.2366906851530075,0.0049971612170338,0.4114804863929748,0.1843951642513275,-0.0073012863285839,0.4627643823623657,0.3653010129928589,0.0232758559286594,0.4510400891304016,0.2624515891075134,0.0197422113269567,0.4467685520648956,0.1976295113563537,0.0068533793091773,0.442076563835144,0.1371092796325683,-0.0041370228864252,0.4963318109512329,0.3703884780406952,0.0120892403647303,0.4910064041614532,0.2731062173843384,0.0068601407110691,0.4886235296726227,0.2159380167722702,0.0001519688230473,0.484876424074173,0.1658116579055786,-0.0064982119947671,0.533409595489502,0.3896456956863403,-0.0027527133934199,0.5304037928581238,0.3145269155502319,-0.0063000572845339,0.5280572175979614,0.2685590088367462,-0.0066314255818724,0.5241591930389404,0.2255233228206634,-0.0084047121927142
