Timestamp,Index,Frame ID,w,x,y,z,ax,ay,az,x_0,y_0,z_0,x_1,y_1,z_1,x_2,y_2,z_2,x_3,y_3,z_3,x_4,y_4,z_4,x_5,y_5,z_5,x_6,y_6,z_6,x_7,y_7,z_7,x_8,y_8,z_8,x_9,y_9,z_9,x_10,y_10,z_10,x_11,y_11,z_11,x_12,y_12,z_12,x_13,y_13,z_13,x_14,y_14,z_14,x_15,y_15,z_15,x_16,y_16,z_16,x_17,y_17,z_17,x_18,y_18,z_18,x_19,y_19,z_19,x_20,y_20,z_20
2023-08-01 15:51:53.578272,0,344,0.7544845938682556,0.510370671749115,-0.3769823312759399,0.1678068190813064,0.14697265625,0.91064453125,0.4755859375,0.5024129152297974,0.6903436183929443,2.744263838394545e-07,0.4327220320701599,0.6359356641769409,-0.0124813420698046,0.3942938148975372,0.5255547165870667,-0.0079007027670741,0.3873680830001831,0.4315483272075653,-0.005897638387978,0.3636775612831116,0.3702014684677124,-0.0022313420195132,0.4192256033420563,0.3973532915115356,0.0330134741961956,0.4048607051372528,0.3001522421836853,0.0243899319320917,0.402454137802124,0.2382404506206512,0.0076824575662612,0.4033888280391693,0.1792198717594146,-0.0064940056763589,0.4571932852268219,0.3781572878360748,0.0255719870328903,0.4433762729167938,0.267619252204895,0.0217643789947032,0.4385152161121368,0.1968886852264404,0.007136458531022,0.4334890842437744,0.130136638879776,-0.0056418692693114,0.4920363128185272,0.383791446685791,0.0117322513833642,0.4847405552864074,0.2796041667461395,0.0059597045183181,0.4813161492347717,0.2178301364183426,-0.0019934044685214,0.4769127666950226,0.1627336740493774,-0.0100090848281979,0.5308720469474792,0.4060805439949035,-0.0060121156275272,0.5264319181442261,0.3238976597785949,-0.010548735037446,0.5234081745147705,0.2737500965595245,-0.0116463927552104,0.519035816192627,0.2251230478286743,-0.0142756476998329
2023-08-01 15:51:53.632431,1,345,0.7637439966201782,0.5106267929077148,-0.3465957045555115,0.1892794519662857,0.076171875,0.93359375,0.46630859375,0.5067398548126221,0.6941357851028442,2.690940164029598e-07,0.4358827769756317,0.6352381706237793,-0.0119294747710227,0.3985919952392578,0.5223201513290405,-0.0065217437222599,0.3939332365989685,0.4283607304096222,-0.0042950920760631,0.372467041015625,0.3688099980354309,-0.0006627348484471,0.4221298396587372,0.4018415212631225,0.0358630195260047,0.4086495637893677,0.3064747452735901,0.0258550848811864,0.4075577855110168,0.2442220598459243,0.0072559192776679,0.4096668064594269,0.1842132806777954,-0.0083687510341405,0.460038959980011,0.3821942806243896,0.027445264160633,0.4466227889060974,0.2723293006420135,0.0216705780476331,0.4420230686664581,0.2005309909582138,0.0045356745831668,0.4372681677341461,0.1315903663635254,-0.0099923368543386,0.4953454732894897,0.3874181807041168,0.012326730415225,0.4886752367019653,0.2811303734779358,0.0039843237027525,0.4855970442295074,0.2194744646549224,-0.0063802474178373,0.4816990196704864,0.1645622551441192,-0.0155960721895098,0.5345662236213684,0.4094765186309814,-0.0065802922472357,0.5295940637588501,0.3243728876113891,-0.0131953004747629,0.527064323425293,0.2727771997451782,-0.0157344210892915,0.5230955481529236,0.2228168696165084,-0.0192911699414253
2023-08-01 15:51:53.691099,2,346,0.7823202610015869,0.5044409036636353,-0.2780808508396148,0.2370347678661346,0.05224609375,0.95947265625,0.17333984375,0.5030514001846313,0.6947652697563171,2.703065433706797e-07,0.4341014623641968,0.6380906105041504,-0.0120475823059678,0.3988128304481506,0.5246173739433289,-0.006781677249819,0.3943890631198883,0.4304835200309753,-0.0043306103907525,0.3717058897018432,0.3704767823219299,-0.0004484966048039,0.4239619076251983,0.4005733132362366,0.034302283078432,0.4109596014022827,0.3036642372608185,0.0259244795888662,0.4085860848426819,0.2421279996633529,0.0090109528973698,0.4096240401268005,0.1830988228321075,-0.0054923500865697,0.4614891409873962,0.3824397921562195,0.026365915313363,0.4486973285675049,0.271772027015686,0.0221440475434064,0.444146066904068,0.20085409283638,0.0063714422285556,0.4395554363727569,0.1336894929409027,-0.0072645549662411,0.4963642060756683,0.3892044126987457,0.0119745740666985,0.48996701836586,0.2834237813949585,0.0049756756052374,0.4871547818183899,0.2209470421075821,-0.0048610176891088,0.4834029674530029,0.1649659574031829,-0.0140008050948381,0.5355806350708008,0.4122124016284942,-0.0061443345621228,0.5313544869422913,0.3268351852893829,-0.0120397200807929,0.528861403465271,0.2747300267219543,-0.0145467370748519,0.5248659253120422,0.2237962037324905,-0.0182111728936433
2023-08-01 15:51:53.742018,3,347,0.7950111627578735,0.4966473281383514,-0.2076674550771713,0.2795940041542053,0.09326171875,0.90380859375,0.43505859375,0.5037400722503662,0.6957817673683167,2.536307022182882e-07,0.4345906376838684,0.6373474597930908,-0.0098806889727711,0.400196373462677,0.5243933796882629,-0.0042557632550597,0.3967665135860443,0.4304539263248443,-0.0020548345055431,0.3751844465732574,0.3695244193077087,0.0014283591881394,0.4253332316875458,0.4006308317184448,0.036566212773323,0.4128825068473816,0.3055747747421264,0.028011992573738,0.4117826819419861,0.2442799061536789,0.0107349129393696,0.4141045808792114,0.1850100457668304,-0.0041816947050392,0.4624888896942138,0.381744772195816,0.0274050794541835,0.4503238499164581,0.2722648978233337,0.0230790805071592,0.4464283585548401,0.2020247876644134,0.0072417110204696,0.4422881007194519,0.1349110007286071,-0.0065949941053986,0.4972888529300689,0.3877326250076294,0.0118923410773277,0.4912838339805603,0.2826486229896545,0.0049613686278462,0.4887926578521728,0.2214768826961517,-0.0045856982469558,0.4848138391971588,0.1664322614669799,-0.0136758182197809,0.535683274269104,0.4100016355514526,-0.0072434269823133,0.5323429107666016,0.3259726166725158,-0.0131933987140655,0.5305392146110535,0.2749837338924408,-0.0156516712158918,0.5269566178321838,0.2250008732080459,-0.0193487908691167
2023-08-01 15:51:53.801052,4,348,0.8038735389709473,0.4760826230049133,-0.0925976559519767,0.3443231284618377,-0.17822265625,0.93798828125,0.1435546875,0.4998853504657745,0.6911191344261169,2.504873464204138e-07,0.4331640303134918,0.6322908401489258,-0.0094800619408488,0.4014912843704223,0.5163927674293518,-0.0035218193661421,0.398059606552124,0.4226502776145935,-0.0011414814507588,0.3757722079753876,0.3643386960029602,0.0020605167374014,0.427933931350708,0.3976179659366607,0.0344359166920185,0.4167287349700928,0.3021057844161987,0.0259404350072145,0.4145625233650207,0.2407830357551574,0.0094125233590602,0.4158892929553985,0.1818976700305938,-0.005105379037559,0.4636811017990112,0.3794438242912292,0.0251096002757549,0.452547162771225,0.2698387503623962,0.0199911054223775,0.448705106973648,0.1984931081533432,0.0038467259146273,0.4448751211166382,0.1306363344192505,-0.0101796668022871,0.4979506433010101,0.3858778476715088,0.0096650514751672,0.4936719834804535,0.2799375653266907,0.0015330224996432,0.4922181963920593,0.2171727120876312,-0.0099867917597293,0.488198310136795,0.1604001820087433,-0.0204278398305177,0.5346915125846863,0.4083929359912872,-0.0091582415625453,0.5334686040878296,0.325391411781311,-0.0167997814714908,0.5321152806282043,0.2733587622642517,-0.0215692836791276,0.5283542275428772,0.2224963158369064,-0.0270297657698392
2023-08-01 15:51:53.853656,5,349,0.8006941080093384,0.4505572319030761,0.0040135565213859,0.3948050439357757,-0.1982421875,0.9443359375,-0.00341796875,0.4994880557060241,0.6793331503868103,1.9963232489317306e-07,0.4382638335227966,0.6002628803253174,0.0093279927968978,0.426385760307312,0.4856843650341034,0.0199832189828157,0.4352506399154663,0.4057360291481018,0.0231309924274683,0.4343191087245941,0.3552787601947784,0.0255172029137611,0.4602440595626831,0.3770894408226013,0.0462947040796279,0.4573381543159485,0.2823302149772644,0.0426507703959941,0.453393816947937,0.2218576073646545,0.0318632014095783,0.4525490403175354,0.1660515069961547,0.0214975532144308,0.485429048538208,0.3657833933830261,0.0267557259649038,0.4837435185909271,0.2542366087436676,0.0236492566764354,0.4822209477424621,0.1806566417217254,0.0118539985269308,0.4815343022346496,0.1145053803920745,0.0018118858570232,0.5100800395011902,0.3764516711235046,0.0028138977941125,0.5167808532714844,0.2668127417564392,-0.0032201674766838,0.5210772156715393,0.1993102431297302,-0.0118857398629188,0.5225619673728943,0.1397143006324768,-0.0202849097549915,0.5341609120368958,0.4015582799911499,-0.0228986963629722,0.539020299911499,0.3135864734649658,-0.0295096859335899,0.5428429245948792,0.2580009996891022,-0.0326359868049621,0.5448324680328369,0.206566497683525,-0.0367919132113456
2023-08-01 15:51:53.911399,6,350,0.789325475692749,0.4161489307880401,0.1016044989228248,0.4398429989814758,-0.078125,0.91796875,0.16015625,0.5075985789299011,0.6737942695617676,1.7072098046355677e-07,0.4482501745223999,0.5812461376190186,0.0128371967002749,0.4425145983695984,0.4665943682193756,0.0236889217048883,0.4526942670345306,0.3901474475860595,0.0260682292282581,0.4522337913513183,0.3358789682388305,0.0276268348097801,0.4734297096729278,0.3760140240192413,0.0479689985513687,0.4729706048965454,0.273387998342514,0.0430256761610507,0.4706642627716064,0.2097150683403015,0.0321219302713871,0.4701572060585022,0.1519712209701538,0.0218016617000103,0.4972409009933471,0.3683693706989288,0.0256637502461671,0.4976561963558197,0.2544564008712768,0.0202772673219442,0.4962888956069946,0.1802795082330703,0.00697977328673,0.4948217272758484,0.1134833395481109,-0.0041545494459569,0.5188863277435303,0.3797414302825928,-0.0007860633777454,0.5245344638824463,0.265717089176178,-0.0083782011643052,0.5265368819236755,0.1971459835767746,-0.0170612521469593,0.5279982089996338,0.1374327540397644,-0.0253501459956169,0.5374480485916138,0.4039436280727386,-0.02873638831079,0.5387486219406128,0.3124824166297912,-0.0363928973674774,0.5420456528663635,0.2516002953052521,-0.0397777371108531,0.5458270311355591,0.1962445229291916,-0.0442324727773666
2023-08-01 15:51:53.970657,7,351,0.7678870558738708,0.3759371638298034,0.2022601068019867,0.477610319852829,-0.3408203125,0.94921875,0.00341796875,0.5113566517829895,0.6735086441040039,2.922816406680795e-07,0.4576414823532104,0.571491539478302,0.0044952174648642,0.4579610824584961,0.4625214636325836,0.005647144280374,0.4709379971027374,0.3933432400226593,0.0005342955701053,0.4745949804782867,0.3360081315040588,-0.0052058440633118,0.4965914785861969,0.3779265880584717,0.0201185140758752,0.4978707134723663,0.2738977074623108,0.0041038868948817,0.4951280951499939,0.205296516418457,-0.0118807293474674,0.4953053295612335,0.14532271027565,-0.0242576114833354,0.5182123780250549,0.3820008933544159,5.83490364078898e-05,0.5176388621330261,0.2622487545013428,-0.0160454604774713,0.5170947313308716,0.1817544996738433,-0.0330229774117469,0.5191322565078735,0.1105252802371978,-0.045626126229763,0.5338882803916931,0.4041287004947662,-0.0233174916356802,0.5315241813659668,0.2902255654335022,-0.0395531803369522,0.531699538230896,0.2178097665309906,-0.0511367134749889,0.5351855754852295,0.1570624709129333,-0.0598118379712104,0.5409435629844666,0.4399023652076721,-0.0480549968779087,0.5284361243247986,0.3605967164039612,-0.0595676451921463,0.5203405022621155,0.3072829246520996,-0.063601978123188,0.5157212018966675,0.2633250951766968,-0.0676145404577255
2023-08-01 15:51:54.021089,8,352,0.7407695651054382,0.3352331221103668,0.2917842268943786,0.5037271976470947,-0.24951171875,0.904296875,-0.1005859375,0.5250325798988342,0.6625363230705261,3.467295073278365e-07,0.4707017540931701,0.565602719783783,-0.0048202099278569,0.4745124280452728,0.4703852832317352,-0.0121112493798136,0.4910438954830169,0.3987562656402588,-0.0221958588808774,0.4947516918182373,0.3381514549255371,-0.0325019545853138,0.5292397141456604,0.3870799839496612,-0.0057590901851654,0.5228795409202576,0.2720001339912414,-0.0267774704843759,0.518442690372467,0.1975780874490738,-0.0442548170685768,0.5201600790023804,0.1358070969581604,-0.0564808398485183,0.5468719005584717,0.3929949998855591,-0.0190988667309284,0.5308321714401245,0.2652203440666199,-0.0388398729264736,0.5274065732955933,0.180332601070404,-0.0554941184818744,0.5305688381195068,0.1100626289844513,-0.0674819201231002,0.553169846534729,0.4161663949489593,-0.0345467142760753,0.5381933450698853,0.297821581363678,-0.0528725609183311,0.5355545878410339,0.2217878103256225,-0.0651168152689933,0.5393940806388855,0.1598191559314727,-0.0744459256529808,0.5471237897872925,0.4505097568035126,-0.0512674711644649,0.5290887951850891,0.3800221383571625,-0.0663395226001739,0.5177736878395081,0.3297383785247803,-0.0729279965162277,0.5112128257751465,0.2848328351974487,-0.0780655741691589
2023-08-01 15:51:54.084231,9,353,0.7091589570045471,0.2902050912380218,0.3730902969837188,0.5231426358222961,-0.162109375,0.8798828125,-0.1005859375,0.5556524991989136,0.6354241371154785,4.763692018627808e-08,0.5867915749549866,0.5318401455879211,0.0413192249834537,0.5936786532402039,0.4475935995578766,0.0520754419267177,0.5828805565834045,0.3858416676521301,0.0523854903876781,0.5624498128890991,0.3433517813682556,0.0479155294597148,0.6068688035011292,0.3858155608177185,0.0196252632886171,0.5727867484092712,0.2771728038787842,0.0089582903310656,0.546066164970398,0.2197084277868271,0.0013924065278843,0.5271391272544861,0.1731876283884048,-0.0043839169666171,0.5872603058815002,0.3816158771514892,-0.0124168116599321,0.5679928064346313,0.2406319230794906,-0.02475256472826,0.5598869919776917,0.1557911932468414,-0.0316689610481262,0.5543266534805298,0.0827047228813171,-0.0375211611390113,0.5540401935577393,0.3897874057292938,-0.0417546369135379,0.5456914901733398,0.2449747920036316,-0.0534521117806434,0.5421217679977417,0.1646122932434082,-0.0606452152132988,0.5437635183334351,0.0959729552268982,-0.0671771019697189,0.5121999382972717,0.4066406786441803,-0.0670685842633247,0.5136857628822327,0.2983698546886444,-0.0796790346503257,0.5184342861175537,0.2338926494121551,-0.0836997628211975,0.5244556069374084,0.1764664500951767,-0.0872011259198188
2023-08-01 15:51:54.157933,10,354,0.6695133447647095,0.2368860393762588,0.4578542709350586,0.5347955226898193,0.03955078125,0.8681640625,-0.06005859375,0.5586719512939453,0.6220993995666504,-4.943569464899157e-08,0.596210241317749,0.5226198434829712,0.039848655462265,0.6048821210861206,0.4372180700302124,0.048606127500534,0.5855541229248047,0.3644633293151855,0.0475181564688682,0.5536677241325378,0.3240103721618652,0.0411288738250732,0.6217072010040283,0.3848524987697601,0.0159754827618598,0.5764696002006531,0.2764573395252228,0.0029030700679868,0.5401878952980042,0.2417821437120437,-0.0068663619458675,0.5165398120880127,0.2232936769723892,-0.0124869728460907,0.59126216173172,0.3753518462181091,-0.0146941822022199,0.5680359601974487,0.2296209186315536,-0.0252634603530168,0.5559802055358887,0.1449297368526458,-0.0298085566610097,0.5493365526199341,0.0765205919742584,-0.0340583771467208,0.5517129302024841,0.3842225968837738,-0.0427280776202678,0.5447642207145691,0.2365822196006775,-0.0531806498765945,0.5403245091438293,0.1599022895097732,-0.0561102107167243,0.5422523617744446,0.098105639219284,-0.0593048222362995,0.5054035186767578,0.4051883220672607,-0.0667700767517089,0.505154013633728,0.293912410736084,-0.0780940502882003,0.5088058710098267,0.230199858546257,-0.0779055953025817,0.5142860412597656,0.172301635146141,-0.0777712687849998
2023-08-01 15:51:54.208900,11,355,0.6476708054542542,0.2154811918735504,0.4958594739437103,0.5368553996086121,-0.48046875,0.8857421875,-0.439453125,0.5622801184654236,0.6178066730499268,-5.0464695533491977e-08,0.6051454544067383,0.5228052735328674,0.0334672667086124,0.6172980070114136,0.4373748004436493,0.0389935076236724,0.596594512462616,0.3648911416530609,0.036187607795,0.560846209526062,0.3260354697704315,0.027581488713622,0.6273322701454163,0.3840146958827972,0.0043474598787724,0.585106372833252,0.2688662707805633,-0.0102540925145149,0.5478363037109375,0.235081061720848,-0.0205405857414007,0.5241227149963379,0.2212321907281875,-0.0268079433590173,0.5907389521598816,0.3743160665035248,-0.0234026368707418,0.5665166974067688,0.2289751917123794,-0.0328566133975982,0.5538301467895508,0.1420318931341171,-0.0384821817278862,0.5478684902191162,0.073925644159317,-0.0447547957301139,0.5475252866744995,0.3840774893760681,-0.0485065542161464,0.5388387441635132,0.2413015067577362,-0.0580335669219493,0.5356679558753967,0.1595920175313949,-0.0640924051403999,0.5389417409896851,0.0949822962284088,-0.0707134306430816,0.50095534324646,0.407210499048233,-0.0698704868555069,0.4986622631549835,0.2982375919818878,-0.0813851803541183,0.500545084476471,0.2358760684728622,-0.0828365460038185,0.5046026706695557,0.1789757460355758,-0.0846682116389274
2023-08-01 15:51:54.258229,12,356,0.630255401134491,0.2029216438531875,0.5224173069000244,0.537290632724762,-0.22314453125,0.9375,-0.37353515625,0.5677433013916016,0.6248228549957275,1.0271170580722357e-08,0.6136742830276489,0.5308670401573181,0.0308906808495521,0.6270397901535034,0.4419444799423218,0.0363045632839202,0.6035319566726685,0.3665788471698761,0.0344399698078632,0.5675632953643799,0.3260925412178039,0.0267139989882707,0.6291419267654419,0.3813781142234802,0.0012771614128723,0.5881571769714355,0.2697568237781524,-0.0129662435501813,0.5528035163879395,0.2249346077442169,-0.0228563789278268,0.5280420184135437,0.1971055269241333,-0.0291891936212778,0.5890118479728699,0.3735872805118561,-0.0249828230589628,0.5650308728218079,0.2289152443408966,-0.0361833199858665,0.5516906380653381,0.1392734199762344,-0.0421337857842445,0.54400634765625,0.0692535936832428,-0.0477577894926071,0.5438103675842285,0.3852652907371521,-0.0484520941972732,0.5341246128082275,0.2439817041158676,-0.0594651140272617,0.5319768190383911,0.1612822264432907,-0.0660902336239814,0.5352644324302673,0.0973594188690185,-0.0723008438944816,0.4971472024917602,0.4114319086074829,-0.0682533308863639,0.4946352839469909,0.303320437669754,-0.0808027684688568,0.4967510402202606,0.2406132370233535,-0.0830541476607322,0.5006061792373657,0.1842421144247055,-0.0848721414804458
2023-08-01 15:51:54.317946,13,357,0.6186316013336182,0.1952365934848785,0.5383965373039246,0.5378724336624146,-0.04833984375,0.8955078125,-0.2099609375,0.569200336933136,0.6279498338699341,2.449700389206555e-07,0.6278764009475708,0.5491801500320435,0.0132409650832414,0.6559858918190002,0.4548691511154175,0.0162011254578828,0.6384363770484924,0.3735536336898803,0.0173896998167037,0.6099352240562439,0.3246968388557434,0.0148072894662618,0.624080240726471,0.3701349794864654,-0.0138049963861703,0.6017143130302429,0.2491725981235504,-0.0243201125413179,0.5864607691764832,0.1813779920339584,-0.0291544776409864,0.5750173330307007,0.1273768246173858,-0.0325759835541248,0.5789807438850403,0.3677652180194855,-0.0297446083277463,0.5614063143730164,0.2213145643472671,-0.0439447835087776,0.5525506138801575,0.1285993754863739,-0.0524425581097602,0.5476014018058777,0.056972712278366,-0.0577751062810421,0.5338819622993469,0.3842871785163879,-0.0428601987659931,0.5245617032051086,0.2434571087360382,-0.0584538169205188,0.5224658846855164,0.1539875864982605,-0.0710049644112587,0.5239786505699158,0.0840054154396057,-0.0790610164403915,0.4905409812927246,0.4173640310764313,-0.0528659932315349,0.4842231273651123,0.3087604641914367,-0.0702952966094017,0.4833882451057434,0.2448324114084243,-0.0777297466993331,0.4850050210952759,0.1875664144754409,-0.0812668725848198
2023-08-01 15:51:54.378892,14,358,0.6128103137016296,0.1852952688932418,0.5480626225471497,0.5382904410362244,-0.23046875,0.9521484375,-0.373046875,0.5702164769172668,0.6365431547164917,2.74677546485691e-07,0.6335561871528625,0.5572003126144409,0.0096913138404488,0.6628499031066895,0.4571175277233124,0.0119315199553966,0.6423289775848389,0.3727234005928039,0.0129623971879482,0.6102266907691956,0.3232616782188415,0.0107120610773563,0.6254235506057739,0.3740686178207397,-0.0140378419309854,0.6063167452812195,0.2508547604084015,-0.0256702620536088,0.5939203500747681,0.1815752983093261,-0.0317276045680046,0.5844720005989075,0.1259796321392059,-0.0358790233731269,0.5780110359191895,0.3712051510810852,-0.0280577074736356,0.5639711022377014,0.22608083486557,-0.0427340120077133,0.5548232793807983,0.132312536239624,-0.0531330145895481,0.5491894483566284,0.0591251850128173,-0.0602675564587116,0.5336962342262268,0.3877337574958801,-0.0396200716495513,0.5268000364303589,0.2497965842485427,-0.0543312095105648,0.5249402523040771,0.160463348031044,-0.0671098977327346,0.5258893966674805,0.0908858180046081,-0.0757567435503006,0.492535263299942,0.4208718538284302,-0.0486810505390167,0.486477792263031,0.3120540380477905,-0.0646345987915992,0.486211210489273,0.2466742247343063,-0.072071187198162,0.4871144592761993,0.1882421523332595,-0.0759531706571579
2023-08-01 15:51:54.426145,15,359,0.6113308668136597,0.1776971518993377,0.5519230365753174,0.538590133190155,-0.1748046875,0.91650390625,-0.248046875,0.5682792067527771,0.6411561369895935,2.7139796543451666e-07,0.636566698551178,0.5672345161437988,0.0095655461773276,0.6650054454803467,0.4639338850975036,0.0130409738048911,0.650780200958252,0.3685750365257263,0.0157861728221178,0.6296018362045288,0.3055162727832794,0.0163129922002553,0.6262375116348267,0.3742892742156982,-0.0116019519045948,0.6072172522544861,0.2492718696594238,-0.0203010495752096,0.594639003276825,0.1814891397953033,-0.0241476371884346,0.5837060213088989,0.128862053155899,-0.0266853589564561,0.5766050815582275,0.37253537774086,-0.0235051363706588,0.5622221827507019,0.2256221622228622,-0.0357167609035968,0.5546361207962036,0.1351367831230163,-0.0428656488656997,0.5495030879974365,0.0658631324768066,-0.0472222454845905,0.5315150618553162,0.3895124495029449,-0.0330499708652496,0.522351861000061,0.2499578148126602,-0.0448224768042564,0.5205164551734924,0.1620680689811706,-0.0537518747150898,0.5209388136863708,0.0935984849929809,-0.059679988771677,0.4906759560108185,0.4233131408691406,-0.0402840562164783,0.4834617078304291,0.312334656715393,-0.0526288039982318,0.4822812676429748,0.2472015172243118,-0.0570588894188404,0.4829718768596649,0.1898439675569534,-0.0586230233311653
2023-08-01 15:51:54.472778,16,360,0.6068340539932251,0.1709663420915603,0.5579861402511597,0.5396057963371277,-0.32373046875,0.92236328125,-0.35302734375,0.5649164319038391,0.6472674608230591,2.6820532639249e-07,0.6348487138748169,0.5730081796646118,0.0105756381526589,0.6635530591011047,0.4685827493667602,0.015430842526257,0.6525096297264099,0.3710446655750274,0.0193390380591154,0.6354254484176636,0.3055506646633148,0.0213350541889667,0.6250091195106506,0.3775656521320343,-0.0079660499468445,0.60671067237854,0.251498818397522,-0.0148123577237129,0.5943495035171509,0.1836104243993759,-0.0175961274653673,0.5836254954338074,0.1305107772350311,-0.0195435713976621,0.5753942728042603,0.3754671514034271,-0.0196424387395381,0.561021625995636,0.2281990945339203,-0.0311372261494398,0.5528081059455872,0.1368470191955566,-0.0381528213620185,0.5471609234809875,0.0660447776317596,-0.0423070564866066,0.5303558111190796,0.3920190632343292,-0.0289347954094409,0.5213117003440857,0.2531104385852813,-0.0401091799139976,0.5190852284431458,0.1663230210542678,-0.0485579706728458,0.5189030170440674,0.0984194278717041,-0.0539557971060276,0.4891392290592193,0.4258311986923218,-0.0358788967132568,0.4818772971630096,0.3151045441627502,-0.0471380203962326,0.4804967641830444,0.2508354783058166,-0.05078936368227,0.481313556432724,0.1943195313215255,-0.0517593920230865
2023-08-01 15:51:54.518286,17,361,0.6061248183250427,0.1691985875368118,0.5589324831962585,0.5399805903434753,-0.22705078125,0.8955078125,-0.3212890625,0.5394482016563416,0.6502687931060791,2.646744690082415e-07,0.6112586855888367,0.5749891400337219,0.0098403040319681,0.6410175561904907,0.4719730317592621,0.0143675403669476,0.6320935487747192,0.3723143935203552,0.0186632014811038,0.6149464845657349,0.3049631118774414,0.0219165123999118,0.5959542989730835,0.381402313709259,-0.0062163053080439,0.5747022032737732,0.2529406547546386,-0.0108202779665589,0.5600444078445435,0.1889130175113678,-0.012439084239304,0.547063946723938,0.1381324529647827,-0.0135950660333037,0.5429147481918335,0.3808242678642273,-0.0155778648331761,0.5285394191741943,0.2344068139791488,-0.0224655233323574,0.5200526714324951,0.1501026600599289,-0.0265205819159746,0.5134645700454712,0.0866579711437225,-0.02914360165596,0.4963945746421814,0.3982196748256683,-0.0227164775133132,0.4875143766403198,0.2599483132362366,-0.0286822821944952,0.4859011471271515,0.1776654422283172,-0.0347578190267086,0.4851587414741516,0.1131903827190399,-0.0398237332701683,0.457669585943222,0.4306810200214386,-0.0277396235615015,0.4530499577522278,0.3271062672138214,-0.0343617685139179,0.4519079327583313,0.2694401144981384,-0.0357315056025981,0.4527302980422973,0.2195676267147064,-0.0358192473649978
2023-08-01 15:51:54.566130,18,362,0.6079665422439575,0.1686893254518509,0.556338906288147,0.5407471656799316,-0.19580078125,0.92919921875,-0.1982421875,0.5365838408470154,0.6523756980895996,2.7563680760067655e-07,0.6088718175888062,0.579079270362854,0.0071419514715671,0.6390528678894043,0.4757686853408813,0.0121654402464628,0.6313592195510864,0.3744819164276123,0.0170887019485235,0.6193710565567017,0.3017662763595581,0.0212309192866086,0.5905681252479553,0.3804898560047149,-0.0015317000215873,0.5700708031654358,0.2571153044700622,-0.0042801825329661,0.5563527345657349,0.1940278559923172,-0.0058351289480924,0.5448510050773621,0.1417672932147979,-0.0076240422204136,0.5372577905654907,0.3790484070777893,-0.009541287086904,0.5202497839927673,0.2390037328004837,-0.0159541144967079,0.510450005531311,0.1537245064973831,-0.0210676398128271,0.5042036175727844,0.0864530801773071,-0.0246829167008399,0.4908523559570312,0.3975023329257965,-0.0159747954457998,0.4805265665054321,0.2637781798839569,-0.0231305547058582,0.4790138006210327,0.1816066950559616,-0.0297715384513139,0.478568971157074,0.1153931617736816,-0.0347876213490963,0.4522734880447387,0.4319311082363128,-0.0205865111202001,0.4447163939476013,0.3260776698589325,-0.0283853914588689,0.442873477935791,0.2665886878967285,-0.0301566440612077,0.4438855051994324,0.213316723704338,-0.0303624253720045
2023-08-01 15:51:54.615826,19,363,0.6107866168022156,0.169772133231163,0.5534335970878601,0.5402114391326904,-0.18701171875,0.9033203125,-0.29052734375,0.530237078666687,0.6530547738075256,2.959246501177404e-07,0.6037756204605103,0.5792616605758667,0.0044383849017322,0.6355681419372559,0.4753290712833404,0.0074679711833596,0.6273254156112671,0.3755332827568054,0.0107757141813635,0.6131187081336975,0.3041346669197082,0.0132983531802892,0.5878576040267944,0.3852548003196716,-0.007389492355287,0.5667479038238525,0.261064350605011,-0.013940998353064,0.5514814853668213,0.1960635632276535,-0.0177877061069011,0.5379024147987366,0.1438263058662414,-0.0205321498215198,0.5345605611801147,0.3820543587207794,-0.0148887699469923,0.5176394581794739,0.2404439896345138,-0.0237027276307344,0.5070168972015381,0.1529225409030914,-0.0299271754920482,0.4998430013656616,0.0851840674877166,-0.0340551473200321,0.4874955415725708,0.398118108510971,-0.0209157261997461,0.4759329557418823,0.2646292150020599,-0.0292974710464477,0.4727708697319031,0.1829955726861953,-0.0362566672265529,0.4711732268333435,0.1188100576400756,-0.0412043891847133,0.4482838213443756,0.4310766160488128,-0.0254109036177396,0.4421678781509399,0.3248947262763977,-0.0333619005978107,0.4399210214614868,0.2658734321594238,-0.0348964408040046,0.4398955702781677,0.214413583278656,-0.0347739048302173
2023-08-01 15:51:54.662164,20,364,0.6118380427360535,0.1720957905054092,0.5509514212608337,0.540823221206665,-0.154296875,0.90087890625,-0.20849609375,0.5283973217010498,0.6485790014266968,3.167095030676137e-07,0.6015874147415161,0.5763294696807861,0.0093098748475313,0.6316927075386047,0.475584477186203,0.0146304816007614,0.6234402656555176,0.3747385144233703,0.0204175449907779,0.6120995283126831,0.3014892637729645,0.0257401280105114,0.5833232402801514,0.3846713900566101,-0.0047060507349669,0.5614497661590576,0.2556248903274536,-0.0063416440971195,0.5472525954246521,0.1906380951404571,-0.004998103249818,0.5352132320404053,0.140692800283432,-0.0038355614524334,0.528298020362854,0.381574422121048,-0.0117931636050343,0.5108814835548401,0.2350824326276779,-0.0180410090833902,0.501111626625061,0.1504950523376464,-0.0200145523995161,0.4950525462627411,0.0886322855949401,-0.0204550046473741,0.4807732403278351,0.3973599672317505,-0.01646045781672,0.4707668125629425,0.260779321193695,-0.021502548828721,0.4698938131332397,0.180416464805603,-0.0243313293904066,0.4701612591743469,0.1196219623088836,-0.0261895786970853,0.4418272376060486,0.4290570020675659,-0.0189694724977016,0.4349046945571899,0.3203610479831695,-0.02293062210083,0.4343010783195495,0.2620846629142761,-0.0210503935813903,0.4361400306224823,0.2122358679771423,-0.0183121785521507
2023-08-01 15:51:54.705514,21,365,0.6140064597129822,0.1762022823095321,0.5468803644180298,0.541175365447998,-0.158203125,0.91845703125,-0.36962890625,0.526435911655426,0.6529372334480286,3.0461396249847894e-07,0.5994038581848145,0.578051745891571,0.0114947445690631,0.6288232207298279,0.4749959707260132,0.0194150637835264,0.6210718154907227,0.373858243227005,0.0274089369922876,0.6060486435890198,0.3018237650394439,0.0351473800837993,0.5759334564208984,0.3786217868328094,0.0035164281725883,0.5552957653999329,0.2532136738300323,0.0049953525885939,0.5419012308120728,0.1900727450847625,0.0068452381528913,0.5313308238983154,0.1399407088756561,0.0076455357484519,0.5232342481613159,0.3786441683769226,-0.0041070263832807,0.506810188293457,0.2367470860481262,-0.0080874823033809,0.4978282451629638,0.151191160082817,-0.0109968921169638,0.4921418130397796,0.0866423845291137,-0.0126643124967813,0.4781327247619629,0.3980593979358673,-0.0094984723255038,0.4662680625915527,0.2642294764518738,-0.0140286926180124,0.4645701944828033,0.1834444105625152,-0.0185493119060993,0.4633891880512237,0.1197577714920044,-0.0216612406075,0.4418763518333435,0.4330993294715881,-0.0126234851777553,0.4340988993644714,0.3240086436271667,-0.0165263283997774,0.4317742586135864,0.2650120258331299,-0.0157889630645513,0.4317696392536163,0.2134772688150406,-0.0141716320067644
2023-08-01 15:51:54.753025,22,366,0.6165051460266113,0.1781409829854965,0.5416287183761597,0.5429782867431641,-0.154296875,0.9013671875,-0.25390625,0.5248299241065979,0.6501274704933167,3.030632740319561e-07,0.5988265872001648,0.5763416290283203,0.0112078888341784,0.627853274345398,0.4746392965316772,0.017944810912013,0.6206501126289368,0.3734451532363891,0.0249882619827985,0.604664146900177,0.3025023937225342,0.0315812528133392,0.5772424936294556,0.3823440670967102,-0.003866947023198,0.5540856719017029,0.2531782388687134,-0.005470722913742,0.5391581654548645,0.1883001327514648,-0.0041026473045349,0.5262205600738525,0.1370302438735962,-0.0030400718096643,0.523422360420227,0.3815191388130188,-0.011699859984219,0.5070024132728577,0.2356261312961578,-0.0191794745624065,0.4967693984508514,0.1488171517848968,-0.0219858791679143,0.4894467890262604,0.0834498107433319,-0.0229286532849073,0.4772408008575439,0.3998834490776062,-0.0168453324586153,0.4661912620067596,0.2651581764221191,-0.0229414273053407,0.4636182785034179,0.1834213435649871,-0.0263055767863988,0.4614767134189605,0.1201842427253723,-0.0281292144209146,0.4401725530624389,0.4343335032463074,-0.0197166986763477,0.4339065551757812,0.3238507509231567,-0.0238145180046558,0.4315218329429626,0.2637792229652405,-0.0221310686320066,0.4308240413665771,0.2124705016613006,-0.0196031108498573
2023-08-01 15:51:54.813315,23,367,0.6310096383094788,0.1914904564619064,0.5209054946899414,0.5420476794242859,-0.185546875,0.91845703125,-0.31982421875,0.5271968841552734,0.6498706340789795,2.8949600050509616e-07,0.5995461344718933,0.5764270424842834,0.0092184413224458,0.6296274662017822,0.4757016599178314,0.0138380909338593,0.6227301359176636,0.3759466111660003,0.0183353256434202,0.6067372560501099,0.3040156066417694,0.0218969043344259,0.580152153968811,0.3829188346862793,-0.0060015846975147,0.5572044253349304,0.2545570135116577,-0.0112404515966773,0.5417551398277283,0.1881157606840133,-0.0129027878865599,0.5288569927215576,0.1359426975250244,-0.0139119457453489,0.5273005962371826,0.3819994330406189,-0.0148863401263952,0.508928656578064,0.2362233102321624,-0.024461405351758,0.4981075525283813,0.1492203474044799,-0.0292771346867084,0.4910244941711426,0.083594262599945,-0.0317768603563308,0.4811253547668457,0.4000192582607269,-0.021572045981884,0.4682818055152893,0.2641832828521728,-0.0301197562366724,0.4647787809371948,0.1814305633306503,-0.0352780520915985,0.4627719521522522,0.1174460649490356,-0.0383797734975814,0.4432151317596435,0.4348222613334656,-0.02618994936347,0.4353780150413513,0.3261381387710571,-0.0332631766796112,0.4325579106807709,0.2650083303451538,-0.0335004404187202,0.4324789345264435,0.2123221904039383,-0.0321927741169929
2023-08-01 15:51:54.860537,24,368,0.6492449045181274,0.2119140177965164,0.4922711551189422,0.5396689176559448,-0.37744140625,0.91943359375,-0.27978515625,0.531421959400177,0.6471271514892578,3.018697327661357e-07,0.6013081073760986,0.5718252658843994,0.0065093543380498,0.63079833984375,0.4712843000888824,0.0100438306108117,0.6210675239562988,0.375307023525238,0.0135899251326918,0.6079959869384766,0.304267555475235,0.0162335224449634,0.5826863050460815,0.3809846937656402,-0.0073749176226556,0.5612998604774475,0.2545554339885711,-0.014540166594088,0.5470230579376221,0.1880520582199096,-0.0175256356596946,0.5349352359771729,0.1366137564182281,-0.019155191257596,0.5314989686012268,0.3812486529350281,-0.0160819310694932,0.5165500044822693,0.2366555482149124,-0.0263373516499996,0.5078508853912354,0.1493790745735168,-0.0320382378995418,0.501761794090271,0.0835001468658447,-0.0350470691919326,0.4867853224277496,0.3996179401874542,-0.0230987165123224,0.4764417707920074,0.2635208368301391,-0.0328932367265224,0.4738843142986297,0.1812597662210464,-0.0391991771757602,0.4728716611862182,0.11811563372612,-0.0428624302148819,0.4491184949874878,0.434611439704895,-0.0283198151737451,0.4418497681617737,0.3271540999412536,-0.0372620932757854,0.4408223628997803,0.2665009796619415,-0.038627665489912,0.4427630603313446,0.2147357761859893,-0.0378191769123077
2023-08-01 15:51:54.928154,25,369,0.6772781610488892,0.2483904510736465,0.4413146078586578,0.53370201587677,-0.2763671875,0.90185546875,-0.1484375,0.5336067080497742,0.6449359655380249,2.778280361326324e-07,0.6017749309539795,0.5704355835914612,0.0092249047011137,0.6292659044265747,0.4701224863529205,0.0134097887203097,0.6231539845466614,0.3729338943958282,0.0170112904161214,0.608315646648407,0.303251564502716,0.0192620642483234,0.5840112566947937,0.3799615204334259,-0.0065898383036255,0.5606209635734558,0.254961609840393,-0.0126517815515398,0.5459772348403931,0.1903354376554489,-0.0149775063619017,0.5341424942016602,0.1401405930519104,-0.0165343713015317,0.5342079401016235,0.3793886303901672,-0.0166830644011497,0.5166218876838684,0.2368125319480896,-0.0268903654068708,0.5062435865402222,0.1504060626029968,-0.0332259833812713,0.4988833665847778,0.0843876898288726,-0.0372233130037784,0.4893552660942077,0.397230863571167,-0.0246678180992603,0.4775426685810089,0.2633256018161773,-0.0346710234880447,0.4737285673618316,0.1807023733854293,-0.0419244356453418,0.4717884957790375,0.1162465214729309,-0.0468001849949359,0.450590968132019,0.4309034943580627,-0.030485576018691,0.4419209063053131,0.3233743607997894,-0.040380660444498,0.4396596848964691,0.2624496519565582,-0.0429077632725238,0.4404429495334625,0.2090420573949813,-0.0433660186827182
2023-08-01 15:51:54.982184,26,370,0.7087764739990234,0.2934592366218567,0.3771870732307434,0.5188906192779541,-0.0791015625,0.97509765625,-0.2109375,0.5326645374298096,0.6366584300994873,2.591885674974037e-07,0.5998382568359375,0.563299834728241,0.0104172332212328,0.6269758343696594,0.4648582935333252,0.0148969795554876,0.6196638345718384,0.3690099120140075,0.0185824576765298,0.6039082407951355,0.3013464212417602,0.0205589663237333,0.5829627513885498,0.3764435648918152,-0.0068499986082315,0.5580888986587524,0.25190070271492,-0.0126645881682634,0.5419793128967285,0.1880692690610885,-0.0144690321758389,0.529157280921936,0.1392913162708282,-0.0157112143933773,0.5341655015945435,0.3766185343265533,-0.0173087399452924,0.5152705907821655,0.2344444990158081,-0.0274203680455684,0.5049698948860168,0.1493732929229736,-0.0333783328533172,0.4980699419975281,0.0845310389995575,-0.0372122041881084,0.4892876744270324,0.394574224948883,-0.0255135130137205,0.4772222340106964,0.2618597745895386,-0.0355383306741714,0.4741132855415344,0.179575890302658,-0.0427831597626209,0.4728436172008514,0.1156160831451416,-0.0478311479091644,0.4496936798095703,0.4281718134880066,-0.0313507318496704,0.4409188032150268,0.3212993144989013,-0.0412876345217227,0.4389512538909912,0.2611815929412842,-0.0438562333583831,0.4394046664237976,0.2085091173648834,-0.044584535062313
2023-08-01 15:51:55.027960,27,371,0.7335211634635925,0.3280753791332245,0.314378410577774,0.5054497718811035,-0.37890625,0.93017578125,-0.20361328125,0.5357845425605774,0.6333550810813904,2.4170444135052094e-07,0.5991539359092712,0.5557584762573242,0.0104098534211516,0.6244481801986694,0.4579183459281921,0.0141539080068469,0.6126604080200195,0.3645593822002411,0.0162317026406526,0.5949152708053589,0.2980629503726959,0.0161327868700027,0.5840455293655396,0.3734184503555298,-0.004546214826405,0.5566314458847046,0.2547643184661865,-0.0126567902043461,0.5400638580322266,0.1909994930028915,-0.0172733161598444,0.5276689529418945,0.1403283476829528,-0.0205217245966196,0.5366941094398499,0.3726896941661834,-0.0168989803642034,0.515371561050415,0.2338889688253402,-0.0277348682284355,0.5043998956680298,0.1477891057729721,-0.0353171005845069,0.4979336559772491,0.081189215183258,-0.0403171218931674,0.4928250014781952,0.3899370729923248,-0.0275432933121919,0.4781926274299621,0.2602928578853607,-0.0384588688611984,0.4743790030479431,0.1771674007177353,-0.0469302237033844,0.4739282131195068,0.1110405027866363,-0.0527230910956859,0.4531992673873901,0.4231865108013153,-0.0360838584601879,0.4437944889068603,0.3165658414363861,-0.0468618758022785,0.4411728978157043,0.2561052441596985,-0.0500125773251056,0.441155344247818,0.2020306140184402,-0.0510516166687011
2023-08-01 15:51:55.074396,28,372,0.7587980628013611,0.3688494563102722,0.2370803207159042,0.4816312193870544,0.064453125,0.94140625,-0.06884765625,0.5362825989723206,0.6321435570716858,2.0158643110335106e-07,0.5963037610054016,0.5523614287376404,0.0139549179002642,0.6215531826019287,0.4561397433280945,0.0192553251981735,0.6086031794548035,0.3652004897594452,0.0224794093519449,0.5880705714225769,0.3022424876689911,0.0231401566416025,0.5880388617515564,0.3764253556728363,-0.0031195271294564,0.5586165189743042,0.25909423828125,-0.0098106190562248,0.5391952395439148,0.1951677203178405,-0.0130909588187932,0.5250794291496277,0.1448808312416076,-0.0155897345393896,0.5436680316925049,0.3726304769515991,-0.0167586989700794,0.5187152028083801,0.2340955138206482,-0.0263884477317333,0.5058245658874512,0.1485017538070678,-0.0331487581133842,0.4988672733306885,0.0827280282974243,-0.0378057658672332,0.4999341368675232,0.3873731791973114,-0.0281836241483688,0.4833889603614807,0.258579283952713,-0.0384660623967647,0.4790278971195221,0.1758085191249847,-0.0474505610764026,0.4788450896739959,0.110516756772995,-0.0539308786392211,0.458539068698883,0.4185876548290252,-0.037041213363409,0.4491425156593323,0.3147123456001282,-0.0480025336146354,0.4466175734996795,0.2568215727806091,-0.0515147559344768,0.4463471472263336,0.2043305188417434,-0.0529771260917186
2023-08-01 15:51:55.122665,29,373,0.7780331373214722,0.3998097479343414,0.1579890251159668,0.4581005275249481,-0.38623046875,0.9873046875,-0.03564453125,0.5392016172409058,0.6335985660552979,1.81830515089132e-07,0.5934564471244812,0.5520279407501221,0.0132689047604799,0.6181331872940063,0.4555118680000305,0.0175265278667211,0.6066555976867676,0.3654679656028747,0.0188778433948755,0.5875874161720276,0.3001982271671295,0.0175155159085989,0.5894482135772705,0.374057799577713,0.0008411996532231,0.5595561265945435,0.2620177268981933,-0.0076010334305465,0.5406416058540344,0.1999853104352951,-0.0138808097690343,0.5279830098152161,0.1485402882099151,-0.0186929553747177,0.5487596988677979,0.3707989454269409,-0.0139392623677849,0.5218233466148376,0.2377889901399612,-0.0240662656724452,0.5083035826683044,0.152690589427948,-0.0325843095779418,0.5013300180435181,0.0851246118545532,-0.0389476753771305,0.5065727829933167,0.3856782615184784,-0.0272733401507139,0.4877569377422333,0.2598912119865417,-0.0391472764313221,0.4832953512668609,0.1773143410682678,-0.0489186011254787,0.4839963614940643,0.1107553541660308,-0.0559593141078949,0.4636959433555603,0.4155377447605133,-0.0383084788918495,0.452901542186737,0.3127608597278595,-0.0513354577124118,0.4501603245735168,0.2540663778781891,-0.055702831596136,0.4507756233215332,0.2002150565385818,-0.0577077083289623
2023-08-01 15:51:55.168862,30,374,0.79076087474823,0.4279702603816986,0.0851639285683631,0.4292851388454437,0.08837890625,0.892578125,0.0986328125,0.5395278930664062,0.6312795877456665,2.8249367289845395e-08,0.5750603675842285,0.5336076021194458,0.0318304263055324,0.5828123092651367,0.4451533555984497,0.0397880002856254,0.5702208280563354,0.3784995973110199,0.0391895435750484,0.5441134572029114,0.3329839706420898,0.0344043560326099,0.5894248485565186,0.3819274604320526,0.0135032841935753,0.5502098202705383,0.2741346359252929,0.0021155984140932,0.519003689289093,0.2211000174283981,-0.0068070013076066,0.4964529871940613,0.1791317015886306,-0.0138111384585499,0.5687980055809021,0.3783485293388366,-0.0146240014582872,0.5400115847587585,0.2376901805400848,-0.0272402074187994,0.5229666233062744,0.1513865441083908,-0.035566933453083,0.5112096667289734,0.0792915225028991,-0.042745191603899,0.5353044271469116,0.389399766921997,-0.0407959185540676,0.5179340243339539,0.2484491020441055,-0.0536326542496681,0.5099626779556274,0.1649532616138458,-0.0620018392801284,0.508346438407898,0.09694305062294,-0.0689746364951133,0.4922121167182922,0.4090140461921692,-0.0638030618429184,0.4845757484436035,0.3009653687477112,-0.0771848037838935,0.484363853931427,0.2342115193605423,-0.0817941576242446,0.4876533448696136,0.1749413311481475,-0.0855441987514495
2023-08-01 15:51:55.220317,31,375,0.7958353161811829,0.4393515288829803,0.0417725406587123,0.4145738482475281,-0.783203125,0.97265625,-0.0595703125,0.5306701064109802,0.6276816725730896,-1.0379186221598505e-07,0.5636535286903381,0.5389034748077393,0.0392160341143608,0.5751110315322876,0.4559400975704193,0.0551678203046321,0.5724657773971558,0.392712652683258,0.0622250400483608,0.5629163980484009,0.3498858213424682,0.0656136572360992,0.5744982957839966,0.3833271265029907,0.0244829431176185,0.5447562336921692,0.2776760160923004,0.0170828234404325,0.5228050947189331,0.208283320069313,0.0128762461245059,0.5079070329666138,0.1514446586370468,0.0086603192612528,0.5611125230789185,0.3790377080440521,-0.0052791838534176,0.5350844264030457,0.2405012995004654,-0.0182191021740436,0.5217801928520203,0.1518345177173614,-0.0241393819451332,0.5134527087211609,0.0787175893783569,-0.0285712163895368,0.5344749689102173,0.3850572109222412,-0.0330159664154052,0.5179926156997681,0.2494923770427703,-0.0469364114105701,0.5112046003341675,0.166568711400032,-0.0544073320925235,0.5106098651885986,0.0969057083129882,-0.0599677637219429,0.4982563555240631,0.3967758417129516,-0.0571082346141338,0.4906982779502868,0.2933612167835235,-0.0759878978133201,0.4918592870235443,0.2268298715353012,-0.0853021666407585,0.4972684979438782,0.1684569865465164,-0.091497965157032
2023-08-01 15:51:55.284199,32,376,0.799192488193512,0.4652315378189087,-0.0443453714251518,0.3780003786087036,-0.0830078125,0.935546875,0.25,0.5299680233001709,0.6290001273155212,-3.927014091686942e-08,0.55133056640625,0.5355674028396606,0.0328646041452884,0.5582839250564575,0.4447962939739227,0.0432166568934917,0.5545018315315247,0.3767461478710174,0.0445763878524303,0.5472609400749207,0.3269813656806946,0.0430274009704589,0.5679322481155396,0.3800208866596222,0.0201863758265972,0.5417791604995728,0.2694324851036072,0.0085958391427993,0.5225827097892761,0.1942749172449112,0.0002377483469899,0.5093364119529724,0.1310391128063202,-0.0068733054213225,0.5601800084114075,0.3787516057491302,-0.0094976676627993,0.5344967842102051,0.2424705475568771,-0.0241067316383123,0.5207189917564392,0.155853271484375,-0.0331490524113178,0.5117709636688232,0.0842958986759185,-0.0406408309936523,0.5373892784118652,0.3872175514698028,-0.0380423367023468,0.5217443108558655,0.2510762214660644,-0.0513418838381767,0.5122426152229309,0.1680763810873031,-0.0591860488057136,0.5086981058120728,0.0989050865173339,-0.066113457083702,0.503117024898529,0.400005429983139,-0.0641013011336326,0.4975159168243408,0.297554463148117,-0.0796506404876709,0.4980735182762146,0.2302066683769226,-0.0879558622837066,0.5019588470458984,0.1710697412490844,-0.0945664271712303
2023-08-01 15:51:55.343768,33,377,0.7910873889923096,0.4955559074878692,-0.1435583978891372,0.3286276459693908,0.7236328125,0.92626953125,0.19580078125,0.5246154069900513,0.6346637606620789,-5.58734427613672e-08,0.5235404372215271,0.5419582724571228,0.0320539996027946,0.5315191745758057,0.4552216529846191,0.0411733984947204,0.5334306955337524,0.3928887844085693,0.0418168567121028,0.5332608222961426,0.3445216417312622,0.0406345762312412,0.5618615746498108,0.3868157565593719,0.0189911182969808,0.539179801940918,0.2726092040538788,0.0063365912064909,0.5214194059371948,0.1942848861217498,-0.0023268221411854,0.5105581879615784,0.130187451839447,-0.009377084672451,0.5598251819610596,0.3845142126083374,-0.0100786639377474,0.5320448875427246,0.2468319237232208,-0.0261124763637781,0.5168293118476868,0.1589431017637252,-0.0355609729886055,0.5091187953948975,0.0885518193244934,-0.0432164147496223,0.5408609509468079,0.3897809088230133,-0.0382206179201602,0.5266729593276978,0.2510935068130493,-0.0528898127377033,0.5172799229621887,0.1638489216566085,-0.0614339411258697,0.5139936804771423,0.0913476049900055,-0.0687579438090324,0.5098468065261841,0.3976424932479858,-0.0638481676578521,0.509253978729248,0.2948332726955414,-0.080367624759674,0.5107298493385315,0.2281374633312225,-0.0893832668662071,0.5136985182762146,0.1691429913043975,-0.0965589061379432
2023-08-01 15:51:55.403175,34,378,0.7731401920318604,0.515092670917511,-0.2423643767833709,0.2796308696269989,0.123046875,0.91796875,0.2529296875,0.4803383946418762,0.6381170749664307,2.239894598687897e-07,0.4355849027633667,0.5463600158691406,0.0011237511644139,0.4430519342422485,0.4444587230682373,0.0026590477209538,0.4592498540878296,0.3783661127090454,-0.0002790973812807,0.4654353857040405,0.31950443983078,-0.0033505004830658,0.4817816615104675,0.3613509237766266,0.0143333720043301,0.4848112761974334,0.2572213411331177,-0.0001671796053415,0.4810288250446319,0.1841436624526977,-0.0144247533753514,0.4793059527873993,0.1248869895935058,-0.025166817009449,0.5015380382537842,0.3638116419315338,-0.0016384903574362,0.5036879777908325,0.2471382617950439,-0.0159595012664794,0.5040038824081421,0.1654706448316574,-0.0306599363684654,0.5056378841400146,0.0979739129543304,-0.0407543778419494,0.5169570446014404,0.3826350271701813,-0.0205342229455709,0.5196318626403809,0.2691564261913299,-0.0351879261434078,0.5236412882804871,0.1939510256052017,-0.0463225916028022,0.5273700952529907,0.1329640448093414,-0.0541967563331127,0.524277925491333,0.4152932465076446,-0.0406825877726078,0.5174528360366821,0.337145060300827,-0.0523250475525856,0.5114597082138062,0.2849101424217224,-0.0562493652105331,0.5058072209358215,0.2428947538137436,-0.0589902698993682
2023-08-01 15:51:55.449086,35,379,0.763104259967804,0.5198483467102051,-0.2863290905952453,0.2558227181434631,0.07763671875,0.9267578125,0.2666015625,0.4800285398960113,0.6280146241188049,1.9366567016732009e-07,0.4307734966278076,0.5393043756484985,0.0064312173053622,0.4346788823604584,0.4355689287185669,0.0127303227782249,0.4511867165565491,0.3653347492218017,0.0130147635936737,0.4576506912708282,0.3052007257938385,0.0136027904227375,0.4676900804042816,0.3496993780136108,0.0321414321660995,0.4704591929912567,0.2531352341175079,0.0255526471883058,0.467612087726593,0.1930537670850753,0.0154735036194324,0.4663315117359161,0.1383090615272522,0.0065656183287501,0.4912604987621307,0.3426312208175659,0.0149504458531737,0.4962831139564514,0.2302385121583938,0.0075226966291666,0.4975818991661072,0.1552067846059799,-0.0039054877124726,0.4983941614627838,0.0914897918701171,-0.0125856418162584,0.5119224190711975,0.3552984595298767,-0.0056530344299972,0.5251551866531372,0.243204653263092,-0.014687230810523,0.5329201221466064,0.1750353723764419,-0.0234268605709075,0.5380557179450989,0.1178535521030426,-0.0302402693778276,0.5284775495529175,0.3815980851650238,-0.0275781285017728,0.5391751527786255,0.2959285974502563,-0.0346495024859905,0.5464626550674438,0.2383608520030975,-0.0375286601483821,0.5518382787704468,0.1891101002693176,-0.0405250750482082
2023-08-01 15:51:55.509178,36,380,0.750893235206604,0.5219143629074097,-0.3382508456707001,0.2221509516239166,0.2646484375,0.90625,0.4228515625,0.4737797081470489,0.6339788436889648,1.700207405974652e-07,0.4226084649562835,0.5485060811042786,0.0034224255941808,0.4232447445392608,0.4410409033298492,0.0094392783939838,0.4388853013515472,0.3670286536216736,0.0094947079196572,0.4445671737194061,0.3041338324546814,0.0099586211144924,0.4615622162818908,0.3526970744132995,0.0356484502553939,0.4637908637523651,0.2591551840305328,0.0283951610326766,0.4610137641429901,0.1992637366056442,0.0160182993859052,0.4609887301921844,0.1437150090932846,0.0051357066258788,0.4858953952789306,0.3453029990196228,0.019490048289299,0.4908349514007568,0.2373807579278946,0.0123765030875802,0.4919766187667846,0.163002997636795,-0.0007240753038786,0.4936584234237671,0.0975108444690704,-0.0112818628549575,0.5078229308128357,0.3570172786712646,-0.001012566150166,0.521020770072937,0.2493167668581009,-0.0096292803063988,0.5295276641845703,0.1825439184904098,-0.0187895055860281,0.5351213812828064,0.1251650750637054,-0.0264634061604738,0.5264297127723694,0.3816064000129699,-0.0235064290463924,0.5370622277259827,0.2980415225028991,-0.0307079143822193,0.5446634292602539,0.2405245155096054,-0.0343071483075618,0.5501841902732849,0.1895107179880142,-0.0381789244711399
2023-08-01 15:51:55.556620,37,381,0.7456507682800293,0.5213348269462585,-0.3610579967498779,0.204578086733818,0.11181640625,0.89501953125,0.37060546875,0.4692788422107696,0.6323531866073608,2.15809762948993e-07,0.4127351641654968,0.5596946477890015,-0.006792020983994,0.4005208313465118,0.4484703242778778,-0.0014940962428227,0.411496490240097,0.3664511144161224,-2.090735324600245e-05,0.4165810346603393,0.3052483797073364,0.0025555996689945,0.4392541050910949,0.3526552021503448,0.0316169597208499,0.4425305724143982,0.2595373094081878,0.0264643058180809,0.4451777040958404,0.203419417142868,0.0144422948360443,0.4501431286334991,0.1505117267370224,0.0033543338067829,0.4696175754070282,0.3428370952606201,0.022238552570343,0.4728966355323791,0.237522080540657,0.0191692784428596,0.4759994149208069,0.1692721843719482,0.0067774038761854,0.480158656835556,0.1070474982261657,-0.0041653211228549,0.4970903396606445,0.3536508679389953,0.0076234131120145,0.5065675377845764,0.2521753013134002,0.0022328067570924,0.513694167137146,0.1906569600105285,-0.0072823637165129,0.5191116333007812,0.1373556554317474,-0.016289472579956,0.5231006145477295,0.3785083591938019,-0.0099500836804509,0.5318094491958618,0.2995600402355194,-0.0155459539964795,0.5391135215759277,0.2473686039447784,-0.0194762889295816,0.5456650257110596,0.1997962146997451,-0.0240623280405998
2023-08-01 15:51:55.604099,38,382,0.7406902313232422,0.5209473371505737,-0.3770234584808349,0.1945380717515945,0.18017578125,0.9296875,0.3564453125,0.4675143361091614,0.6283420324325562,2.103130185560076e-07,0.4044395983219147,0.5628082752227783,-0.0107172131538391,0.3819470703601837,0.4582749307155609,-0.0054990919306874,0.391277551651001,0.3719368875026703,-0.0029852432198822,0.3911017179489136,0.3078712821006775,0.0010611834004521,0.4247214496135711,0.3543875217437744,0.0332025811076164,0.420929878950119,0.2673518359661102,0.0280940476804971,0.422402560710907,0.2158096730709076,0.0144787793979048,0.4259058237075805,0.1645279079675674,0.0022073811851441,0.4597817361354828,0.3427112102508545,0.0261640343815088,0.4593644142150879,0.2389099895954132,0.0249648839235305,0.4607736468315124,0.1735750287771225,0.0127791138365864,0.4622918367385864,0.1129370629787445,0.0014494247734546,0.4896025359630584,0.3539008200168609,0.0130424536764621,0.4951144456863403,0.2594462633132934,0.0087524317204952,0.4997226595878601,0.2020776718854904,0.0003981917980127,0.5026647448539734,0.151423841714859,-0.00802284758538,0.5211083292961121,0.3803068697452545,-0.0035852664150297,0.5272447466850281,0.3051447570323944,-0.007601052056998,0.5309270620346069,0.2576351165771484,-0.0098334532231092,0.5335716009140015,0.2117911428213119,-0.0135363209992647
2023-08-01 15:51:55.651548,39,383,0.7381621599197388,0.5187538266181946,-0.3883008658885956,0.1877057552337646,0.2001953125,0.90966796875,0.4560546875,0.4665202796459198,0.6310946941375732,2.31456283472653e-07,0.4046782553195953,0.5662172436714172,-0.0108859147876501,0.3824181258678436,0.4590586423873901,-0.005585229024291,0.3903270363807678,0.3723601400852203,-0.0031280822586268,0.3863444626331329,0.3115221261978149,0.0006372904172167,0.4232481718063354,0.3596307039260864,0.0319279097020626,0.4200736880302429,0.2695355415344238,0.0242186561226844,0.42261403799057,0.2127334624528885,0.0091173378750681,0.4275271892547607,0.1590248942375183,-0.0036295931786298,0.4589007496833801,0.3473270535469055,0.0247633028775453,0.4576190412044525,0.2442387193441391,0.020553795620799,0.4581814408302307,0.1767502725124359,0.0066393124870955,0.4586606323719024,0.1137149631977081,-0.0049949968233704,0.4905139207839966,0.3562308847904205,0.0116136623546481,0.4938713908195495,0.2593323886394501,0.0053393128328025,0.4968591332435608,0.201246902346611,-0.0029283557087183,0.4982530772686004,0.1499109119176864,-0.0104077104479074,0.5237604379653931,0.3805111050605774,-0.0050329705700278,0.5282787680625916,0.3032692372798919,-0.0096865966916084,0.5316480994224548,0.2552728056907654,-0.0110861668363213,0.5333875417709351,0.2099532783031463,-0.0135539090260863
2023-08-01 15:51:55.698939,40,384,0.7374404072761536,0.5176400542259216,-0.3937552869319916,0.1821735948324203,0.14453125,0.91357421875,0.36376953125,0.471248060464859,0.6336249709129333,2.344722531688604e-07,0.4092847406864166,0.5724557638168335,-0.013244342058897,0.383089154958725,0.4668515622615814,-0.0090069267898797,0.387615442276001,0.3786066174507141,-0.0067225988022983,0.3828914761543274,0.3145621418952942,-0.0022850823588669,0.4205243587493896,0.362462967634201,0.0297921672463417,0.414946049451828,0.2739672660827636,0.0218314956873655,0.4164841175079345,0.2196951657533645,0.0069136517122387,0.4200856685638428,0.1689352542161941,-0.0051858471706509,0.456911563873291,0.3486742377281189,0.0247433502227067,0.4546709656715393,0.2456226795911789,0.0222467482089996,0.4553114473819732,0.1800537854433059,0.0111385146155953,0.4556156694889068,0.1196133196353912,0.0016356916166841,0.4895711541175842,0.3566650152206421,0.0134621523320674,0.4918566942214966,0.2617705166339874,0.0095496578142046,0.4946953356266022,0.205838456749916,0.0048223775811493,0.4963447153568268,0.1572806388139724,-0.0001514505420345,0.5244970917701721,0.3801019489765167,-0.0017330528935417,0.5275910496711731,0.3047600984573364,-0.0037908474914729,0.5294957756996155,0.2594702243804931,-0.002377416472882,0.5304502844810486,0.2178859412670135,-0.0025675331708043
2023-08-01 15:51:55.760388,41,385,0.736168384552002,0.5161670446395874,-0.4009473919868469,0.1756958663463592,0.15771484375,0.916015625,0.36328125,0.4751210212707519,0.6315380930900574,2.675430721410521e-07,0.4109316766262054,0.5711901187896729,-0.0145764332264661,0.3819849789142608,0.4699152410030365,-0.0102891465649008,0.3851859271526336,0.3824338018894195,-0.0076023079454898,0.3763349056243896,0.3194568753242492,-0.0025812336243689,0.4171703457832336,0.3632687330245971,0.0305584389716386,0.4100708365440368,0.2742125988006592,0.0228194817900657,0.4115864932537079,0.2196638882160186,0.0077741220593452,0.4153354167938232,0.1690470278263092,-0.0040814392268657,0.4542528390884399,0.3491778969764709,0.0267582014203071,0.4507137537002563,0.2461645305156707,0.0253223106265068,0.4504840672016144,0.1811598390340805,0.0144112026318907,0.4501159489154815,0.1216976940631866,0.0050678821280598,0.4870071709156036,0.3564331531524658,0.0165141243487596,0.4888318181037903,0.2622044682502746,0.0138487182557582,0.4904554188251495,0.2077171206474304,0.0099700540304183,0.4916397929191589,0.1603748947381973,0.0056094648316502,0.5229169726371765,0.3790926933288574,0.0021328199654817,0.525410532951355,0.3046849966049194,0.0015669265994802,0.5262102484703064,0.2604315876960754,0.0041125742718577,0.5265640616416931,0.2194633185863495,0.004790517501533
2023-08-01 15:51:55.821703,42,386,0.7367355823516846,0.5138010382652283,-0.4046085178852081,0.1718174368143081,0.08544921875,0.90673828125,0.4052734375,0.4760555028915405,0.6320734024047852,2.624109924909135e-07,0.4116215109825134,0.5743707418441772,-0.0149954417720437,0.3818038403987884,0.472588449716568,-0.0110306274145841,0.3838144242763519,0.3850729465484619,-0.0086635379120707,0.3719585537910461,0.3225027918815613,-0.004408948123455,0.4185090363025665,0.3671212792396545,0.0282422453165054,0.410613864660263,0.2775530517101288,0.0199885871261358,0.410685658454895,0.2218068838119506,0.0049883732572197,0.4130387306213379,0.1699706465005874,-0.0070024370215833,0.4552619159221649,0.3524895310401916,0.0240428857505321,0.4506041407585144,0.2498196959495544,0.0209961831569671,0.4489514827728271,0.1842129230499267,0.0088987434282898,0.4473167955875397,0.1239599585533142,-0.0012710449518635,0.4876535534858703,0.3590300381183624,0.0135342795401811,0.4890422821044922,0.2649327218532562,0.0088077867403626,0.4891605675220489,0.2102937549352646,0.0030068675987422,0.4881845712661743,0.1620378047227859,-0.00261558778584,0.5227785706520081,0.3806875348091125,-0.0009032891830429,0.5254150629043579,0.3064919114112854,-0.003894331632182,0.5260872840881348,0.261518269777298,-0.0033701560460031,0.5255587697029114,0.2192260324954986,-0.0041346168145537
2023-08-01 15:51:55.869044,43,387,0.7373080849647522,0.5125686526298523,-0.4062602519989013,0.1691236495971679,0.21728515625,0.87939453125,0.48583984375,0.4808082580566406,0.6369630694389343,2.604517419513286e-07,0.4156475663185119,0.581462025642395,-0.0156221007928252,0.3835942149162292,0.4796668589115143,-0.0119642289355397,0.3842977881431579,0.3906975388526916,-0.0094075119122862,0.3708533644676208,0.3264448046684265,-0.0046735666692256,0.4178887605667114,0.3686100542545318,0.0271383728832006,0.4088998734951019,0.2786118984222412,0.0194914638996124,0.4089630544185638,0.2226441502571106,0.0047795600257813,0.4112555980682373,0.1706566661596298,-0.0071780979633331,0.4558271765708923,0.3538739681243896,0.0236055795103311,0.4496225714683532,0.2517203092575073,0.0213361959904432,0.4477015137672424,0.1863464415073394,0.0097402520477771,0.4455318748950958,0.1264291405677795,-0.0003112012636847,0.4890825450420379,0.3610360026359558,0.0138202514499425,0.4894261360168457,0.267980545759201,0.0095824832096695,0.4891825318336487,0.2138537615537643,0.0039504365995526,0.4877881407737732,0.1662174314260482,-0.0017694698181003,0.5257225632667542,0.3831998109817505,0.0001067335906554,0.5275688171386719,0.309044748544693,-0.0029987832531332,0.5270369052886963,0.2643791437149048,-0.0027785748243331,0.5251743197441101,0.2218509912490844,-0.0037854416295886
2023-08-01 15:51:55.913390,44,388,0.7375910878181458,0.5120673179626465,-0.4062090814113617,0.1695310920476913,0.1416015625,0.92578125,0.41064453125,0.4821138381958008,0.6383655071258545,2.7347340392225306e-07,0.4175181090831756,0.5817411541938782,-0.0149466227740049,0.3864560723304748,0.4798637628555298,-0.0099321873858571,0.3866810202598572,0.3914226591587066,-0.0061417371034622,0.371526837348938,0.3293087780475616,-2.563782072684262e-05,0.4186327457427978,0.3717145323753357,0.0314518846571445,0.4091489911079407,0.2810503840446472,0.0251907296478748,0.4086885452270508,0.2251147925853729,0.0108509799465537,0.410812109708786,0.172881007194519,-0.0006842162110842,0.4563662707805633,0.3564728796482086,0.0285297073423862,0.449783593416214,0.2531141638755798,0.0288648214191198,0.4474411308765411,0.1881889253854751,0.018017940223217,0.4447512924671173,0.1289750039577484,0.0083058159798383,0.4892320334911346,0.3628324568271637,0.0192202404141426,0.4895033240318298,0.2692095339298248,0.0181208495050668,0.4889443218708038,0.2153699249029159,0.0140709355473518,0.4878585934638977,0.1685275882482528,0.0090771485120058,0.5259914994239807,0.3835106492042541,0.0057892720215022,0.5274651646614075,0.3093660473823547,0.0062392633408308,0.5268288254737854,0.2657777667045593,0.0086829839274287,0.5252086520195007,0.2244783788919448,0.0089685460552573
2023-08-01 15:51:55.964021,45,389,0.7384570240974426,0.5112507939338684,-0.4058409035205841,0.1691068261861801,0.21044921875,0.9111328125,0.40771484375,0.4853179454803467,0.6404560804367065,2.974216783968586e-07,0.4197584688663482,0.5849188566207886,-0.0157512016594409,0.388117104768753,0.482950210571289,-0.0112446872517466,0.3869042694568634,0.393032044172287,-0.0078713679686188,0.3694556355476379,0.330840140581131,-0.0019711507484316,0.4189423620700836,0.3742566704750061,0.0309650674462318,0.408795565366745,0.2821625471115112,0.0245936606079339,0.4076555967330932,0.2262130230665207,0.0106293521821498,0.4093609452247619,0.1744960248470306,-0.0002312461292603,0.4566400647163391,0.3582662642002105,0.0287762805819511,0.4492408633232116,0.2534272968769073,0.0291177909821271,0.4460755884647369,0.1875237822532653,0.0189351309090852,0.4428778290748596,0.1288774013519287,0.0101809035986661,0.4900411963462829,0.3639853596687317,0.0201648119837045,0.4890215098857879,0.2695137858390808,0.019318887963891,0.4878280162811279,0.2155809700489044,0.0160928387194871,0.4865006804466247,0.1703779995441436,0.0121479332447052,0.5270726084709167,0.3835580050945282,0.007365386467427,0.5279446840286255,0.3086543083190918,0.0084159076213836,0.5266474485397339,0.2647389769554138,0.0117302378639578,0.52496337890625,0.2244935929775238,0.0130570158362388
2023-08-01 15:51:56.025922,46,390,0.7388730049133301,0.5113605260848999,-0.4046224057674408,0.1698756217956543,0.126953125,0.91455078125,0.41748046875,0.4908613562583923,0.6450111865997314,2.834339625223947e-07,0.4251656234264374,0.59526526927948,-0.0161483250558376,0.3903745710849762,0.4933414459228515,-0.0120944613590836,0.386382132768631,0.4050316214561462,-0.0090606417506933,0.3670856356620788,0.3436119556427002,-0.0035501068923622,0.4189878106117248,0.3786296248435974,0.0286173913627862,0.4081633985042572,0.28660649061203,0.0217732619494199,0.4065974950790405,0.2310946583747863,0.007712360471487,0.408135712146759,0.1797481030225753,-0.003151225624606,0.4570632874965668,0.3633026480674743,0.0260988436639308,0.4471140503883362,0.2585747241973877,0.0260947700589895,0.4429286122322082,0.1926532685756683,0.0165992863476276,0.4392177164554596,0.1353408992290496,0.0084729986265301,0.4912238121032715,0.369550496339798,0.0171647649258375,0.4884763360023498,0.2752504348754883,0.0159006770700216,0.4867614805698395,0.2218464314937591,0.0136565072461962,0.4851995706558227,0.1779340058565139,0.0106017813086509,0.5294916033744812,0.3892436027526855,0.0039789648726582,0.5285718441009521,0.3132035732269287,0.0047227288596332,0.5269920229911804,0.2700862288475036,0.0088091921061277,0.5257810354232788,0.2313236892223358,0.0108905369415879
