Timestamp,Index,Frame ID,w,x,y,z,ax,ay,az,x_0,y_0,z_0,x_1,y_1,z_1,x_2,y_2,z_2,x_3,y_3,z_3,x_4,y_4,z_4,x_5,y_5,z_5,x_6,y_6,z_6,x_7,y_7,z_7,x_8,y_8,z_8,x_9,y_9,z_9,x_10,y_10,z_10,x_11,y_11,z_11,x_12,y_12,z_12,x_13,y_13,z_13,x_14,y_14,z_14,x_15,y_15,z_15,x_16,y_16,z_16,x_17,y_17,z_17,x_18,y_18,z_18,x_19,y_19,z_19,x_20,y_20,z_20
2023-08-01 15:51:58.454221,0,436,0.7456549406051636,0.4999880790710449,-0.4024813175201416,0.1789399236440658,0.1015625,0.8994140625,0.40234375,0.4632928967475891,0.6347082853317261,2.3224713174840877e-07,0.3976251482963562,0.5798768401145935,-0.011069307103753,0.3674213886260986,0.4755536913871765,-0.0027253075968474,0.3674097657203674,0.3869535028934479,0.0036627575755119,0.3511406481266022,0.3292756974697113,0.0120720230042934,0.4041945934295654,0.3696844279766083,0.036212220788002,0.3956436514854431,0.2795057296752929,0.0324361808598041,0.3941411674022674,0.2246549278497696,0.0200068075209856,0.3951845467090606,0.174068346619606,0.0097907278686761,0.4414260685443878,0.3547278642654419,0.0323657318949699,0.4357147812843323,0.2520665824413299,0.0349989496171474,0.4332320392131805,0.1873116940259933,0.0264199040830135,0.4302223324775696,0.1304631531238556,0.0186331272125244,0.4742749631404876,0.3608315885066986,0.0222851522266864,0.4742545187473297,0.2679746747016907,0.0230992268770933,0.4738088250160217,0.2138198316097259,0.0200150720775127,0.4725627601146698,0.1683234721422195,0.0157571118324995,0.5106419324874878,0.380471259355545,0.0083235995844006,0.5125904083251953,0.3074181377887726,0.0095924967899918,0.5116852521896362,0.2650237679481506,0.0122419334948062,0.5102415084838867,0.225745603442192,0.0128462994471192
2023-08-01 15:51:58.499977,1,437,0.746163547039032,0.4998728930950165,-0.4014595150947571,0.1794360429048538,0.09423828125,0.88818359375,0.4560546875,0.4630402028560638,0.6345848441123962,2.404322572147066e-07,0.3969481587409973,0.5788919925689697,-0.0102363470941782,0.3674130439758301,0.4730735719203949,-0.000611447612755,0.3674595057964325,0.3846180140972137,0.0068290401250123,0.3517277836799621,0.3293938040733337,0.0162423960864543,0.404852420091629,0.3692163825035095,0.0386663861572742,0.3965519070625305,0.2787164449691772,0.0358525104820728,0.3948802053928375,0.2233840078115463,0.0241906568408012,0.3959117531776428,0.1722015887498855,0.0145348981022834,0.4418249726295471,0.354266494512558,0.0347612537443637,0.436037003993988,0.2519671320915222,0.037967525422573,0.4331173002719879,0.187126874923706,0.0298435278236866,0.4296923875808716,0.1300341188907623,0.0226243678480386,0.4745307862758636,0.3602575659751892,0.0245763249695301,0.474603921175003,0.2674664855003357,0.0257544908672571,0.4735507369041443,0.2139033377170562,0.0233036521822214,0.4718115329742431,0.1688160896301269,0.0197756309062242,0.510804295539856,0.3794685900211334,0.0105126565322279,0.512592613697052,0.3059412837028503,0.0120397564023733,0.5116052031517029,0.263139009475708,0.0149855837225914,0.5100520253181458,0.2229871451854705,0.016028868034482
2023-08-01 15:51:58.546922,2,438,0.7480518221855164,0.4999341070652008,-0.3959829807281494,0.1835262477397918,0.1796875,0.91064453125,0.37060546875,0.4645781517028808,0.636746883392334,2.3249609171216442e-07,0.3978860676288605,0.5799873471260071,-0.0102645689621567,0.3681746125221252,0.4742399752140045,-0.0005326393875293,0.3691634237766266,0.3854419291019439,0.0071459235623478,0.3538801074028015,0.3281401693820953,0.0168631840497255,0.4057981073856354,0.3699435293674469,0.038202729076147,0.3972204923629761,0.2796209454536438,0.0352118760347366,0.3953388631343841,0.2238977551460266,0.023442355915904,0.3963635861873626,0.1724361926317215,0.0137724597007036,0.4434068202972412,0.3548832833766937,0.034304354339838,0.4373614192008972,0.2524342536926269,0.0374342761933803,0.434323638677597,0.1871726363897323,0.0293618272989988,0.4309652149677276,0.1300414800643921,0.0222199615091085,0.4763779044151306,0.3613582849502563,0.0241534821689128,0.4764174520969391,0.2682512104511261,0.0250702500343322,0.4753425121307373,0.215470939874649,0.0228371322154998,0.4735182821750641,0.1710044294595718,0.0195925030857324,0.51258385181427,0.3815318048000335,0.0101546486839652,0.5140586495399475,0.307515949010849,0.0113119706511497,0.512884259223938,0.2645289897918701,0.0142821557819843,0.5110911726951599,0.2241244614124298,0.0155017236247658
2023-08-01 15:51:58.600097,3,439,0.7560888528823853,0.4990488290786743,-0.3731098771095276,0.2001720070838928,0.15771484375,0.90283203125,0.50634765625,0.4652024507522583,0.6372896432876587,2.409052513030474e-07,0.3989507555961609,0.5792485475540161,-0.0107078524306416,0.3693594932556152,0.4740147292613983,-0.0014934036880731,0.3698574602603912,0.3855631947517395,0.0056757084093987,0.354744017124176,0.328886330127716,0.0149267604574561,0.4067887663841247,0.3695718050003052,0.0385078079998493,0.3980211019515991,0.2789582014083862,0.0355827212333679,0.3960948586463928,0.2229541987180709,0.0235721562057733,0.3968556523323059,0.1711854040622711,0.0135433776304125,0.4437967240810394,0.3548327088356018,0.034739077091217,0.4376842677593231,0.2523432970046997,0.0379288680851459,0.4347695708274841,0.1872058659791946,0.0293004307895898,0.4313683211803436,0.1293372511863708,0.0215318948030471,0.4766392111778259,0.3611240088939667,0.0246854182332754,0.4763945937156677,0.2681238651275635,0.0259399246424436,0.4756317734718323,0.2141632437705993,0.0230311285704374,0.4740417003631592,0.1683490425348281,0.0189954433590173,0.5131852030754089,0.381179541349411,0.0107083907350897,0.5148863792419434,0.3079045712947845,0.0123251928016543,0.5138179659843445,0.2649624943733215,0.0150473285466432,0.5119999051094055,0.2246947586536407,0.0157776493579149
2023-08-01 15:51:58.666134,4,440,0.7820868492126465,0.4895458221435547,-0.28621506690979,0.2583912909030914,0.05517578125,0.9072265625,0.3857421875,0.4641802310943603,0.6380088329315186,2.280282558331237e-07,0.3981557190418243,0.5802169442176819,-0.01094317343086,0.3702388703823089,0.4736677408218384,-0.0019999742507934,0.3731536269187927,0.3854241073131561,0.0045330380089581,0.3595629036426544,0.3292470872402191,0.012775738723576,0.4081976115703583,0.3711939454078674,0.0376523323357105,0.4002006649971008,0.2810814380645752,0.0334978550672531,0.3991345167160034,0.223886638879776,0.0203144941478967,0.4004955887794494,0.1703836619853973,0.0089689567685127,0.4448795616626739,0.3557801842689514,0.0326263606548309,0.438160628080368,0.2545100450515747,0.0333161503076553,0.435383528470993,0.18840192258358,0.0222020670771598,0.432424932718277,0.1274575889110565,0.0123426057398319,0.4774929583072662,0.3611391186714172,0.0212323833256959,0.4765505492687225,0.267650306224823,0.0194804780185222,0.4758800864219665,0.2126986980438232,0.0136176059022545,0.4741387069225311,0.1641092002391815,0.0074573261663317,0.5135975480079651,0.3803652226924896,0.0060000536032021,0.5141960978507996,0.3052360117435455,0.0047106519341468,0.5136110186576843,0.2603527009487152,0.0050029600970447,0.5119128227233887,0.2168820947408676,0.0036873498465865
2023-08-01 15:51:58.720922,5,441,0.7980730533599854,0.4773743748664856,-0.2032246738672256,0.3064193427562713,-0.21142578125,0.91650390625,0.3876953125,0.4592958390712738,0.6399364471435547,1.941038476616086e-07,0.3988751471042633,0.5758352279663086,-0.0046836733818054,0.3782868981361389,0.4692826867103576,0.0047155483625829,0.3833650350570678,0.3845970332622528,0.0102658048272132,0.3723289370536804,0.3255420327186584,0.0168916173279285,0.412061870098114,0.3711979985237121,0.040008395910263,0.4056968688964844,0.2822004854679107,0.0356389582157135,0.4047653973102569,0.2253123074769973,0.0227251686155796,0.4071640968322754,0.1710913032293319,0.01085343118757,0.4461493790149688,0.3555666506290436,0.0306945219635963,0.4407214820384979,0.2534881234169006,0.0290736276656389,0.4391920268535614,0.1864875853061676,0.0155657064169645,0.438019335269928,0.1235496699810028,0.003682259004563,0.4777137041091919,0.3613143563270569,0.0158332847058773,0.4785406589508056,0.2632214426994324,0.0110424952581524,0.480936735868454,0.2053254246711731,0.0015250571304932,0.481354296207428,0.1528244018554687,-0.0074387323111295,0.5104244947433472,0.3813943266868591,-0.0019173759501427,0.5131286382675171,0.3052043318748474,-0.0073500960133969,0.5155577659606934,0.2575015127658844,-0.0110123185440897,0.5162054300308228,0.2106453627347946,-0.0153687940910458
2023-08-01 15:51:58.766147,6,442,0.8034143447875977,0.4667390882968902,-0.1403253674507141,0.3420363366603851,0.06103515625,0.90673828125,0.2666015625,0.4571827948093414,0.6341440677642822,1.7251345241220409e-07,0.4024325609207153,0.5696325302124023,-0.0019252775236964,0.3872280716896057,0.4599423408508301,0.0076655354350805,0.3961610794067383,0.3782536089420318,0.0128327077254652,0.3898406326770782,0.3233264684677124,0.0186194498091936,0.4199359714984894,0.3644367158412933,0.037032775580883,0.4148184657096863,0.2743925452232361,0.0327924452722072,0.4129934310913086,0.2170724719762802,0.0213101748377084,0.4150707125663757,0.1650391370058059,0.0107948519289493,0.4505251348018646,0.3511198461055755,0.0261214766651392,0.4455668926239013,0.2463930994272232,0.0235630702227354,0.4438641369342804,0.1768474131822586,0.0110920323058962,0.4434897899627685,0.1153194606304168,0.0005502753192558,0.4800181686878204,0.3580601513385772,0.0102944551035761,0.483476459980011,0.2557201087474823,0.0049153338186442,0.4877226054668426,0.1954486966133117,-0.0045559802092611,0.4900626540184021,0.142551988363266,-0.013129886239767,0.5099816918373108,0.3780491352081299,-0.0080319931730628,0.5148124694824219,0.2985453307628631,-0.0138836065307259,0.5186696648597717,0.2487068176269531,-0.0176151860505342,0.5206696391105652,0.2019008249044418,-0.0218660645186901
2023-08-01 15:51:58.815935,7,443,0.8049831390380859,0.4340890347957611,-0.0136442128568887,0.4042062163352966,-0.21923828125,0.95361328125,0.06787109375,0.4604569375514984,0.635779857635498,1.547349626207506e-07,0.4101435840129852,0.5682083368301392,0.0020458109211176,0.40125572681427,0.4560428559780121,0.0120790880173444,0.4106482565402984,0.376234233379364,0.0168779864907264,0.4073777198791504,0.3193961083889007,0.0223480947315692,0.4339288175106048,0.3588434755802154,0.0390287041664123,0.4306577444076538,0.2649827003479004,0.0356565602123737,0.427445501089096,0.2063599824905395,0.025687426328659,0.4286879301071167,0.1541478633880615,0.0165622625499963,0.4605192244052887,0.3475483357906341,0.0259814783930778,0.4567237198352813,0.2409837245941162,0.0240697991102933,0.4552061557769775,0.169518157839775,0.0133296661078929,0.4553927481174469,0.1078754663467407,0.0043999711051583,0.4863835871219635,0.3551464676856994,0.0083830915391445,0.4917367100715637,0.2499676495790481,0.0044049299322068,0.4972112476825714,0.1881547719240188,-0.0033937476109713,0.5014391541481018,0.1354959309101104,-0.0107268774881958,0.5114632248878479,0.3744564056396484,-0.0114881983026862,0.5181095600128174,0.2924056351184845,-0.0161577258259058,0.5235256552696228,0.2403945028781891,-0.0189936161041259,0.5278180837631226,0.1931916624307632,-0.0223581306636333
2023-08-01 15:51:58.875684,8,444,0.7925967574119568,0.3948922455310821,0.1001828089356422,0.4536671638488769,-0.14111328125,0.9580078125,0.1328125,0.494020402431488,0.6415815353393555,2.94367254127792e-07,0.4421421885490417,0.5521790981292725,-0.0018484271131455,0.4442656636238098,0.4532821178436279,-0.004675256088376,0.458619087934494,0.3830114305019378,-0.0109975738450884,0.4630729258060455,0.3225488364696502,-0.0172989498823881,0.4813799262046814,0.3647709786891937,0.0056667365133762,0.4771172404289245,0.2575865089893341,-0.0122401947155594,0.4741714894771576,0.1864908337593078,-0.027994304895401,0.4745884537696838,0.1264449059963226,-0.0393228530883789,0.5025115013122559,0.3706197738647461,-0.0096070012077689,0.4974730610847473,0.252724140882492,-0.0248491540551185,0.4981693029403686,0.1716367155313491,-0.0398917235434055,0.5021693110466003,0.1029112935066223,-0.0509588420391082,0.5147125124931335,0.3941120505332947,-0.0276296995580196,0.5098804235458374,0.2843782007694244,-0.0431460589170455,0.5143444538116455,0.2161232084035873,-0.0542985834181308,0.5209760069847107,0.1588134616613388,-0.0629478991031646,0.5168914198875427,0.4309959709644317,-0.0469970777630806,0.5022574067115784,0.3620680868625641,-0.0600012205541133,0.4926895201206207,0.3186272382736206,-0.064606599509716,0.4846111834049225,0.2822516560554504,-0.0683567821979522
2023-08-01 15:51:58.922138,9,445,0.7797197103500366,0.3638955652713775,0.1708963811397552,0.4800121486186981,-0.3037109375,0.95556640625,0.005859375,0.5076003074645996,0.6308042407035828,2.7764130550167465e-07,0.4544265866279602,0.541030764579773,0.0007370084640569,0.4579503536224365,0.4515196681022644,-0.0045611630193889,0.4726036787033081,0.3840149641036987,-0.0127196991816163,0.4746133983135223,0.3297063112258911,-0.0213849283754825,0.5176762342453003,0.3663150668144226,-0.0052502700127661,0.5016318559646606,0.2564258873462677,-0.0243054833263158,0.4914758205413818,0.1838610172271728,-0.0399518385529518,0.4876191914081573,0.1241223514080047,-0.050844632089138,0.5326658487319946,0.3720776736736297,-0.0196892041712999,0.5096226334571838,0.2474375516176223,-0.0367648638784885,0.5034103393554688,0.1649281531572342,-0.0500398240983486,0.5043923258781433,0.0971318185329437,-0.0599726140499115,0.5342853665351868,0.3947497606277466,-0.0354407615959644,0.5144068002700806,0.2806866765022278,-0.0514599606394767,0.5108136534690857,0.2119135409593582,-0.0601036809384822,0.5153886675834656,0.1568953394889831,-0.0668326839804649,0.5221729278564453,0.4293440282344818,-0.0518667995929718,0.5058148503303528,0.3589681386947632,-0.0650942325592041,0.497994989156723,0.3101062178611755,-0.0699728727340698,0.4948142766952514,0.2649347186088562,-0.0738444626331329
2023-08-01 15:51:58.968818,10,446,0.7567917704582214,0.3237584233283996,0.2542014420032501,0.507767915725708,-0.0625,0.8955078125,0.0869140625,0.5198564529418945,0.6274822950363159,-6.370798644184107e-08,0.5277360677719116,0.5360666513442993,0.035473495721817,0.5310909152030945,0.4533922970294952,0.0452244020998477,0.5237745642662048,0.3952614068984985,0.0456613786518573,0.515606164932251,0.3517366051673889,0.0436666570603847,0.5547372102737427,0.3852573037147522,0.0232032258063554,0.5273797512054443,0.2698535323143005,0.0129540069028735,0.5079095363616943,0.1952051967382431,0.0050574489869177,0.4953814148902893,0.1342533528804779,-0.001657627755776,0.5515827536582947,0.3831408321857452,-0.0061932355165481,0.5201184749603271,0.2487067878246307,-0.0178113039582967,0.5048975348472595,0.1652476042509079,-0.0257237423211336,0.497809499502182,0.0965884327888488,-0.0336020030081272,0.531821072101593,0.386574774980545,-0.034513633698225,0.5176091194152832,0.247111514210701,-0.0445331558585166,0.5117320418357849,0.1616532653570175,-0.0527772977948188,0.5118041038513184,0.091017872095108,-0.0615060180425643,0.5011163353919983,0.3894880414009094,-0.0599414184689521,0.500816285610199,0.2879973948001861,-0.0732449889183044,0.5041514039039612,0.2245252579450607,-0.0811532884836196,0.5077697038650513,0.1672383248805999,-0.0884659141302108
2023-08-01 15:51:59.017078,11,447,0.7322174906730652,0.2872965633869171,0.324535459280014,0.5253521800041199,-0.10986328125,0.98876953125,-0.04638671875,0.5261204838752747,0.6194628477096558,-4.122054519939412e-08,0.5453094840049744,0.5275530815124512,0.0398592203855514,0.5485818386077881,0.4406801164150238,0.0522498339414596,0.5436723232269287,0.3751993775367737,0.0543644912540912,0.5335754156112671,0.3300459086894989,0.0530267469584941,0.5544449687004089,0.3766933381557464,0.0252691954374313,0.5274115204811096,0.2685786187648773,0.0166947413235902,0.5036439895629883,0.1996345520019531,0.0098920250311493,0.4889720976352691,0.1431939601898193,0.0036139441654086,0.547518789768219,0.3759512305259704,-0.0068015670403838,0.5208407044410706,0.2420035749673843,-0.0181264784187078,0.5069981217384338,0.1562399715185165,-0.0247407220304012,0.5000197291374207,0.087302029132843,-0.0311563462018966,0.5244209170341492,0.3835002481937408,-0.0370589233934879,0.5095705389976501,0.2448777258396148,-0.0463234335184097,0.5005624294281006,0.1626199781894683,-0.0504417605698108,0.4981091618537903,0.0951777994632721,-0.0559398047626018,0.4909380376338959,0.394290030002594,-0.0642748475074768,0.4881945550441742,0.2892591953277588,-0.0773971006274223,0.4902165532112121,0.2235539704561233,-0.0827495232224464,0.4944114685058594,0.1663096994161605,-0.0876220166683197
2023-08-01 15:51:59.079181,12,448,0.6936271786689758,0.2320035398006439,0.4124327003955841,0.5430976748466492,-0.2333984375,0.94287109375,-0.212890625,0.5294052958488464,0.6123102903366089,-5.990122531329689e-08,0.5569039583206177,0.5190170407295227,0.0411645248532295,0.5621336698532104,0.4390395879745483,0.0555400364100933,0.5556128025054932,0.3777278661727905,0.0600208900868892,0.5415205359458923,0.3366104662418365,0.0605826713144779,0.5644600987434387,0.3676806390285492,0.027720084413886,0.5267843008041382,0.2697592079639435,0.0206746011972427,0.4965650737285614,0.2125390321016311,0.0149361537769436,0.4751855432987213,0.1674769222736358,0.0098836366087198,0.5500177145004272,0.3642612993717193,-0.0027497091796249,0.5223475098609924,0.2315102070569992,-0.0127782803028821,0.5075222253799438,0.1493851393461227,-0.0175381675362586,0.4979010224342346,0.0845761895179748,-0.0218499656766653,0.5224205255508423,0.3744078874588012,-0.0311782788485288,0.5058664679527283,0.2390327155590057,-0.0404257923364639,0.4967003762722015,0.1603927165269851,-0.0440799295902252,0.4943929314613342,0.0969765782356262,-0.048100758343935,0.4858047664165497,0.3920565247535705,-0.0561463944613933,0.4791758954524994,0.2867641448974609,-0.0695651397109031,0.4806557893753052,0.2224917262792587,-0.0744210705161094,0.4851104915142059,0.1671559661626815,-0.078005701303482
2023-08-01 15:51:59.145415,13,449,0.6572501063346863,0.1893326938152313,0.4774169325828552,0.5515872240066528,-0.3076171875,0.896484375,-0.1552734375,0.5360666513442993,0.6045501232147217,-2.0997477534479003e-08,0.564609706401825,0.5118975639343262,0.0319093577563762,0.5680802464485168,0.4259235858917236,0.0401155240833759,0.5525715947151184,0.3595615923404693,0.0398394502699375,0.5260710716247559,0.3184352517127991,0.0354773364961147,0.5757518410682678,0.3651895821094513,0.016371414065361,0.5357450842857361,0.2679868936538696,0.0043515958823263,0.5027433633804321,0.2276238054037094,-0.0062302243895828,0.4791654944419861,0.2015250027179718,-0.0134520661085844,0.5522425770759583,0.3600806295871734,-0.0103941112756729,0.5248340368270874,0.2280281782150268,-0.0203393679112195,0.5093075037002563,0.1470695286989212,-0.026713253930211,0.4982278347015381,0.0810993313789367,-0.0327419824898242,0.5185882449150085,0.3713273406028747,-0.035654179751873,0.5040470361709595,0.2370220422744751,-0.0459125787019729,0.496712327003479,0.1604482680559158,-0.051561951637268,0.495069146156311,0.0989772379398346,-0.0568374656140804,0.4770345985889435,0.3926423788070678,-0.057929940521717,0.4717991948127746,0.2907426357269287,-0.0696238800883293,0.4726338386535644,0.2281722575426101,-0.0722793564200401,0.4758349657058716,0.1728390902280807,-0.0744939446449279
2023-08-01 15:51:59.204915,14,450,0.6370659470558167,0.1747566610574722,0.5075646638870239,0.5531593561172485,-0.2275390625,0.9072265625,-0.2099609375,0.5437885522842407,0.5983414649963379,6.076395919762946e-08,0.584639847278595,0.5062341094017029,0.0251627713441848,0.5935899615287781,0.4092786014080047,0.0343773663043975,0.5839368104934692,0.3289489150047302,0.0376820154488086,0.567494809627533,0.2728567719459533,0.0374821498990058,0.5782626271247864,0.3506404161453247,0.0110293868929147,0.5395807027816772,0.251836359500885,0.0047914944589138,0.5136616230010986,0.2046191841363906,-0.0009729537414386,0.4966373443603515,0.1667266339063644,-0.0059190262109041,0.5457286238670349,0.3516068458557129,-0.0093278372660279,0.5141503810882568,0.2245957553386688,-0.0173267386853694,0.498697966337204,0.143137440085411,-0.0240519884973764,0.4899712204933166,0.0780585706233978,-0.029954195022583,0.5074706077575684,0.365383893251419,-0.0276790615171194,0.4874730706214905,0.2429137676954269,-0.0372793897986412,0.4824009537696838,0.1632622927427292,-0.0453176200389862,0.4825197756290436,0.1010079681873321,-0.0517815947532653,0.466813325881958,0.3899031579494476,-0.0430228412151336,0.4570448398590088,0.2913394570350647,-0.0536903850734233,0.4540073275566101,0.2328567206859588,-0.0568013302981853,0.4540026783943176,0.1822478026151657,-0.0588803514838218
2023-08-01 15:51:59.264693,15,451,0.6253896355628967,0.17046919465065,0.5245887637138367,0.5519371628761292,-0.22021484375,0.90380859375,-0.3291015625,0.5442265272140503,0.5921971797943115,2.160943068929555e-07,0.6012458801269531,0.5194647908210754,0.0148572027683258,0.622292160987854,0.4290201961994171,0.0199576187878847,0.6165363192558289,0.3396046459674835,0.0237849839031696,0.6094855070114136,0.2738284468650818,0.0260126460343599,0.5858531594276428,0.3507404327392578,-0.0078311525285243,0.5634585618972778,0.2377058416604995,-0.0131245870143175,0.5478695034980774,0.1811355650424957,-0.0131302895024418,0.5363575220108032,0.1384646147489547,-0.0129756228998303,0.5422143936157227,0.3508720695972442,-0.0203346982598304,0.5203622579574585,0.2163422852754593,-0.0326430387794971,0.507006824016571,0.1360577046871185,-0.0381529293954372,0.4983785450458526,0.0754381716251373,-0.0408546961843967,0.5017433166503906,0.3688699603080749,-0.0296030156314373,0.4861506521701813,0.2428925335407257,-0.04165680706501,0.4813790619373321,0.1640518605709076,-0.0483504198491573,0.4795949459075928,0.1037637889385223,-0.0518428981304168,0.465664803981781,0.4027720689773559,-0.035855758935213,0.454499214887619,0.3018412590026855,-0.0466150753200054,0.4513223469257355,0.2459114491939544,-0.048668548464775,0.45060795545578,0.1964741945266723,-0.0483375266194343
2023-08-01 15:51:59.310394,16,452,0.619439959526062,0.1701087057590484,0.5349406003952026,0.5488130450248718,-0.12109375,0.9228515625,-0.35009765625,0.546614408493042,0.5994094610214233,2.490708368441119e-07,0.607284426689148,0.5265059471130371,0.0070144850760698,0.6280972361564636,0.4315738976001739,0.0102206775918602,0.6180330514907837,0.3439753353595733,0.0125910174101591,0.6084862351417542,0.2771565616130829,0.0135349724441766,0.5889842510223389,0.3486173152923584,-0.0064808255992829,0.5664594173431396,0.2362111657857895,-0.0147003959864377,0.552320659160614,0.1770072281360626,-0.0191304124891757,0.5416285395622253,0.1312711238861084,-0.0219165086746215,0.5436859130859375,0.3497453033924103,-0.0164879374206066,0.5242405533790588,0.2197608351707458,-0.027801988646388,0.513050377368927,0.1397535055875778,-0.0351606309413909,0.5058439373970032,0.0779149234294891,-0.0395084582269191,0.502997636795044,0.368496835231781,-0.0249863769859075,0.4883755147457123,0.2463001608848571,-0.0362804681062698,0.4826053977012634,0.1683218777179718,-0.0443263463675975,0.4803095161914825,0.1068425476551055,-0.0491878017783165,0.4670917093753814,0.4034193754196167,-0.0316641852259635,0.4565941989421844,0.3055928945541382,-0.0423405244946479,0.4537734389305115,0.2484316825866699,-0.0452570393681526,0.4544426202774048,0.1984490305185318,-0.0456530600786209
2023-08-01 15:51:59.358016,17,453,0.6161090731620789,0.1670711785554886,0.5419766902923584,0.5465877056121826,-0.3310546875,0.90478515625,-0.3388671875,0.5454267859458923,0.6038345098495483,2.6509235340199666e-07,0.6096000671386719,0.5321519374847412,0.0052248495630919,0.6331767439842224,0.4374286234378814,0.0071825934574007,0.6258767247200012,0.3492994904518127,0.0087895700708031,0.6164604425430298,0.2813034355640411,0.0090635577216744,0.5945054888725281,0.3542315661907196,-0.0106570115312933,0.5740464329719543,0.2374529987573623,-0.0197156425565481,0.5593109726905823,0.1751396059989929,-0.0241339225322008,0.5467060804367065,0.1271235942840576,-0.0268957819789648,0.5485040545463562,0.3548167645931244,-0.0199479777365922,0.5317469239234924,0.2209348231554031,-0.0327398292720317,0.5197309851646423,0.139464721083641,-0.0406528152525424,0.5102827548980713,0.0774053037166595,-0.0453524067997932,0.5066132545471191,0.3724241852760315,-0.0275610871613025,0.49619260430336,0.2475882172584533,-0.0396036952733993,0.4915765821933746,0.1688607782125473,-0.0478191561996936,0.4887352287769317,0.1081381142139434,-0.0527711994946002,0.4696529805660248,0.4054741561412811,-0.0334240943193435,0.461353063583374,0.3064378499984741,-0.0446219369769096,0.459373265504837,0.2486752271652221,-0.0478064827620983,0.459601879119873,0.1989502757787704,-0.0483813546597957
2023-08-01 15:51:59.415656,18,454,0.6170332431793213,0.1652717441320419,0.5452451109886169,0.5428286790847778,-0.24365234375,0.9189453125,-0.298828125,0.5423096418380737,0.6102670431137085,2.87479878124941e-07,0.6118281483650208,0.5440276265144348,0.0062818517908453,0.6390518546104431,0.450602114200592,0.0109460623934865,0.6314374208450317,0.3568103909492492,0.016052259132266,0.6232618689537048,0.2861589789390564,0.0209621042013168,0.5967971682548523,0.3584800064563751,-0.0023526302538812,0.5808205008506775,0.2403444200754165,-0.0050986404530704,0.5691043138504028,0.1803511828184127,-0.0052233897149562,0.5598213076591492,0.1354279518127441,-0.0050670085474848,0.5473558902740479,0.3566501438617706,-0.0085117686539888,0.5349954962730408,0.2244335263967514,-0.0159112066030502,0.5272747874259949,0.1462491899728775,-0.020121295005083,0.5224193930625916,0.0873547792434692,-0.0219202060252428,0.5043788552284241,0.3729462623596191,-0.0130096087232232,0.4954409003257751,0.2501701712608337,-0.0203601866960525,0.4936442375183105,0.1728145629167556,-0.0258233081549406,0.4929668307304382,0.1131390333175659,-0.0288433581590652,0.4688923954963684,0.4053628146648407,-0.0156651716679334,0.4625172615051269,0.3070849180221557,-0.0214736815541982,0.4614732265472412,0.250684380531311,-0.0215872582048177,0.4632491171360016,0.2027938514947891,-0.0200497545301914
2023-08-01 15:51:59.462485,19,455,0.6161381602287292,0.1642903834581375,0.5479833483695984,0.5413840413093567,-0.30859375,0.943359375,-0.31689453125,0.5352479219436646,0.6194983124732971,2.7028414706364856e-07,0.6086923480033875,0.5561965703964233,0.0051109888590872,0.6401307582855225,0.4610059261322021,0.0093679456040263,0.6322917938232422,0.3658165633678436,0.0141228456050157,0.6244625449180603,0.2957594394683838,0.0185818523168563,0.5967073440551758,0.3672074377536773,-0.0026101062539964,0.580144464969635,0.2485033124685287,-0.0064722248353064,0.5675147175788879,0.1867436170578003,-0.0082325786352157,0.5569647550582886,0.1390370577573776,-0.0093805734068155,0.5456083416938782,0.3636927604675293,-0.0087145334109663,0.5344744324684143,0.2315609157085418,-0.0159303210675716,0.5269067883491516,0.1521761119365692,-0.0208777617663145,0.521726667881012,0.0913968980312347,-0.0236361399292945,0.5010160803794861,0.3782600462436676,-0.0134089831262826,0.4945448338985443,0.2552540600299835,-0.0206693168729543,0.4932507574558258,0.1782017946243286,-0.0265227369964122,0.4923388063907623,0.1178525984287262,-0.0301767326891422,0.4634809195995331,0.4098940789699554,-0.0164352897554636,0.4609282612800598,0.3102602958679199,-0.0225756634026765,0.4604462385177612,0.2549828290939331,-0.022767849266529,0.4611829817295074,0.207783356308937,-0.0214494280517101
2023-08-01 15:51:59.509010,20,456,0.616503894329071,0.1649869829416275,0.5476589202880859,0.5410841107368469,-0.1630859375,0.94970703125,-0.27734375,0.53316730260849,0.6257905960083008,2.3115194380807225e-07,0.6056922674179077,0.5624902844429016,0.0102595491334795,0.6353479623794556,0.467565655708313,0.0169757828116416,0.6263698935508728,0.3707480430603027,0.023311523720622,0.6220672130584717,0.300489604473114,0.028869280591607,0.5912167429924011,0.3705375492572784,0.0025723204016685,0.573864758014679,0.2515128254890442,0.0023541627451777,0.5610396862030029,0.1912494450807571,0.0033594367559999,0.5498946905136108,0.1454169154167175,0.0039439885877072,0.540769636631012,0.367303192615509,-0.0051797963678836,0.5267773270606995,0.2338664978742599,-0.0080505078658461,0.5172638893127441,0.1571858525276184,-0.0099706733599305,0.5106520056724548,0.1011352241039276,-0.0110356044024229,0.4960578382015228,0.3831552863121032,-0.0111440932378172,0.48782479763031,0.256707102060318,-0.0148420445621013,0.4864400625228882,0.18159019947052,-0.0187303628772497,0.4856131374835968,0.1234151422977447,-0.0218628887087106,0.4567801356315613,0.4152655303478241,-0.0149809373542666,0.4495560526847839,0.3144181966781616,-0.0193091463297605,0.4492249190807342,0.2586357593536377,-0.0189010817557573,0.4516215026378631,0.2100450247526168,-0.0174831878393888
2023-08-01 15:51:59.555557,21,457,0.6182894706726074,0.1671870350837707,0.5446655750274658,0.5413926243782043,-0.2177734375,0.9306640625,-0.296875,0.5311006903648376,0.629611074924469,2.807425403261732e-07,0.6044329404830933,0.5635718107223511,0.0077992342412471,0.6353892683982849,0.4711207449436188,0.0133411232382059,0.6261423826217651,0.376394510269165,0.0189626179635524,0.6190151572227478,0.3066185116767883,0.0242951996624469,0.5883698463439941,0.3741697371006012,0.0019537121988832,0.5704995393753052,0.2527954578399658,0.0006880099535919,0.5574913024902344,0.1919460594654083,0.0009102720068767,0.5464397668838501,0.1453690379858017,0.0012703614775091,0.5366697311401367,0.3707440197467804,-0.0043161655776202,0.5240241289138794,0.2361243516206741,-0.009127227589488,0.5151644349098206,0.1574844717979431,-0.011965830810368,0.509133517742157,0.0990108251571655,-0.0130572877824306,0.4913627505302429,0.3860099017620086,-0.0090674962848424,0.4842021763324737,0.2597253620624542,-0.0141208721324801,0.4832397997379303,0.1837457418441772,-0.0181916076689958,0.4828304648399353,0.1248327493667602,-0.0205409508198499,0.4528260827064514,0.4178557693958282,-0.0119215529412031,0.4482371509075165,0.314979076385498,-0.0157553236931562,0.4475710988044739,0.2595319151878357,-0.0143266497179865,0.4491304755210876,0.2122246176004409,-0.0117654558271169
2023-08-01 15:51:59.616984,22,458,0.6288157105445862,0.1765877604484558,0.5300207138061523,0.5408194661140442,-0.23974609375,0.9140625,-0.3037109375,0.5279995799064636,0.6295710206031799,2.991424139509036e-07,0.6013675928115845,0.5657122731208801,0.0085323490202426,0.6341712474822998,0.4742801189422607,0.0147574841976165,0.6253063678741455,0.3780426681041717,0.0213068407028913,0.6193575263023376,0.3074516057968139,0.0279107354581356,0.5858688950538635,0.3762750625610351,0.0024651908315718,0.5690974593162537,0.2540310621261596,0.002776279579848,0.5567030310630798,0.1939458101987838,0.0049633732996881,0.5465636849403381,0.149319976568222,0.0069383466616272,0.5338200926780701,0.3714026510715484,-0.0033395502250641,0.5234494209289551,0.2359180897474289,-0.0073044332675635,0.5156682133674622,0.1569018512964248,-0.0088269123807549,0.5107744336128235,0.099393218755722,-0.0085939830169081,0.4888696372509002,0.3861218988895416,-0.007360974792391,0.4824243783950805,0.2611756920814514,-0.0113498726859688,0.481828361749649,0.1852974593639373,-0.0142838088795542,0.4819709360599518,0.1272319555282592,-0.0156771894544363,0.4508734941482544,0.4182654023170471,-0.0093924533575773,0.4462600946426391,0.3169889748096466,-0.0118143605068326,0.4459640383720398,0.2620670795440674,-0.009230189025402,0.4478268027305603,0.2152664214372635,-0.0057531804777681
2023-08-01 15:51:59.665262,23,459,0.6445329785346985,0.1945730447769165,0.5062710642814636,0.5388953685760498,-0.17724609375,0.93359375,-0.30224609375,0.5284203290939331,0.6318933963775635,2.875535471957847e-07,0.6013872623443604,0.5678967237472534,0.0061768582090735,0.6340872049331665,0.4749267399311065,0.0113493129611015,0.625257670879364,0.3780556619167328,0.0176179017871618,0.6187807321548462,0.305890291929245,0.0243134312331676,0.587151288986206,0.3789426982402801,-0.0014039785601198,0.5692287087440491,0.2565096616744995,-0.0015180339105427,0.556184709072113,0.1958473920822143,0.001128144795075,0.5460579991340637,0.1506053209304809,0.0033079157583415,0.5350465774536133,0.3744844198226928,-0.0061521041207015,0.5221325755119324,0.2372544258832931,-0.0110597880557179,0.5143738985061646,0.1577520966529846,-0.0121461898088455,0.5100602507591248,0.0995939373970031,-0.0115815317258238,0.490332692861557,0.388791412115097,-0.0092162238433957,0.4817821085453033,0.2615998983383178,-0.0143862217664718,0.4811977744102478,0.1856196373701095,-0.0171423573046922,0.4813045859336853,0.1270858943462371,-0.0182316955178976,0.4537870585918426,0.4201195538043976,-0.0104133924469351,0.4484308660030365,0.3178800344467163,-0.0141864167526364,0.446853369474411,0.2623408436775207,-0.0122993569821119,0.4473109841346741,0.2145735919475555,-0.009232466109097
2023-08-01 15:51:59.726528,24,460,0.6644206047058105,0.2180133163928985,0.4719384610652923,0.5369259715080261,-0.671875,0.90380859375,-0.26953125,0.5313388109207153,0.6339467763900757,2.857069887340913e-07,0.602044403553009,0.5679800510406494,0.0072089964523911,0.6323491334915161,0.4739280939102173,0.0120976800099015,0.6240946054458618,0.3778811693191528,0.0171998292207717,0.6181133389472961,0.3072835505008697,0.0222122557461261,0.5863046050071716,0.3787330687046051,-0.000500033434946,0.5689800381660461,0.2571603059768677,-0.0025566616095602,0.5563642382621765,0.1959615796804428,-0.0021269833669066,0.5456753969192505,0.1494198888540268,-0.0013945238897576,0.5353173017501831,0.37437304854393,-0.0070026800967752,0.5235702991485596,0.2383417189121246,-0.0128493662923574,0.5154237151145935,0.1586239039897918,-0.0154469981789588,0.5102323293685913,0.0992348492145538,-0.0160979218780994,0.4908106327056885,0.3890735208988189,-0.0119031481444835,0.4836377501487732,0.2625950574874878,-0.0175588857382535,0.4823521375656128,0.1865494847297668,-0.0208557900041341,0.4820529520511627,0.1272430419921875,-0.0224975179880857,0.4529584050178528,0.4204824864864349,-0.0149928573518991,0.4475986957550049,0.3161706328392029,-0.019322557374835,0.4469691812992096,0.2604511976242065,-0.017423179000616,0.4485962390899658,0.2123603671789169,-0.0143640367314219
2023-08-01 15:51:59.790443,25,461,0.7059959769248962,0.2724882960319519,0.3931220173835754,0.5222785472869873,-0.216796875,0.892578125,-0.2041015625,0.5380183458328247,0.622047483921051,1.9940890183534066e-07,0.6022714972496033,0.547330915927887,0.0141655718907713,0.6240521669387817,0.4535523355007171,0.0207685027271509,0.6166610717773438,0.3647944033145904,0.0254606399685144,0.6112423539161682,0.2990129292011261,0.028920941054821,0.5859196186065674,0.3709799349308014,0.0018560618627816,0.5616236925125122,0.2574557960033417,-0.0010820190655067,0.546370267868042,0.1999635249376297,-0.0010800587479025,0.5348890423774719,0.1564024984836578,-0.0013171092141419,0.5399246215820312,0.3679916560649872,-0.0096919378265738,0.5191566944122314,0.2357399761676788,-0.0175391621887683,0.5087178349494934,0.1582743227481842,-0.0216379668563604,0.5030006766319275,0.0993878841400146,-0.0240664612501859,0.4955969750881195,0.3820995986461639,-0.0191648937761783,0.4826835095882416,0.2582544684410095,-0.0275291204452514,0.4801355600357055,0.1811305433511734,-0.0327429771423339,0.4800562262535095,0.1197848916053772,-0.0363006852567195,0.4546806216239929,0.4122922122478485,-0.0260543618351221,0.4454726278781891,0.3113421201705932,-0.033863253891468,0.4434503316879272,0.2547475695610046,-0.0343557298183441,0.443870484828949,0.2041705995798111,-0.0336027964949607
2023-08-01 15:51:59.848224,26,462,0.7355442643165588,0.31639364361763,0.3228293657302856,0.5046294331550598,-0.04931640625,1.00341796875,-0.25390625,0.5391237735748291,0.6137508749961853,2.101973706203353e-07,0.6017972826957703,0.5412019491195679,0.0170830357819795,0.6227607131004333,0.4511386156082153,0.0255178939551115,0.6149356961250305,0.3628862202167511,0.0316117331385612,0.6049598455429077,0.2972443997859955,0.0362881533801555,0.5847929120063782,0.3651778101921081,0.0061787953600287,0.559201717376709,0.2540792822837829,0.0040850639343261,0.5441001057624817,0.1962300091981887,0.0047935559414327,0.5341676473617554,0.1524620801210403,0.0054235998541116,0.5407677292823792,0.3613114356994629,-0.0063348896801471,0.5192573666572571,0.2306763231754303,-0.0149678559973835,0.5077253580093384,0.1520079523324966,-0.0193760059773921,0.5020758509635925,0.0927105844020843,-0.0211282167583704,0.4979092478752136,0.376109629869461,-0.0165067557245492,0.4829577505588531,0.2534388899803161,-0.0254160426557064,0.47835773229599,0.1764034330844879,-0.0301354248076677,0.4776126146316528,0.1152800917625427,-0.0323445983231067,0.4570679664611816,0.4089578092098236,-0.0238320585340261,0.445799171924591,0.3084515631198883,-0.0314618311822414,0.4431793689727783,0.2517865300178528,-0.0312795005738735,0.4436081051826477,0.2007244378328323,-0.0294125378131866
2023-08-01 15:51:59.900262,27,463,0.7625681757926941,0.3530189990997314,0.2448799461126327,0.4836333692073822,-0.71044921875,0.9970703125,-0.12158203125,0.5397370457649231,0.6133188605308533,1.3870747750388548e-07,0.5963593125343323,0.5354403257369995,0.0167037919163703,0.6157345175743103,0.4425419569015503,0.0237395409494638,0.6094998121261597,0.3571820557117462,0.0276064351201057,0.6001200675964355,0.2939140796661377,0.0289346873760223,0.5860339999198914,0.363881766796112,0.0037854819092899,0.5566545724868774,0.2571398913860321,-0.0022013043053448,0.5379006862640381,0.2005771994590759,-0.0061681382358074,0.5261853933334351,0.1558012515306472,-0.0093184169381856,0.5443089604377747,0.361203521490097,-0.0110566932708024,0.5175009965896606,0.2343315929174423,-0.0204891972243785,0.5035880208015442,0.154417335987091,-0.0276312585920095,0.4968743324279785,0.0914361774921417,-0.0326391197741031,0.5018450617790222,0.3761173188686371,-0.0240690484642982,0.4836148023605346,0.2549058198928833,-0.0350431241095066,0.4788009524345398,0.1742494702339172,-0.0438043773174285,0.4792459309101105,0.1081874668598175,-0.0499256402254104,0.4601167440414428,0.406738817691803,-0.0343603640794754,0.4476153254508972,0.307545393705368,-0.046480756253004,0.4443528652191162,0.2487098276615142,-0.0504727698862552,0.4451966285705566,0.1942566633224487,-0.0522281415760517
2023-08-01 15:51:59.956430,28,464,0.79112708568573,0.4096866548061371,0.1165690273046493,0.4389606714248657,0.3642578125,0.904296875,-0.0185546875,0.5475859045982361,0.6053175330162048,-3.405972037739957e-08,0.5836253762245178,0.512982964515686,0.0399866923689842,0.5874998569488525,0.4317669868469238,0.0516540333628654,0.5685824751853943,0.36658975481987,0.0537452585995197,0.5377714037895203,0.3295036852359772,0.0509544685482978,0.5897626280784607,0.3678153157234192,0.0207353048026561,0.542708694934845,0.2687317728996277,0.0149876801297068,0.5054412484169006,0.2329062223434448,0.010401071049273,0.4796602725982666,0.2112037241458892,0.0070272535085678,0.5604036450386047,0.3584045171737671,-0.0084995832294225,0.525485634803772,0.2238654494285583,-0.0132593791931867,0.5056136250495911,0.1428225189447403,-0.015943270176649,0.4914883077144623,0.0795322656631469,-0.0195697098970413,0.5232590436935425,0.3701449930667877,-0.0348329059779644,0.5014748573303223,0.2342387288808822,-0.0405727960169315,0.4910616874694824,0.1576199829578399,-0.0440705306828022,0.4869035482406616,0.0962030589580535,-0.0487696193158626,0.4811378419399261,0.3958854377269745,-0.0572069883346557,0.4707379341125488,0.2893726825714111,-0.0654955804347992,0.4693615734577179,0.2282255738973617,-0.06531323492527,0.4704548716545105,0.1738671958446502,-0.0658742412924766
2023-08-01 15:52:00.004957,29,465,0.7991212606430054,0.4193042516708374,0.0740843936800956,0.4243826270103454,-0.724609375,1.0224609375,-0.0205078125,0.539316713809967,0.6144758462905884,-6.02461796006537e-08,0.5648754239082336,0.5247410535812378,0.0350711680948734,0.5683875679969788,0.4396885633468628,0.0503339320421218,0.56219083070755,0.3804323971271515,0.057278886437416,0.5501164197921753,0.3400488793849945,0.06112802028656,0.5663504600524902,0.3621959090232849,0.0274128075689077,0.5324749946594238,0.2690654993057251,0.0209479164332151,0.5070207715034485,0.2101965993642807,0.0153485601767897,0.4885804355144501,0.1622385531663894,0.0101741235703229,0.5521207451820374,0.3586488962173462,0.0001154369892901,0.5219055414199829,0.2333642840385437,-0.010587596334517,0.5049540996551514,0.1498853862285614,-0.0167204495519399,0.4922837913036346,0.0789705216884613,-0.0214413609355688,0.5243639349937439,0.3678912222385406,-0.0258389525115489,0.5047339200973511,0.2427602559328079,-0.0381355360150337,0.4942369759082794,0.16326704621315,-0.0456128008663654,0.4885563552379608,0.0954083204269409,-0.0509582422673702,0.4860790967941284,0.3862453699111938,-0.0486367866396904,0.4753079116344452,0.2880088686943054,-0.0643713474273681,0.4724844396114349,0.2237872183322906,-0.0712158232927322,0.4732173383235931,0.1670488268136978,-0.0755993872880935
2023-08-01 15:52:00.055686,30,466,0.8066473603248596,0.455600380897522,-0.0384457670152187,0.3745269477367401,0.447265625,0.86767578125,0.21142578125,0.5409623384475708,0.6220741868019104,-6.773291971740036e-08,0.5556529760360718,0.5271241068840027,0.0368489623069763,0.5579408407211304,0.4389917552471161,0.0482345037162303,0.5510134696960449,0.3758816123008728,0.0501215644180774,0.5441582202911377,0.3266913294792175,0.0496010854840278,0.5598773956298828,0.3692450821399688,0.0239143650978803,0.5269238352775574,0.2614924609661102,0.0136950556188821,0.5038227438926697,0.1930905729532241,0.0069788335822522,0.4896759688854217,0.1365606486797332,0.001467885216698,0.552217960357666,0.3676280677318573,-0.0069514391943812,0.5173093676567078,0.234753206372261,-0.0203035045415163,0.4985288977622986,0.1511910408735275,-0.0274007990956306,0.487729549407959,0.0828281044960022,-0.0333125218749046,0.5301715135574341,0.3761258423328399,-0.0365581251680851,0.5092592239379883,0.23992420732975,-0.0478665195405483,0.4974604249000549,0.1582539677619934,-0.0547205545008182,0.4922595918178558,0.0898829996585846,-0.0613614842295646,0.4990161955356598,0.3901211023330688,-0.0632979720830917,0.4923011362552643,0.287876546382904,-0.0769874304533004,0.4903267621994018,0.222136378288269,-0.0843992680311203,0.4897572994232178,0.1643239110708236,-0.0906680971384048
2023-08-01 15:52:00.111800,31,467,0.806182861328125,0.4705426096916199,-0.0973582416772842,0.3452248275279999,-0.46630859375,0.93896484375,0.169921875,0.5363544225692749,0.629402220249176,-3.5139859022592645e-08,0.5408316254615784,0.5354872941970825,0.0354374125599861,0.5430055856704712,0.4485886693000793,0.0438144132494926,0.5373865962028503,0.3864841759204864,0.0430429205298423,0.5295982956886292,0.334632933139801,0.04065927490592,0.5585256814956665,0.3771643340587616,0.0177597776055336,0.5272084474563599,0.2590692639350891,0.0049510109238326,0.5047711730003357,0.1844471991062164,-0.0031357163097709,0.4913309514522552,0.1232107281684875,-0.0094596287235617,0.5552799105644226,0.3779643774032593,-0.0128336809575557,0.5157499313354492,0.2411949783563614,-0.0293468348681926,0.4945041835308075,0.1560888886451721,-0.0386698730289936,0.4841722846031189,0.0874949097633361,-0.0464451387524604,0.5357887148857117,0.3858442306518554,-0.0419110767543315,0.512213945388794,0.2437008917331695,-0.053869042545557,0.4995911717414856,0.1570270210504531,-0.0600543096661567,0.4948282539844513,0.0849511623382568,-0.0665877535939216,0.5064455270767212,0.3952884674072265,-0.0682448148727417,0.499892920255661,0.2883304953575134,-0.0810475572943687,0.4984951019287109,0.221804678440094,-0.0874846801161766,0.4981745183467865,0.1617172360420227,-0.0934171974658966
2023-08-01 15:52:00.160033,32,468,0.7959828972816467,0.4916877746582031,-0.1962565779685974,0.2934922277927398,-0.0380859375,0.95361328125,0.2626953125,0.5227246880531311,0.6302950382232666,4.323533886463338e-08,0.4820646345615387,0.5384901165962219,0.0244742147624492,0.4882586896419525,0.4435840547084808,0.0309746544808149,0.499242216348648,0.3762340247631073,0.0297962222248315,0.5067588686943054,0.3238829672336578,0.0272724293172359,0.5447753071784973,0.3721795678138733,0.0199924036860466,0.5184110403060913,0.2623695731163025,0.00737174320966,0.4998681843280792,0.1840504109859466,-0.0040112799033522,0.4894108474254608,0.1181119382381439,-0.0132196824997663,0.5508161187171936,0.3711735010147095,-0.0048602516762912,0.5130171775817871,0.2404733747243881,-0.0203166808933019,0.4961634576320648,0.1550737023353576,-0.0324454382061958,0.4893112778663635,0.0855494439601898,-0.0419676527380943,0.5413854718208313,0.378174751996994,-0.0297284070402383,0.5120874047279358,0.2453896254301071,-0.0454931147396564,0.497128278017044,0.1582919657230377,-0.0556829571723938,0.4909847974777221,0.0863465666770935,-0.0635578632354736,0.518858790397644,0.3874080777168274,-0.0530539378523826,0.5106497406959534,0.2869575023651123,-0.0671894177794456,0.5078641772270203,0.2226894199848175,-0.0745087638497352,0.5087878108024597,0.1651319563388824,-0.0806117206811904
2023-08-01 15:52:00.209116,33,469,0.7855414748191833,0.5008098483085632,-0.2605369091033935,0.2534449994564056,0.0869140625,0.8837890625,0.34814453125,0.5044897794723511,0.6272594332695007,2.2156004320095243e-07,0.4551884829998016,0.5488377213478088,-0.0035272506065666,0.4566331505775451,0.4539755582809448,-0.0058681075461208,0.4710761904716491,0.3870868384838104,-0.0110080102458596,0.4734559059143066,0.3273614943027496,-0.0161429923027753,0.4917306900024414,0.3566221594810486,0.0039023752324283,0.4847387075424194,0.2490729242563247,-0.0139190163463354,0.4778233468532562,0.1748388856649398,-0.0294235441833734,0.4755843579769134,0.1129552721977233,-0.0404732599854469,0.5103095769882202,0.3570130169391632,-0.0091367289423942,0.5021498203277588,0.2380166351795196,-0.0271623320877552,0.5001663565635681,0.1570502072572708,-0.0423758290708065,0.5021688342094421,0.0879321098327636,-0.0525226704776287,0.5240048766136169,0.3714216947555542,-0.0247934944927692,0.5190392732620239,0.2559412717819214,-0.0430646948516368,0.5190536975860596,0.1822401136159896,-0.0539252236485481,0.5215011239051819,0.1200128197669982,-0.0606724433600902,0.531490683555603,0.3983519971370697,-0.0417035594582557,0.5258288383483887,0.3137616813182831,-0.0557182729244232,0.5230691432952881,0.257874071598053,-0.0604742765426635,0.521131157875061,0.2101272642612457,-0.0633229464292526
2023-08-01 15:52:00.271927,34,470,0.7714963555335999,0.5039714574813843,-0.3246037364006042,0.2131633013486862,-0.0078125,0.904296875,0.34033203125,0.4808797836303711,0.6269637942314148,2.467305364461936e-07,0.4233586192131042,0.5585806965827942,-0.0054521840065717,0.4125619530677795,0.4502685964107513,-0.0015088032232597,0.4255260229110718,0.3699305951595306,-0.0011568811023607,0.4286797642707824,0.3066993057727813,0.0001475432509323,0.4531717598438263,0.347886323928833,0.0264911577105522,0.4544246196746826,0.2535766363143921,0.0190578382462263,0.4532913267612457,0.1950496584177017,0.0064588468521833,0.4543871283531189,0.1406382918357849,-0.0044433553703129,0.4829981923103332,0.3373461067676544,0.0156148569658398,0.4856461584568023,0.2283364832401275,0.0100881215184926,0.4861005842685699,0.1546652168035507,-0.0023396105971187,0.487253874540329,0.0898704528808593,-0.0126387542113661,0.5094931721687317,0.3481381833553314,-1.953315040736925e-05,0.5192004442214966,0.2419610619544983,-0.007448345888406,0.524439811706543,0.1755215376615524,-0.0170568916946649,0.5277538895606995,0.1178503930568695,-0.0253464337438344,0.5339161157608032,0.3729496300220489,-0.0183070637285709,0.5438135266304016,0.2894559502601623,-0.0256445053964853,0.5501358509063721,0.232543483376503,-0.0300291627645492,0.5549328327178955,0.1814766824245453,-0.0342647992074489
2023-08-01 15:52:00.341111,35,471,0.7665998339653015,0.5029677748680115,-0.3456360995769501,0.1997090727090835,0.05419921875,0.8994140625,0.43017578125,0.4843350648880005,0.6336366534233093,2.117902226927981e-07,0.4241354763507843,0.5674795508384705,-0.0069922674447298,0.4065148830413818,0.4601520299911499,-0.0029912376776337,0.4156804382801056,0.3762089610099792,-0.0030499869026243,0.4132187366485595,0.312278538942337,-0.0021751692984253,0.4471809864044189,0.3506925106048584,0.0328530967235565,0.4457884430885315,0.2582926154136657,0.0253773052245378,0.4479360580444336,0.2015430182218551,0.0103688277304172,0.4533276557922363,0.1467270851135254,-0.0028281426057219,0.4805313944816589,0.3386525511741638,0.0220508277416229,0.4793247282505035,0.2321006059646606,0.0170982349663972,0.4806511402130127,0.1610462069511413,0.0022073790896683,0.4831567108631134,0.0958657264709472,-0.0105766048654913,0.510554313659668,0.3489366173744201,0.0057351421564817,0.5155867338180542,0.2477920204401016,-0.0013507390394806,0.5215216875076294,0.1850546300411224,-0.0118486797437071,0.5255269408226013,0.1297070980072021,-0.0213804878294467,0.5402111411094666,0.3741915225982666,-0.0136523321270942,0.5470353960990906,0.2932433485984802,-0.0202856864780187,0.5520219802856445,0.2417172789573669,-0.023992558941245,0.5553886890411377,0.1935609281063079,-0.0283466428518295
2023-08-01 15:52:00.398863,36,472,0.7596408128738403,0.5031157732009888,-0.3687520623207092,0.1839628666639328,0.0927734375,0.92529296875,0.3994140625,0.4854194223880768,0.6375899314880371,1.9234505543863642e-07,0.422602891921997,0.5733602046966553,-0.0054359375499188,0.4022250771522522,0.4627379477024078,0.0023569264449179,0.4087147116661072,0.3779185116291046,0.0060403505340218,0.4015702903270721,0.3172682523727417,0.0106507902964949,0.4428109526634216,0.3544323444366455,0.0383629463613033,0.4377607703208923,0.264300525188446,0.03423473238945,0.4382437765598297,0.2087056189775467,0.0207086503505706,0.441977858543396,0.1544999480247497,0.008195599541068,0.4771479964256286,0.3403851687908172,0.0278267990797758,0.4732381701469421,0.2340338677167892,0.0266571640968322,0.4737821519374847,0.1639586985111236,0.0131001630797982,0.4753533601760864,0.0996007621288299,0.000883404049091,0.5078872442245483,0.3496583700180053,0.0116484211757779,0.5096718072891235,0.2500635981559753,0.0076616764999926,0.5137873291969299,0.1885772049427032,-0.0022275676019489,0.516679048538208,0.1339013874530792,-0.0119144115597009,0.5393129587173462,0.3742284476757049,-0.0076557025313377,0.5423766374588013,0.2942809462547302,-0.0117126628756523,0.545531153678894,0.2445058673620224,-0.0144330570474267,0.5481213927268982,0.1969543099403381,-0.0185736734420061
2023-08-01 15:52:00.454735,37,473,0.7568362951278687,0.5031015872955322,-0.3766476213932037,0.1795107573270797,0.17333984375,0.89404296875,0.4921875,0.4841018915176391,0.6408572793006897,1.811809795526642e-07,0.4181466102600097,0.5786910057067871,-0.0070757078938186,0.3942100703716278,0.4682621359825134,0.0005865475395694,0.4003303050994873,0.3815878331661224,0.0047532217577099,0.3940869271755218,0.3192839026451111,0.0102254124358296,0.4370742440223694,0.3562677502632141,0.0372399128973484,0.4307805001735687,0.2667858600616455,0.033101487904787,0.4301934838294983,0.2123019993305206,0.01947583258152,0.4321534335613251,0.1592429280281067,0.0069998214021325,0.4723420739173889,0.342336505651474,0.0279989428818225,0.4675953686237335,0.2363922297954559,0.027344511821866,0.4669070839881897,0.1680710166692733,0.0147668775171041,0.466636449098587,0.1055482327938079,0.0032890539150685,0.5038251876831055,0.3516165316104889,0.0128947123885154,0.504643976688385,0.2529168725013733,0.009222138673067,0.5065054297447205,0.1927344352006912,0.0005896983202546,0.5073062777519226,0.1398631930351257,-0.0081830965355038,0.5373371839523315,0.3764769732952118,-0.0055339052341878,0.5392619371414185,0.2980103194713592,-0.0092256972566246,0.5411329865455627,0.2497794181108474,-0.0111356815323233,0.5426346063613892,0.2037667632102966,-0.014557110145688
2023-08-01 15:52:00.501136,38,474,0.7556912302970886,0.5028343200683594,-0.3805179297924042,0.1769023984670639,0.134765625,0.9130859375,0.33740234375,0.4834475517272949,0.6497588157653809,2.0120683075219858e-07,0.4143530130386352,0.5921932458877563,-0.0102775041013956,0.3830563127994537,0.482574850320816,-0.002171566709876,0.3851690888404846,0.3917334675788879,0.0036379313096404,0.3740226924419403,0.3304589986801147,0.0114153828471899,0.4241723120212555,0.3669687211513519,0.0362916849553585,0.4153018593788147,0.2763400375843048,0.0321611762046813,0.4155518710613251,0.2228649258613586,0.0191596001386642,0.4185712933540344,0.1731317490339279,0.008445837534964,0.4634348750114441,0.3532317280769348,0.0308362040668725,0.4587597846984863,0.2455300688743591,0.0332577750086784,0.4576252698898315,0.1786607801914215,0.0246864017099142,0.4568221569061279,0.1213046610355377,0.016894843429327,0.4980003535747528,0.3625084161758423,0.0191020146012306,0.4978263676166534,0.265635073184967,0.0192436445504426,0.4973623752593994,0.2098327875137329,0.0162752009928226,0.4970517456531524,0.1639635115861892,0.0121907480061054,0.535615861415863,0.3880847096443176,0.0034973912406712,0.5361852049827576,0.3116335272789001,0.0044654929079115,0.5352173447608948,0.266739010810852,0.0077159763313829,0.5347069501876831,0.2257685512304306,0.0088076563552021
2023-08-01 15:52:00.546426,39,475,0.7550809383392334,0.5030360817909241,-0.381461501121521,0.1769031286239624,0.080078125,0.8984375,0.458984375,0.4830890297889709,0.6511113047599792,2.0621462226699805e-07,0.4133208394050598,0.5926938056945801,-0.0105958059430122,0.3822857141494751,0.484151691198349,-0.0025403085164725,0.3860679864883423,0.3927006721496582,0.0031714828219264,0.3766553997993469,0.3317557275295257,0.0107244178652763,0.4256075620651245,0.3706699311733246,0.0373389571905136,0.4168437421321869,0.2794355154037475,0.0326883755624294,0.4161652624607086,0.2238927781581878,0.0185052081942558,0.4183376133441925,0.1717053353786468,0.0066316835582256,0.4636820554733276,0.3565481901168823,0.0317788682878017,0.457484632730484,0.2508382797241211,0.0333367139101028,0.4550536870956421,0.1846156865358352,0.022878959774971,0.4527466893196106,0.1249666512012481,0.013333055190742,0.4969454407691955,0.3641678392887115,0.0198714062571525,0.4964915513992309,0.266668438911438,0.0193761512637138,0.4954821169376373,0.2101998031139373,0.0153350280597805,0.4939390122890472,0.1612978130578994,0.0101855378597974,0.5335250496864319,0.3874869644641876,0.0040081958286464,0.5339457988739014,0.3094910383224487,0.0044286586344242,0.5326808094978333,0.2638416886329651,0.0069783157669007,0.5307434797286987,0.2205992192029953,0.0072815283201634
2023-08-01 15:52:00.596022,40,476,0.7546542286872864,0.5031948089599609,-0.3821866810321808,0.1767069548368454,0.109375,0.91552734375,0.34228515625,0.4846149384975433,0.6525063514709473,1.9787836436080402e-07,0.4148159921169281,0.5960370898246765,-0.0101667959243059,0.3828433752059936,0.4855859577655792,-0.0009122892515733,0.3856392800807953,0.3938927352428436,0.0061351475305855,0.3739479184150696,0.3337836563587188,0.0150560708716511,0.4241890609264374,0.3724142014980316,0.0381255745887756,0.4153192937374115,0.2812283337116241,0.0344409495592117,0.4145677983760834,0.224588081240654,0.0208566058427095,0.416376531124115,0.1714579761028289,0.0089693218469619,0.4628297090530395,0.357747346162796,0.0324649810791015,0.4559616148471832,0.2520270347595215,0.034107394516468,0.4536842107772827,0.1854396909475326,0.0232524555176496,0.4513251483440399,0.1243566870689392,0.0131940115243196,0.4964223802089691,0.3653937876224518,0.0205088946968317,0.4949434101581573,0.2674040794372558,0.0194969121366739,0.4939050376415252,0.2100761532783508,0.0139592019841074,0.4925405979156494,0.1593479216098785,0.007438083179295,0.5339365005493164,0.3882279396057129,0.0047534564509987,0.5330366492271423,0.3101358711719513,0.003877633716911,0.5314508080482483,0.2639591097831726,0.0046719470992684,0.5293365120887756,0.2187962681055069,0.0034020571038126
