Timestamp,w,x,y,z,ax,ay,az
2023-08-01T16:05:13.926232,0.5448976755142212,0.11196266114711761,0.3393881320953369,0.7585291862487793,-0.54541015625,0.77197265625,0.1572265625
2023-08-01T16:05:13.927229,0.5448976755142212,0.11196266114711761,0.3393881320953369,0.7585291862487793,-0.56689453125,0.759765625,0.134765625
2023-08-01T16:05:13.932963,0.5457397699356079,0.11172964423894882,0.33875903487205505,0.7582393288612366,-0.56689453125,0.759765625,0.134765625
2023-08-01T16:05:13.933963,0.5457397699356079,0.11172964423894882,0.33875903487205505,0.7582393288612366,-0.62548828125,0.74267578125,0.1279296875
2023-08-01T16:05:13.934962,0.546391487121582,0.11114861816167831,0.33840233087539673,0.7580146193504333,-0.62548828125,0.74267578125,0.1279296875
2023-08-01T16:05:13.939949,0.546391487121582,0.11114861816167831,0.33840233087539673,0.7580146193504333,-0.64111328125,0.7294921875,0.13427734375
2023-08-01T16:05:13.940943,0.9999994039535522,-0.0006178700714372098,0.0,-0.0008841979433782399,-0.64111328125,0.7294921875,0.13427734375
2023-08-01T16:05:13.947366,0.9999994039535522,-0.0006178700714372098,0.0,-0.0008841979433782399,-0.65087890625,0.7265625,0.14501953125
2023-08-01T16:05:13.948362,0.9999976754188538,-0.0012338845990598202,-0.00019479147158563137,-0.0017578409751877189,-0.65087890625,0.7265625,0.14501953125
2023-08-01T16:05:14.015084,0.9999976754188538,-0.0012338845990598202,-0.00019479147158563137,-0.0017578409751877189,-0.68603515625,0.71728515625,0.1357421875
2023-08-01T16:05:14.016083,0.9950132369995117,-0.0019662987906485796,-0.0010767518542706966,0.09971804916858673,-0.68603515625,0.71728515625,0.1357421875
2023-08-01T16:05:14.017080,0.9950132369995117,-0.0019662987906485796,-0.0010767518542706966,0.09971804916858673,-0.72607421875,0.708984375,0.14453125
2023-08-01T16:05:14.022592,0.9950552582740784,-0.0027770844753831625,-0.0017960139084607363,0.09926778078079224,-0.72607421875,0.708984375,0.14453125
2023-08-01T16:05:14.030636,0.9950552582740784,-0.0027770844753831625,-0.0017960139084607363,0.09926778078079224,-0.728515625,0.7099609375,0.15771484375
2023-08-01T16:05:14.037082,0.9818774461746216,-0.003320484422147274,-0.003034566529095173,0.1894635260105133,-0.728515625,0.7099609375,0.15771484375
2023-08-01T16:05:14.039078,0.9818774461746216,-0.003320484422147274,-0.003034566529095173,0.1894635260105133,-0.7275390625,0.72314453125,0.173828125
2023-08-01T16:05:14.039078,0.9819052815437317,-0.004065701737999916,-0.0041708494536578655,0.18928281962871552,-0.7275390625,0.72314453125,0.173828125
2023-08-01T16:05:14.051727,0.9819052815437317,-0.004065701737999916,-0.0041708494536578655,0.18928281962871552,-0.71484375,0.73193359375,0.1767578125
2023-08-01T16:05:14.059846,0.9819091558456421,-0.00482002692297101,-0.0055120401084423065,0.18921087682247162,-0.71484375,0.73193359375,0.1767578125
2023-08-01T16:05:14.060844,0.9819091558456421,-0.00482002692297101,-0.0055120401084423065,0.18921087682247162,-0.69970703125,0.73876953125,0.17138671875
2023-08-01T16:05:14.060844,0.9819117188453674,-0.005593446549028158,-0.007087484002113342,0.18912364542484283,-0.69970703125,0.73876953125,0.17138671875
2023-08-01T16:05:14.067753,0.9819117188453674,-0.005593446549028158,-0.007087484002113342,0.18912364542484283,-0.69580078125,0.73583984375,0.17529296875
2023-08-01T16:05:14.068765,0.9633699655532837,-0.00553516810759902,-0.00936979055404663,0.26795482635498047,-0.69580078125,0.73583984375,0.17529296875
2023-08-01T16:05:14.077375,0.9633699655532837,-0.00553516810759902,-0.00936979055404663,0.26795482635498047,-0.68310546875,0.73046875,0.17578125
2023-08-01T16:05:14.078386,0.9633126258850098,-0.006019805558025837,-0.011519563384354115,0.26806673407554626,-0.68310546875,0.73046875,0.17578125
2023-08-01T16:05:14.089165,0.9633126258850098,-0.006019805558025837,-0.011519563384354115,0.26806673407554626,-0.6787109375,0.7216796875,0.181640625
2023-08-01T16:05:14.090674,0.963235080242157,-0.006495579145848751,-0.013828645460307598,0.2682253122329712,-0.6787109375,0.7216796875,0.181640625
2023-08-01T16:05:14.097306,0.963235080242157,-0.006495579145848751,-0.013828645460307598,0.2682253122329712,-0.681640625,0.7138671875,0.189453125
2023-08-01T16:05:14.098303,0.9631350636482239,-0.006972295697778463,-0.016089675948023796,0.26844629645347595,-0.681640625,0.7138671875,0.189453125
2023-08-01T16:05:14.105306,0.9631350636482239,-0.006972295697778463,-0.016089675948023796,0.26844629645347595,-0.66748046875,0.70849609375,0.20654296875
2023-08-01T16:05:14.105306,0.9404398798942566,-0.006007195450365543,-0.018695946782827377,0.33939242362976074,-0.66748046875,0.70849609375,0.20654296875
2023-08-01T16:05:14.119291,0.9404398798942566,-0.006007195450365543,-0.018695946782827377,0.33939242362976074,-0.6455078125,0.70947265625,0.2177734375
2023-08-01T16:05:14.120797,0.9403079748153687,-0.00629837391898036,-0.020599087700247765,0.3396422266960144,-0.6455078125,0.70947265625,0.2177734375
2023-08-01T16:05:14.127952,0.9403079748153687,-0.00629837391898036,-0.020599087700247765,0.3396422266960144,-0.6259765625,0.708984375,0.23681640625
2023-08-01T16:05:14.127952,0.9401889443397522,-0.006648549344390631,-0.022182535380125046,0.3398652672767639,-0.6259765625,0.708984375,0.23681640625
2023-08-01T16:05:14.143942,0.9401889443397522,-0.006648549344390631,-0.022182535380125046,0.3398652672767639,-0.61474609375,0.70947265625,0.27001953125
2023-08-01T16:05:14.143942,0.9400837421417236,-0.007033971603959799,-0.023465720936655998,0.34006235003471375,-0.61474609375,0.70947265625,0.27001953125
2023-08-01T16:05:14.149925,0.9400837421417236,-0.007033971603959799,-0.023465720936655998,0.34006235003471375,-0.61767578125,0.7080078125,0.27197265625
2023-08-01T16:05:14.149925,0.9152275323867798,-0.005783676169812679,-0.025059862062335014,0.4021157920360565,-0.61767578125,0.7080078125,0.27197265625
2023-08-01T16:05:14.165262,0.9152275323867798,-0.005783676169812679,-0.025059862062335014,0.4021157920360565,-0.63232421875,0.70703125,0.23681640625
2023-08-01T16:05:14.165262,0.9151433706283569,-0.006079862825572491,-0.026158947497606277,0.40223291516304016,-0.63232421875,0.70703125,0.23681640625
2023-08-01T16:05:14.166259,0.9151433706283569,-0.006079862825572491,-0.026158947497606277,0.40223291516304016,-0.66162109375,0.70458984375,0.20263671875
2023-08-01T16:05:14.179451,0.9150453805923462,-0.0063720508478581905,-0.02725568786263466,0.40237855911254883,-0.66162109375,0.70458984375,0.20263671875
2023-08-01T16:05:14.187453,0.9150453805923462,-0.0063720508478581905,-0.02725568786263466,0.40237855911254883,-0.69677734375,0.69580078125,0.171875
2023-08-01T16:05:14.188450,0.9149335026741028,-0.006674399599432945,-0.028200902044773102,0.40256279706954956,-0.69677734375,0.69580078125,0.171875
2023-08-01T16:05:14.189447,0.9149335026741028,-0.006674399599432945,-0.028200902044773102,0.40256279706954956,-0.69189453125,0.6826171875,0.16015625
2023-08-01T16:05:14.233120,0.8887930512428284,-0.00518418475985527,-0.029641393572092056,0.4573197364807129,-0.69189453125,0.6826171875,0.16015625
2023-08-01T16:05:14.233951,0.8887930512428284,-0.00518418475985527,-0.029641393572092056,0.4573197364807129,-0.671875,0.669921875,0.16845703125
2023-08-01T16:05:14.234949,0.8886565566062927,-0.005250714719295502,-0.03094928339123726,0.4574977159500122,-0.671875,0.669921875,0.16845703125
2023-08-01T16:05:14.246987,0.8886565566062927,-0.005250714719295502,-0.03094928339123726,0.4574977159500122,-0.67578125,0.66650390625,0.1796875
2023-08-01T16:05:14.247985,0.888505220413208,-0.00515137379989028,-0.03239624574780464,0.4576924741268158,-0.67578125,0.66650390625,0.1796875
2023-08-01T16:05:14.248982,0.888505220413208,-0.00515137379989028,-0.03239624574780464,0.4576924741268158,-0.69091796875,0.666015625,0.201171875
2023-08-01T16:05:14.255579,0.8883122205734253,-0.004954583011567593,-0.03377323970198631,0.457969605922699,-0.69091796875,0.666015625,0.201171875
2023-08-01T16:05:14.256578,0.8883122205734253,-0.004954583011567593,-0.03377323970198631,0.457969605922699,-0.68115234375,0.6552734375,0.2177734375
2023-08-01T16:05:14.262776,0.8616085648536682,-0.0027602771297097206,-0.03526546433568001,0.5063391923904419,-0.68115234375,0.6552734375,0.2177734375
2023-08-01T16:05:14.293246,0.8616085648536682,-0.0027602771297097206,-0.03526546433568001,0.5063391923904419,-0.65087890625,0.64404296875,0.2275390625
2023-08-01T16:05:14.294242,0.8613905310630798,-0.0023706562351435423,-0.03629124164581299,0.5066395998001099,-0.65087890625,0.64404296875,0.2275390625
2023-08-01T16:05:14.295241,0.8613905310630798,-0.0023706562351435423,-0.03629124164581299,0.5066395998001099,-0.6396484375,0.63916015625,0.2333984375
2023-08-01T16:05:14.295241,0.8611904382705688,-0.001977510517463088,-0.036979638040065765,0.5069314241409302,-0.6396484375,0.63916015625,0.2333984375
2023-08-01T16:05:14.296237,0.8611904382705688,-0.001977510517463088,-0.036979638040065765,0.5069314241409302,-0.64599609375,0.6484375,0.228515625
2023-08-01T16:05:14.297237,0.8610338568687439,-0.0015989328967407346,-0.03731798380613327,0.5071741342544556,-0.64599609375,0.6484375,0.228515625
2023-08-01T16:05:14.297237,0.8610338568687439,-0.0015989328967407346,-0.03731798380613327,0.5071741342544556,-0.6572265625,0.6484375,0.22412109375
2023-08-01T16:05:14.298234,0.8347679972648621,0.000530135293956846,-0.03737373277544975,0.5493316650390625,-0.6572265625,0.6484375,0.22412109375
2023-08-01T16:05:14.299230,0.8347679972648621,0.000530135293956846,-0.03737373277544975,0.5493316650390625,-0.650390625,0.64599609375,0.22119140625
2023-08-01T16:05:14.299230,0.8346666097640991,0.0007868880638852715,-0.03720033913850784,0.5494972467422485,-0.650390625,0.64599609375,0.22119140625
2023-08-01T16:05:14.307375,0.8346666097640991,0.0007868880638852715,-0.03720033913850784,0.5494972467422485,-0.64208984375,0.65087890625,0.21630859375
2023-08-01T16:05:14.312380,0.8346139788627625,0.0009480409789830446,-0.03691546618938446,0.5495961904525757,-0.64208984375,0.65087890625,0.21630859375
2023-08-01T16:05:14.313380,0.8346139788627625,0.0009480409789830446,-0.03691546618938446,0.5495961904525757,-0.6591796875,0.6552734375,0.21630859375
2023-08-01T16:05:14.320871,0.834551215171814,0.0011282017221674323,-0.03663468733429909,0.5497099161148071,-0.6591796875,0.6552734375,0.21630859375
2023-08-01T16:05:14.320871,0.834551215171814,0.0011282017221674323,-0.03663468733429909,0.5497099161148071,-0.67724609375,0.65673828125,0.21923828125
2023-08-01T16:05:14.339252,0.8101434707641602,0.002907177899032831,-0.03630845621228218,0.5850990414619446,-0.67724609375,0.65673828125,0.21923828125
2023-08-01T16:05:14.339252,0.8101434707641602,0.002907177899032831,-0.03630845621228218,0.5850990414619446,-0.67919921875,0.6591796875,0.2275390625
2023-08-01T16:05:14.344879,0.8100929260253906,0.003250931156799197,-0.03616870939731598,0.5851759314537048,-0.67919921875,0.6591796875,0.2275390625
2023-08-01T16:05:14.345876,0.8100929260253906,0.003250931156799197,-0.03616870939731598,0.5851759314537048,-0.67724609375,0.6708984375,0.2236328125
2023-08-01T16:05:14.345876,0.810020923614502,0.0037384883034974337,-0.036112651228904724,0.5852759480476379,-0.67724609375,0.6708984375,0.2236328125
2023-08-01T16:05:14.351867,0.810020923614502,0.0037384883034974337,-0.036112651228904724,0.5852759480476379,-0.6728515625,0.67529296875,0.2216796875
2023-08-01T16:05:14.353150,0.809946596622467,0.004266632720828056,-0.03607676550745964,0.5853774547576904,-0.6728515625,0.67529296875,0.2216796875
2023-08-01T16:05:14.354151,0.809946596622467,0.004266632720828056,-0.03607676550745964,0.5853774547576904,-0.6591796875,0.666015625,0.22119140625
2023-08-01T16:05:14.365081,0.8098874688148499,0.004844686947762966,-0.03605228289961815,0.5854563117027283,-0.6591796875,0.666015625,0.22119140625
2023-08-01T16:05:14.371569,0.8098874688148499,0.004844686947762966,-0.03605228289961815,0.5854563117027283,-0.64697265625,0.65966796875,0.21875
2023-08-01T16:05:14.371569,0.8098706007003784,0.005480816122144461,-0.036079276353120804,0.5854722857475281,-0.64697265625,0.65966796875,0.21875
2023-08-01T16:05:14.375256,0.8098706007003784,0.005480816122144461,-0.036079276353120804,0.5854722857475281,-0.64697265625,0.65966796875,0.2158203125
2023-08-01T16:05:14.378249,0.8098534941673279,0.006166948936879635,-0.036056213080883026,0.5854906439781189,-0.64697265625,0.65966796875,0.2158203125
2023-08-01T16:05:14.379247,0.8098534941673279,0.006166948936879635,-0.036056213080883026,0.5854906439781189,-0.64111328125,0.66796875,0.20751953125
2023-08-01T16:05:14.379247,0.8099133968353271,0.006739122327417135,-0.03589814901351929,0.5854111313819885,-0.64111328125,0.66796875,0.20751953125
2023-08-01T16:05:14.397520,0.8099133968353271,0.006739122327417135,-0.03589814901351929,0.5854111313819885,-0.63818359375,0.68212890625,0.20654296875
2023-08-01T16:05:14.398518,0.8100199699401855,0.007248047273606062,-0.03565739467740059,0.5852723121643066,-0.63818359375,0.68212890625,0.20654296875
2023-08-01T16:05:14.399515,0.8100199699401855,0.007248047273606062,-0.03565739467740059,0.5852723121643066,-0.66064453125,0.6943359375,0.205078125
2023-08-01T16:05:14.401021,0.8102040886878967,0.00766454404219985,-0.03536239266395569,0.5850299596786499,-0.66064453125,0.6943359375,0.205078125
2023-08-01T16:05:14.415792,0.8102040886878967,0.00766454404219985,-0.03536239266395569,0.5850299596786499,-0.6669921875,0.7080078125,0.208984375
2023-08-01T16:05:14.416790,0.8104351758956909,0.008063183166086674,-0.03517266362905502,0.5847158432006836,-0.6669921875,0.7080078125,0.208984375
2023-08-01T16:05:14.418786,0.8104351758956909,0.008063183166086674,-0.03517266362905502,0.5847158432006836,-0.66259765625,0.71826171875,0.2197265625
2023-08-01T16:05:14.488376,0.8106982707977295,0.008441067300736904,-0.03507673740386963,0.5843514800071716,-0.66259765625,0.71826171875,0.2197265625
2023-08-01T16:05:14.489373,0.8106982707977295,0.008441067300736904,-0.03507673740386963,0.5843514800071716,-0.6708984375,0.72021484375,0.23046875
2023-08-01T16:05:14.489373,0.8109558820724487,0.008798700757324696,-0.034964416176080704,0.5839953422546387,-0.6708984375,0.72021484375,0.23046875
2023-08-01T16:05:14.490880,0.8109558820724487,0.008798700757324696,-0.034964416176080704,0.5839953422546387,-0.67919921875,0.72412109375,0.2333984375
2023-08-01T16:05:14.492384,0.8112110495567322,0.009103278629481792,-0.03487561643123627,0.583641529083252,-0.67919921875,0.72412109375,0.2333984375
2023-08-01T16:05:14.493384,0.8112110495567322,0.009103278629481792,-0.03487561643123627,0.583641529083252,-0.69091796875,0.7314453125,0.23193359375
2023-08-01T16:05:14.494381,0.8114348649978638,0.009359204210340977,-0.0348663330078125,0.5833269953727722,-0.69091796875,0.7314453125,0.23193359375
2023-08-01T16:05:14.494381,0.8114348649978638,0.009359204210340977,-0.0348663330078125,0.5833269953727722,-0.70166015625,0.74658203125,0.23193359375
2023-08-01T16:05:14.496375,0.8116192817687988,0.00954075250774622,-0.03487208113074303,0.5830668807029724,-0.70166015625,0.74658203125,0.23193359375
2023-08-01T16:05:14.498371,0.8116192817687988,0.00954075250774622,-0.03487208113074303,0.5830668807029724,-0.70166015625,0.75146484375,0.22705078125
2023-08-01T16:05:14.499368,0.8117349743843079,0.00966758280992508,-0.034930430352687836,0.5829001665115356,-0.70166015625,0.75146484375,0.22705078125
2023-08-01T16:05:14.499368,0.8117349743843079,0.00966758280992508,-0.034930430352687836,0.5829001665115356,-0.6923828125,0.74560546875,0.22998046875
2023-08-01T16:05:14.500875,0.8118272423744202,0.009771672077476978,-0.03506556153297424,0.582761824131012,-0.6923828125,0.74560546875,0.22998046875
2023-08-01T16:05:14.501876,0.8118272423744202,0.009771672077476978,-0.03506556153297424,0.582761824131012,-0.68994140625,0.7333984375,0.2255859375
2023-08-01T16:05:14.571891,0.8118820786476135,0.009896491654217243,-0.03523319959640503,0.5826733112335205,-0.68994140625,0.7333984375,0.2255859375
2023-08-01T16:05:14.572895,0.8118820786476135,0.009896491654217243,-0.03523319959640503,0.5826733112335205,-0.6904296875,0.72265625,0.2177734375
2023-08-01T16:05:14.573893,0.8118739128112793,0.01003197394311428,-0.03542197868227959,0.5826709866523743,-0.6904296875,0.72265625,0.2177734375
2023-08-01T16:05:14.574890,0.8118739128112793,0.01003197394311428,-0.03542197868227959,0.5826709866523743,-0.6943359375,0.70849609375,0.21875
2023-08-01T16:05:14.576392,0.8118658065795898,0.01016545295715332,-0.0356079638004303,0.582668662071228,-0.6943359375,0.70849609375,0.21875
2023-08-01T16:05:14.579387,0.8118658065795898,0.01016545295715332,-0.0356079638004303,0.582668662071228,-0.6943359375,0.6962890625,0.21240234375
2023-08-01T16:05:14.579387,0.811795711517334,0.01035513449460268,-0.03587823733687401,0.5827464461326599,-0.6943359375,0.6962890625,0.21240234375
2023-08-01T16:05:14.580895,0.811795711517334,0.01035513449460268,-0.03587823733687401,0.5827464461326599,-0.7001953125,0.68701171875,0.216796875
2023-08-01T16:05:14.581897,0.8117111921310425,0.010661800391972065,-0.03621319681406021,0.582837700843811,-0.7001953125,0.68701171875,0.216796875
2023-08-01T16:05:14.581897,0.8117111921310425,0.010661800391972065,-0.03621319681406021,0.582837700843811,-0.70947265625,0.67333984375,0.22265625
2023-08-01T16:05:14.583127,0.8115541338920593,0.011061804369091988,-0.03650517761707306,0.5830307602882385,-0.70947265625,0.67333984375,0.22265625
2023-08-01T16:05:14.587118,0.8115541338920593,0.011061804369091988,-0.03650517761707306,0.5830307602882385,-0.693359375,0.66650390625,0.21826171875
2023-08-01T16:05:14.588117,0.8113576769828796,0.011584603227674961,-0.036863476037979126,0.5832715034484863,-0.693359375,0.66650390625,0.21826171875
2023-08-01T16:05:14.609936,0.8113576769828796,0.011584603227674961,-0.036863476037979126,0.5832715034484863,-0.6845703125,0.66748046875,0.2041015625
2023-08-01T16:05:14.609936,0.8111361861228943,0.01211011502891779,-0.037219177931547165,0.5835462808609009,-0.6845703125,0.66748046875,0.2041015625
2023-08-01T16:05:14.611943,0.8111361861228943,0.01211011502891779,-0.037219177931547165,0.5835462808609009,-0.673828125,0.66748046875,0.19775390625
2023-08-01T16:05:14.612951,0.8109167814254761,0.012636248953640461,-0.037498004734516144,0.5838221311569214,-0.673828125,0.66748046875,0.19775390625
2023-08-01T16:05:14.621943,0.8109167814254761,0.012636248953640461,-0.037498004734516144,0.5838221311569214,-0.6591796875,0.66455078125,0.19580078125
2023-08-01T16:05:14.621943,0.8107084631919861,0.013137275353074074,-0.03768359124660492,0.5840883255004883,-0.6591796875,0.66455078125,0.19580078125
2023-08-01T16:05:14.633212,0.8107084631919861,0.013137275353074074,-0.03768359124660492,0.5840883255004883,-0.65087890625,0.6611328125,0.20166015625
2023-08-01T16:05:14.647202,0.8105388283729553,0.013604913838207722,-0.0376930758357048,0.584312379360199,-0.65087890625,0.6611328125,0.20166015625
2023-08-01T16:05:14.648199,0.8105388283729553,0.013604913838207722,-0.0376930758357048,0.584312379360199,-0.64013671875,0.6552734375,0.20849609375
2023-08-01T16:05:14.650706,0.8104049563407898,0.014075525104999542,-0.03760393336415291,0.584492564201355,-0.64013671875,0.6552734375,0.20849609375
2023-08-01T16:05:14.651707,0.8104049563407898,0.014075525104999542,-0.03760393336415291,0.584492564201355,-0.6396484375,0.658203125,0.21142578125
2023-08-01T16:05:14.652928,0.8103234171867371,0.014571317471563816,-0.03747184947133064,0.5846019387245178,-0.6396484375,0.658203125,0.21142578125
2023-08-01T16:05:14.678808,0.8103234171867371,0.014571317471563816,-0.03747184947133064,0.5846019387245178,-0.65673828125,0.66796875,0.21484375
2023-08-01T16:05:14.679806,0.810272216796875,0.01504216156899929,-0.03724808990955353,0.5846752524375916,-0.65673828125,0.66796875,0.21484375
2023-08-01T16:05:14.680803,0.810272216796875,0.01504216156899929,-0.03724808990955353,0.5846752524375916,-0.64892578125,0.6826171875,0.21875
2023-08-01T16:05:14.681812,0.8102608323097229,0.015504647046327591,-0.037044133991003036,0.5846920609474182,-0.64892578125,0.6826171875,0.21875
2023-08-01T16:05:14.681812,0.8102608323097229,0.015504647046327591,-0.037044133991003036,0.5846920609474182,-0.634765625,0.69921875,0.22412109375
2023-08-01T16:05:14.684823,0.8102797269821167,0.015986988320946693,-0.03696268051862717,0.5846579074859619,-0.634765625,0.69921875,0.22412109375
2023-08-01T16:05:14.687814,0.8102797269821167,0.015986988320946693,-0.03696268051862717,0.5846579074859619,-0.6494140625,0.7099609375,0.23486328125
2023-08-01T16:05:14.691870,0.8102986812591553,0.016497520729899406,-0.037001948803663254,0.584615170955658,-0.6494140625,0.7099609375,0.23486328125
2023-08-01T16:05:14.700861,0.8102986812591553,0.016497520729899406,-0.037001948803663254,0.584615170955658,-0.66015625,0.7099609375,0.2431640625
2023-08-01T16:05:14.703801,0.8103216886520386,0.0170624740421772,-0.037159405648708344,0.5845569372177124,-0.66015625,0.7099609375,0.2431640625
2023-08-01T16:05:14.704798,0.8103216886520386,0.0170624740421772,-0.037159405648708344,0.5845569372177124,-0.6494140625,0.70703125,0.24365234375
2023-08-01T16:05:14.705795,0.8103843927383423,0.017724551260471344,-0.03745506703853607,0.5844314098358154,-0.6494140625,0.70703125,0.24365234375
2023-08-01T16:05:14.708787,0.8103843927383423,0.017724551260471344,-0.03745506703853607,0.5844314098358154,-0.6552734375,0.7060546875,0.23388671875
2023-08-01T16:05:14.710782,0.8104426860809326,0.01846996136009693,-0.03779434785246849,0.5843056440353394,-0.6552734375,0.7060546875,0.23388671875
2023-08-01T16:05:14.711831,0.8104426860809326,0.01846996136009693,-0.03779434785246849,0.5843056440353394,-0.66455078125,0.70654296875,0.22802734375
2023-08-01T16:05:14.713250,0.8104888200759888,0.01929531805217266,-0.038101743906736374,0.5841950178146362,-0.66455078125,0.70654296875,0.22802734375
2023-08-01T16:05:14.715246,0.8104888200759888,0.01929531805217266,-0.038101743906736374,0.5841950178146362,-0.65625,0.70703125,0.22119140625
2023-08-01T16:05:14.716242,0.8105354905128479,0.02024943009018898,-0.03840712085366249,0.5840778946876526,-0.65625,0.70703125,0.22119140625
2023-08-01T16:05:14.721742,0.8105354905128479,0.02024943009018898,-0.03840712085366249,0.5840778946876526,-0.6484375,0.705078125,0.22314453125
2023-08-01T16:05:14.722895,0.8105906844139099,0.021242639049887657,-0.038689691573381424,0.5839473605155945,-0.6484375,0.705078125,0.22314453125
2023-08-01T16:05:14.723784,0.8105906844139099,0.021242639049887657,-0.038689691573381424,0.5839473605155945,-0.6396484375,0.693359375,0.2119140625
2023-08-01T16:05:14.737015,0.810653030872345,0.02221612073481083,-0.03885805234313011,0.5838135480880737,-0.6396484375,0.693359375,0.2119140625
2023-08-01T16:05:14.737015,0.810653030872345,0.02221612073481083,-0.03885805234313011,0.5838135480880737,-0.623046875,0.6806640625,0.20947265625
2023-08-01T16:05:14.738013,0.8107895255088806,0.02306138165295124,-0.038749974220991135,0.5835981965065002,-0.623046875,0.6806640625,0.20947265625
2023-08-01T16:05:14.750769,0.8107895255088806,0.02306138165295124,-0.038749974220991135,0.5835981965065002,-0.60009765625,0.65673828125,0.20361328125
2023-08-01T16:05:14.751831,0.8109899759292603,0.023861374706029892,-0.038409292697906494,0.5833100080490112,-0.60009765625,0.65673828125,0.20361328125
2023-08-01T16:05:14.773958,0.8109899759292603,0.023861374706029892,-0.038409292697906494,0.5833100080490112,-0.580078125,0.63330078125,0.20166015625
2023-08-01T16:05:14.795814,0.8113014101982117,0.02465604431927204,-0.037839844822883606,0.582880973815918,-0.580078125,0.63330078125,0.20166015625
2023-08-01T16:05:14.796812,0.8113014101982117,0.02465604431927204,-0.037839844822883606,0.582880973815918,-0.5537109375,0.60888671875,0.2001953125
2023-08-01T16:05:14.817983,0.8117012977600098,0.025475680828094482,-0.036987341940402985,0.5823435187339783,-0.5537109375,0.60888671875,0.2001953125
2023-08-01T16:05:14.817983,0.8117012977600098,0.025475680828094482,-0.036987341940402985,0.5823435187339783,-0.529296875,0.58740234375,0.18310546875
2023-08-01T16:05:14.819977,0.812239408493042,0.026353830471634865,-0.03587369620800018,0.5816233158111572,-0.529296875,0.58740234375,0.18310546875
2023-08-01T16:05:14.820975,0.812239408493042,0.026353830471634865,-0.03587369620800018,0.5816233158111572,-0.52490234375,0.568359375,0.158203125
2023-08-01T16:05:14.821481,0.8129405975341797,0.02719397470355034,-0.03437868133187294,0.5806946158409119,-0.52490234375,0.568359375,0.158203125
2023-08-01T16:05:14.821986,0.8129405975341797,0.02719397470355034,-0.03437868133187294,0.5806946158409119,-0.5087890625,0.556640625,0.123046875
2023-08-01T16:05:14.826983,0.813840925693512,0.027984408661723137,-0.032426849007606506,0.5795069336891174,-0.5087890625,0.556640625,0.123046875
2023-08-01T16:05:14.831982,0.813840925693512,0.027984408661723137,-0.032426849007606506,0.5795069336891174,-0.48486328125,0.56103515625,0.09375
2023-08-01T16:05:14.833069,0.8149409890174866,0.028799833729863167,-0.03024851344525814,0.5780369639396667,-0.48486328125,0.56103515625,0.09375
2023-08-01T16:05:14.834067,0.8149409890174866,0.028799833729863167,-0.03024851344525814,0.5780369639396667,-0.470703125,0.5693359375,0.06396484375
2023-08-01T16:05:14.842828,0.8162568807601929,0.029598671942949295,-0.028001263737678528,0.576250433921814,-0.470703125,0.5693359375,0.06396484375
2023-08-01T16:05:14.843828,0.8162568807601929,0.029598671942949295,-0.028001263737678528,0.576250433921814,-0.49267578125,0.57568359375,0.0439453125
2023-08-01T16:05:14.852825,0.8177742958068848,0.030230363830924034,-0.02562977746129036,0.574172854423523,-0.49267578125,0.57568359375,0.0439453125
2023-08-01T16:05:14.853821,0.8177742958068848,0.030230363830924034,-0.02562977746129036,0.574172854423523,-0.5341796875,0.578125,0.0361328125
2023-08-01T16:05:14.854818,0.8194724917411804,0.030547115951776505,-0.022825879976153374,0.5718485713005066,-0.5341796875,0.578125,0.0361328125
2023-08-01T16:05:14.866137,0.8194724917411804,0.030547115951776505,-0.022825879976153374,0.5718485713005066,-0.52734375,0.568359375,0.0439453125
2023-08-01T16:05:14.877473,0.821358859539032,0.03060229681432247,-0.019589463248848915,0.5692532658576965,-0.52734375,0.568359375,0.0439453125
2023-08-01T16:05:14.878470,0.821358859539032,0.03060229681432247,-0.019589463248848915,0.5692532658576965,-0.5009765625,0.5546875,0.05078125
2023-08-01T16:05:14.913932,0.8234602808952332,0.030344735831022263,-0.016103729605674744,0.5663329362869263,-0.5009765625,0.5546875,0.05078125
2023-08-01T16:05:14.914930,0.8234602808952332,0.030344735831022263,-0.016103729605674744,0.5663329362869263,-0.52587890625,0.55029296875,0.046875
2023-08-01T16:05:14.934908,0.8256840705871582,0.02981242910027504,-0.012352101504802704,0.5632089972496033,-0.52587890625,0.55029296875,0.046875
2023-08-01T16:05:14.935905,0.8256840705871582,0.02981242910027504,-0.012352101504802704,0.5632089972496033,-0.57958984375,0.5615234375,0.03564453125
2023-08-01T16:05:14.954767,0.8280381560325623,0.02912226691842079,-0.008478525094687939,0.5598507523536682,-0.57958984375,0.5615234375,0.03564453125
2023-08-01T16:05:14.955765,0.8280381560325623,0.02912226691842079,-0.008478525094687939,0.5598507523536682,-0.63623046875,0.57177734375,0.02734375
2023-08-01T16:05:14.955765,0.8304271101951599,0.028450073674321175,-0.004900631960481405,0.5563788414001465,-0.63623046875,0.57177734375,0.02734375
2023-08-01T16:05:14.956762,0.8304271101951599,0.028450073674321175,-0.004900631960481405,0.5563788414001465,-0.69482421875,0.568359375,0.0361328125
2023-08-01T16:05:14.956762,0.8328779935836792,0.027901379391551018,-0.0017674093833193183,0.5527500510215759,-0.69482421875,0.568359375,0.0361328125
2023-08-01T16:05:14.957757,0.8328779935836792,0.027901379391551018,-0.0017674093833193183,0.5527500510215759,-0.73876953125,0.56005859375,0.0419921875
2023-08-01T16:05:14.957757,0.8353326320648193,0.02769986167550087,0.0007437809836119413,0.5490460991859436,-0.73876953125,0.56005859375,0.0419921875
2023-08-01T16:05:14.959753,0.8353326320648193,0.02769986167550087,0.0007437809836119413,0.5490460991859436,-0.78369140625,0.5625,0.0634765625
2023-08-01T16:05:14.959753,0.8376789689064026,0.027734030038118362,0.002687162719666958,0.5454515814781189,-0.78369140625,0.5625,0.0634765625
2023-08-01T16:05:14.960751,0.8376789689064026,0.027734030038118362,0.002687162719666958,0.5454515814781189,-0.78125,0.56005859375,0.08251953125
2023-08-01T16:05:14.961868,0.8400572538375854,0.02809602953493595,0.0040770829655230045,0.5417543053627014,-0.78125,0.56005859375,0.08251953125
2023-08-01T16:05:14.961868,0.8400572538375854,0.02809602953493595,0.0040770829655230045,0.5417543053627014,-0.736328125,0.5361328125,0.09765625
2023-08-01T16:05:14.961868,0.8424549698829651,0.028631068766117096,0.004965659696608782,0.5379825830459595,-0.736328125,0.5361328125,0.09765625
2023-08-01T16:05:14.991046,0.8424549698829651,0.028631068766117096,0.004965659696608782,0.5379825830459595,-0.69140625,0.51025390625,0.10107421875
2023-08-01T16:05:14.991549,0.8447845578193665,0.029012640938162804,0.0055734142661094666,0.5342903733253479,-0.69140625,0.51025390625,0.10107421875
2023-08-01T16:05:15.019812,0.8447845578193665,0.029012640938162804,0.0055734142661094666,0.5342903733253479,-0.65478515625,0.48828125,0.142578125
2023-08-01T16:05:15.019812,0.8471033573150635,0.02915509045124054,0.006154689006507397,0.5305920243263245,-0.65478515625,0.48828125,0.142578125
2023-08-01T16:05:15.020808,0.8471033573150635,0.02915509045124054,0.006154689006507397,0.5305920243263245,-0.63232421875,0.51123046875,0.18701171875
2023-08-01T16:05:15.020808,0.8496102094650269,0.029328707605600357,0.006613221950829029,0.5265534520149231,-0.63232421875,0.51123046875,0.18701171875
2023-08-01T16:05:15.021955,0.8496102094650269,0.029328707605600357,0.006613221950829029,0.5265534520149231,-0.6337890625,0.57568359375,0.20458984375
2023-08-01T16:05:15.023175,0.8522759079933167,0.029380081221461296,0.007094192784279585,0.5222185850143433,-0.6337890625,0.57568359375,0.20458984375
2023-08-01T16:05:15.038039,0.8522759079933167,0.029380081221461296,0.007094192784279585,0.5222185850143433,-0.638671875,0.6328125,0.2060546875
2023-08-01T16:05:15.039034,0.855072021484375,0.029248902574181557,0.007504045031964779,0.5176292061805725,-0.638671875,0.6328125,0.2060546875
2023-08-01T16:05:15.039034,0.855072021484375,0.029248902574181557,0.007504045031964779,0.5176292061805725,-0.64111328125,0.67724609375,0.18896484375
2023-08-01T16:05:15.040031,0.8580983281135559,0.028945470228791237,0.00780511274933815,0.5126095414161682,-0.64111328125,0.67724609375,0.18896484375
2023-08-01T16:05:15.041027,0.8580983281135559,0.028945470228791237,0.00780511274933815,0.5126095414161682,-0.64501953125,0.69482421875,0.17626953125
2023-08-01T16:05:15.041531,0.8612785339355469,0.028363609686493874,0.008261389099061489,0.5072736144065857,-0.64501953125,0.69482421875,0.17626953125
2023-08-01T16:05:15.042570,0.8612785339355469,0.028363609686493874,0.008261389099061489,0.5072736144065857,-0.64306640625,0.6845703125,0.1640625
2023-08-01T16:05:15.042570,0.8646457195281982,0.02741096168756485,0.009112711064517498,0.5015509128570557,-0.64306640625,0.6845703125,0.1640625
2023-08-01T16:05:15.043572,0.8646457195281982,0.02741096168756485,0.009112711064517498,0.5015509128570557,-0.65234375,0.66259765625,0.14892578125
2023-08-01T16:05:15.043572,0.8682248592376709,0.026071976870298386,0.010368173941969872,0.4953770339488983,-0.65234375,0.66259765625,0.14892578125
2023-08-01T16:05:15.044568,0.8682248592376709,0.026071976870298386,0.010368173941969872,0.4953770339488983,-0.68505859375,0.640625,0.15234375
2023-08-01T16:05:15.044568,0.8717743754386902,0.024638686329126358,0.011820766143500805,0.4891447126865387,-0.68505859375,0.640625,0.15234375
2023-08-01T16:05:15.045565,0.8717743754386902,0.024638686329126358,0.011820766143500805,0.4891447126865387,-0.78759765625,0.62890625,0.14111328125
2023-08-01T16:05:15.045565,0.8754075169563293,0.023263514041900635,0.013232276774942875,0.48264414072036743,-0.78759765625,0.62890625,0.14111328125
2023-08-01T16:05:15.046563,0.8754075169563293,0.023263514041900635,0.013232276774942875,0.48264414072036743,-1.0,0.6142578125,0.14013671875
2023-08-01T16:05:15.046563,0.8788380026817322,0.021771972998976707,0.015037479810416698,0.4763859510421753,-1.0,0.6142578125,0.14013671875
2023-08-01T16:05:15.049555,0.8788380026817322,0.021771972998976707,0.015037479810416698,0.4763859510421753,-1.0966796875,0.576171875,0.1396484375
2023-08-01T16:05:15.051061,0.8819519281387329,0.020538123324513435,0.016622664406895638,0.4705983102321625,-1.0966796875,0.576171875,0.1396484375
2023-08-01T16:05:15.057565,0.8819519281387329,0.020538123324513435,0.016622664406895638,0.4705983102321625,-1.04248046875,0.5498046875,0.12646484375
2023-08-01T16:05:15.058563,0.8849794268608093,0.019692640751600266,0.0174776129424572,0.46488499641418457,-1.04248046875,0.5498046875,0.12646484375
2023-08-01T16:05:15.072810,0.8849794268608093,0.019692640751600266,0.0174776129424572,0.46488499641418457,-1.00048828125,0.548828125,0.123046875
2023-08-01T16:05:15.073529,0.8878350853919983,0.018984301015734673,0.01782461628317833,0.45942422747612,-1.00048828125,0.548828125,0.123046875
2023-08-01T16:05:15.080036,0.8878350853919983,0.018984301015734673,0.01782461628317833,0.45942422747612,-0.97607421875,0.5458984375,0.11962890625
2023-08-01T16:05:15.081033,0.8904811143875122,0.018290670588612556,0.017906980589032173,0.454299658536911,-0.97607421875,0.5458984375,0.11962890625
2023-08-01T16:05:15.087598,0.8904811143875122,0.018290670588612556,0.017906980589032173,0.454299658536911,-1.0048828125,0.54248046875,0.119140625
2023-08-01T16:05:15.087598,0.8928857445716858,0.017547940835356712,0.01803388074040413,0.44957980513572693,-1.0048828125,0.54248046875,0.119140625
2023-08-01T16:05:15.095199,0.8928857445716858,0.017547940835356712,0.01803388074040413,0.44957980513572693,-1.0390625,0.54541015625,0.1220703125
2023-08-01T16:05:15.102918,0.8951761722564697,0.016596052795648575,0.018297459930181503,0.44502750039100647,-1.0390625,0.54541015625,0.1220703125
2023-08-01T16:05:15.109900,0.8951761722564697,0.016596052795648575,0.018297459930181503,0.44502750039100647,-1.029296875,0.52783203125,0.1259765625
2023-08-01T16:05:15.109900,0.8973092436790466,0.015590534545481205,0.01861455850303173,0.44073423743247986,-1.029296875,0.52783203125,0.1259765625
2023-08-01T16:05:15.117314,0.8973092436790466,0.015590534545481205,0.01861455850303173,0.44073423743247986,-1.02978515625,0.51123046875,0.1357421875
2023-08-01T16:05:15.125316,0.899291455745697,0.01451999880373478,0.018977584317326546,0.43669670820236206,-1.02978515625,0.51123046875,0.1357421875
2023-08-01T16:05:15.125316,0.899291455745697,0.01451999880373478,0.018977584317326546,0.43669670820236206,-1.10546875,0.50048828125,0.130859375
2023-08-01T16:05:15.126313,0.9010462164878845,0.01334530208259821,0.019561992958188057,0.4330761730670929,-1.10546875,0.50048828125,0.130859375
2023-08-01T16:05:15.139299,0.9010462164878845,0.01334530208259821,0.019561992958188057,0.4330761730670929,-1.17724609375,0.4814453125,0.1376953125
2023-08-01T16:05:15.140806,0.9025384783744812,0.012299999594688416,0.020025908946990967,0.4299674928188324,-1.17724609375,0.4814453125,0.1376953125
2023-08-01T16:05:15.147967,0.9025384783744812,0.012299999594688416,0.020025908946990967,0.4299674928188324,-1.1630859375,0.47607421875,0.13330078125
2023-08-01T16:05:15.147967,0.9038186073303223,0.011623953469097614,0.01969267800450325,0.42730435729026794,-1.1630859375,0.47607421875,0.13330078125
2023-08-01T16:05:15.156963,0.9038186073303223,0.011623953469097614,0.01969267800450325,0.42730435729026794,-1.13134765625,0.4892578125,0.1328125
2023-08-01T16:05:15.162727,0.9049336910247803,0.01111642736941576,0.01874377951025963,0.42499426007270813,-1.13134765625,0.4892578125,0.1328125
2023-08-01T16:05:15.169710,0.9049336910247803,0.01111642736941576,0.01874377951025963,0.42499426007270813,-1.08203125,0.49560546875,0.1396484375
2023-08-01T16:05:15.170709,0.9059236645698547,0.010665352456271648,0.01747240126132965,0.42294591665267944,-1.08203125,0.49560546875,0.1396484375
2023-08-01T16:05:15.177236,0.9059236645698547,0.010665352456271648,0.01747240126132965,0.42294591665267944,-1.03662109375,0.4951171875,0.14794921875
2023-08-01T16:05:15.185052,0.9067915678024292,0.010270601138472557,0.016100026667118073,0.42114630341529846,-1.03662109375,0.4951171875,0.14794921875
2023-08-01T16:05:15.186048,0.9067915678024292,0.010270601138472557,0.016100026667118073,0.42114630341529846,-1.01513671875,0.4921875,0.146484375
2023-08-01T16:05:15.186048,0.9075562357902527,0.009754503145813942,0.014905081130564213,0.4195527732372284,-1.01513671875,0.4921875,0.146484375
2023-08-01T16:05:15.200079,0.9075562357902527,0.009754503145813942,0.014905081130564213,0.4195527732372284,-0.9931640625,0.47314453125,0.1474609375
2023-08-01T16:05:15.200079,0.9082430601119995,0.009096040390431881,0.014035860076546669,0.41810861229896545,-0.9931640625,0.47314453125,0.1474609375
2023-08-01T16:05:15.207574,0.9082430601119995,0.009096040390431881,0.014035860076546669,0.41810861229896545,-0.97119140625,0.44970703125,0.142578125
2023-08-01T16:05:15.207574,0.9088475108146667,0.008371604606509209,0.013452108949422836,0.4168274700641632,-0.97119140625,0.44970703125,0.142578125
2023-08-01T16:05:15.214584,0.9088475108146667,0.008371604606509209,0.013452108949422836,0.4168274700641632,-0.9677734375,0.43115234375,0.13525390625
2023-08-01T16:05:15.215581,0.9093828201293945,0.007653735112398863,0.013071779161691666,0.4156843423843384,-0.9677734375,0.43115234375,0.13525390625
2023-08-01T16:05:15.230797,0.9093828201293945,0.007653735112398863,0.013071779161691666,0.4156843423843384,-1.009765625,0.416015625,0.15478515625
2023-08-01T16:05:15.230797,0.9098141193389893,0.006952356081455946,0.012938786298036575,0.41475600004196167,-1.009765625,0.416015625,0.15478515625
2023-08-01T16:05:15.237082,0.9098141193389893,0.006952356081455946,0.012938786298036575,0.41475600004196167,-1.00732421875,0.39013671875,0.16259765625
2023-08-01T16:05:15.238078,0.9101570844650269,0.006312075071036816,0.0127904387190938,0.41401779651641846,-1.00732421875,0.39013671875,0.16259765625
2023-08-01T16:05:15.244580,0.9101570844650269,0.006312075071036816,0.0127904387190938,0.41401779651641846,-0.9873046875,0.3779296875,0.162109375
2023-08-01T16:05:15.245578,0.9104184508323669,0.005761133506894112,0.012547378428280354,0.4134580194950104,-0.9873046875,0.3779296875,0.162109375
2023-08-01T16:05:15.259724,0.9104184508323669,0.005761133506894112,0.012547378428280354,0.4134580194950104,-0.9951171875,0.373046875,0.158203125
2023-08-01T16:05:15.260720,0.9105935096740723,0.005168678238987923,0.012468072585761547,0.41308265924453735,-0.9951171875,0.373046875,0.158203125
2023-08-01T16:05:15.267073,0.9105935096740723,0.005168678238987923,0.012468072585761547,0.41308265924453735,-0.9951171875,0.369140625,0.15380859375
2023-08-01T16:05:15.268070,0.9107071161270142,0.004604197572916746,0.012394078075885773,0.41284093260765076,-0.9951171875,0.369140625,0.15380859375
2023-08-01T16:05:15.275071,0.9107071161270142,0.004604197572916746,0.012394078075885773,0.41284093260765076,-0.99072265625,0.36669921875,0.14697265625
2023-08-01T16:05:15.276108,0.9107537269592285,0.004106163512915373,0.012279188260436058,0.4127468466758728,-0.99072265625,0.36669921875,0.14697265625
2023-08-01T16:05:15.289591,0.9107537269592285,0.004106163512915373,0.012279188260436058,0.4127468466758728,-0.97900390625,0.36474609375,0.146484375
2023-08-01T16:05:15.289591,0.9107556939125061,0.0036651291884481907,0.012079314328730106,0.41275280714035034,-0.97900390625,0.36474609375,0.146484375
2023-08-01T16:05:15.297629,0.9107556939125061,0.0036651291884481907,0.012079314328730106,0.41275280714035034,-0.95263671875,0.36279296875,0.15087890625
2023-08-01T16:05:15.297629,0.9107588529586792,0.0033659900072962046,0.011770341545343399,0.4127569794654846,-0.95263671875,0.36279296875,0.15087890625
2023-08-01T16:05:15.304961,0.9107588529586792,0.0033659900072962046,0.011770341545343399,0.4127569794654846,-0.9208984375,0.3701171875,0.1513671875
2023-08-01T16:05:15.304961,0.9107275009155273,0.003145371563732624,0.011455773375928402,0.4128369390964508,-0.9208984375,0.3701171875,0.1513671875
2023-08-01T16:05:15.320090,0.9107275009155273,0.003145371563732624,0.011455773375928402,0.4128369390964508,-0.90185546875,0.37548828125,0.15185546875
2023-08-01T16:05:15.321087,0.910690188407898,0.0029421625658869743,0.01122246403247118,0.4129270613193512,-0.90185546875,0.37548828125,0.15185546875
2023-08-01T16:05:15.327613,0.910690188407898,0.0029421625658869743,0.01122246403247118,0.4129270613193512,-0.88818359375,0.37109375,0.15673828125
2023-08-01T16:05:15.328606,0.910659909248352,0.002806935226544738,0.011047041043639183,0.41299954056739807,-0.88818359375,0.37109375,0.15673828125
2023-08-01T16:05:15.342726,0.910659909248352,0.002806935226544738,0.011047041043639183,0.41299954056739807,-0.88427734375,0.3720703125,0.15185546875
2023-08-01T16:05:15.342726,0.9106392860412598,0.002682854188606143,0.010926739312708378,0.4130491018295288,-0.88427734375,0.3720703125,0.15185546875
2023-08-01T16:05:15.343727,0.9106392860412598,0.002682854188606143,0.010926739312708378,0.4130491018295288,-0.900390625,0.37548828125,0.15087890625
2023-08-01T16:05:15.349710,0.9106377959251404,0.0024673291482031345,0.01101965643465519,0.4130513072013855,-0.900390625,0.37548828125,0.15087890625
2023-08-01T16:05:15.357665,0.9106377959251404,0.0024673291482031345,0.01101965643465519,0.4130513072013855,-0.90380859375,0.36962890625,0.14013671875
2023-08-01T16:05:15.357665,0.9106364250183105,0.0022940535563975573,0.011108619160950184,0.413053035736084,-0.90380859375,0.36962890625,0.14013671875
2023-08-01T16:05:15.364700,0.9106364250183105,0.0022940535563975573,0.011108619160950184,0.413053035736084,-0.90087890625,0.36572265625,0.13671875
2023-08-01T16:05:15.365698,0.9106364846229553,0.0022269506007432938,0.0110781816765666,0.4130537807941437,-0.90087890625,0.36572265625,0.13671875
2023-08-01T16:05:15.372694,0.9106364846229553,0.0022269506007432938,0.0110781816765666,0.4130537807941437,-0.919921875,0.37060546875,0.13623046875
2023-08-01T16:05:15.387928,0.9106384515762329,0.002232057275250554,0.010901289992034435,0.4130541682243347,-0.919921875,0.37060546875,0.13623046875
2023-08-01T16:05:15.387928,0.9106384515762329,0.002232057275250554,0.010901289992034435,0.4130541682243347,-0.9306640625,0.37353515625,0.13671875
2023-08-01T16:05:15.388927,0.9106191992759705,0.0023283115588128567,0.010690230876207352,0.41310158371925354,-0.9306640625,0.37353515625,0.13671875
2023-08-01T16:05:15.395038,0.9106191992759705,0.0023283115588128567,0.010690230876207352,0.41310158371925354,-0.9052734375,0.37939453125,0.1396484375
2023-08-01T16:05:15.395038,0.9105961918830872,0.002461035270243883,0.010399019345641136,0.413159042596817,-0.9052734375,0.37939453125,0.1396484375
2023-08-01T16:05:15.401525,0.9105961918830872,0.002461035270243883,0.010399019345641136,0.413159042596817,-0.88525390625,0.38818359375,0.134765625
2023-08-01T16:05:15.409977,0.910598874092102,0.0025676137302070856,0.010164122097194195,0.4131584167480469,-0.88525390625,0.38818359375,0.134765625
2023-08-01T16:05:15.417502,0.910598874092102,0.0025676137302070856,0.010164122097194195,0.4131584167480469,-0.890625,0.39111328125,0.13525390625
2023-08-01T16:05:15.417502,0.9105990529060364,0.0025100999046117067,0.010138026438653469,0.4131590723991394,-0.890625,0.39111328125,0.13525390625
2023-08-01T16:05:15.424632,0.9105990529060364,0.0025100999046117067,0.010138026438653469,0.4131590723991394,-0.8955078125,0.3935546875,0.1328125
2023-08-01T16:05:15.425631,0.9105984568595886,0.002486195182427764,0.010190712288022041,0.41315922141075134,-0.8955078125,0.3935546875,0.1328125
2023-08-01T16:05:15.439621,0.9105984568595886,0.002486195182427764,0.010190712288022041,0.41315922141075134,-0.89697265625,0.39501953125,0.126953125
2023-08-01T16:05:15.440619,0.91059809923172,0.002363813342526555,0.010192936286330223,0.41316041350364685,-0.89697265625,0.39501953125,0.126953125
2023-08-01T16:05:15.447758,0.91059809923172,0.002363813342526555,0.010192936286330223,0.41316041350364685,-0.91357421875,0.392578125,0.1279296875
2023-08-01T16:05:15.447758,0.9105983972549438,0.0022439896129071712,0.01013856939971447,0.4131617546081543,-0.91357421875,0.392578125,0.1279296875
2023-08-01T16:05:15.454883,0.9105983972549438,0.0022439896129071712,0.01013856939971447,0.4131617546081543,-0.9296875,0.3837890625,0.13330078125
2023-08-01T16:05:15.462701,0.910571277141571,0.002164465608075261,0.010009496472775936,0.4132251739501953,-0.9296875,0.3837890625,0.13330078125
2023-08-01T16:05:15.462701,0.910571277141571,0.002164465608075261,0.010009496472775936,0.4132251739501953,-0.927734375,0.3779296875,0.138671875
2023-08-01T16:05:15.463703,0.9105208516120911,0.002168705454096198,0.009770708158612251,0.41334205865859985,-0.927734375,0.3779296875,0.138671875
2023-08-01T16:05:15.477221,0.9105208516120911,0.002168705454096198,0.009770708158612251,0.41334205865859985,-0.9130859375,0.38232421875,0.14013671875
2023-08-01T16:05:15.478218,0.9104637503623962,0.002247515134513378,0.009383500553667545,0.41347622871398926,-0.9130859375,0.38232421875,0.14013671875
2023-08-01T16:05:15.485218,0.9104637503623962,0.002247515134513378,0.009383500553667545,0.41347622871398926,-0.90673828125,0.3837890625,0.1455078125
2023-08-01T16:05:15.485218,0.9103711843490601,0.002307967050001025,0.009050995111465454,0.413687139749527,-0.90673828125,0.3837890625,0.1455078125
2023-08-01T16:05:15.493035,0.9103711843490601,0.002307967050001025,0.009050995111465454,0.413687139749527,-0.908203125,0.384765625,0.150390625
2023-08-01T16:05:15.493219,0.9102725982666016,0.0023798556067049503,0.008897058665752411,0.41390717029571533,-0.908203125,0.384765625,0.150390625
2023-08-01T16:05:15.507774,0.9102725982666016,0.0023798556067049503,0.008897058665752411,0.41390717029571533,-0.89892578125,0.3876953125,0.14794921875
2023-08-01T16:05:15.508772,0.9101744294166565,0.002381962724030018,0.008896494284272194,0.41412273049354553,-0.89892578125,0.3876953125,0.14794921875
2023-08-01T16:05:15.515023,0.9101744294166565,0.002381962724030018,0.008896494284272194,0.41412273049354553,-0.9013671875,0.39404296875,0.1484375
2023-08-01T16:05:15.516021,0.9100654721260071,0.0022840038873255253,0.00911622028797865,0.4143580496311188,-0.9013671875,0.39404296875,0.1484375
2023-08-01T16:05:15.522515,0.9100654721260071,0.0022840038873255253,0.00911622028797865,0.4143580496311188,-0.89892578125,0.390625,0.1435546875
2023-08-01T16:05:15.522515,0.9099611043930054,0.0021626583766192198,0.009387079626321793,0.41458165645599365,-0.89892578125,0.390625,0.1435546875
2023-08-01T16:05:15.537915,0.9099611043930054,0.0021626583766192198,0.009387079626321793,0.41458165645599365,-0.90234375,0.388671875,0.13720703125
2023-08-01T16:05:15.537915,0.909856379032135,0.002068980596959591,0.009597254917025566,0.4148072898387909,-0.90234375,0.388671875,0.13720703125
2023-08-01T16:05:15.552720,0.909856379032135,0.002068980596959591,0.009597254917025566,0.4148072898387909,-0.90673828125,0.38916015625,0.13134765625
2023-08-01T16:05:15.559715,0.9097487330436707,0.0020474554039537907,0.009649363346397877,0.4150420129299164,-0.90673828125,0.38916015625,0.13134765625
2023-08-01T16:05:15.560699,0.9097487330436707,0.0020474554039537907,0.009649363346397877,0.4150420129299164,-0.90380859375,0.38623046875,0.13525390625
2023-08-01T16:05:15.561203,0.9096276164054871,0.0021715566981583834,0.009547831490635872,0.41530922055244446,-0.90380859375,0.38623046875,0.13525390625
2023-08-01T16:05:15.567699,0.9096276164054871,0.0021715566981583834,0.009547831490635872,0.41530922055244446,-0.90185546875,0.38720703125,0.13720703125
2023-08-01T16:05:15.567699,0.9095184206962585,0.0023500570096075535,0.00932665541768074,0.4155520796775818,-0.90185546875,0.38720703125,0.13720703125
2023-08-01T16:05:15.575205,0.9095184206962585,0.0023500570096075535,0.00932665541768074,0.4155520796775818,-0.8984375,0.38671875,0.14208984375
2023-08-01T16:05:15.575205,0.9094156622886658,0.0025362104643136263,0.009126439690589905,0.41578051447868347,-0.8984375,0.38671875,0.14208984375
2023-08-01T16:05:15.581710,0.9094156622886658,0.0025362104643136263,0.009126439690589905,0.41578051447868347,-0.88671875,0.38427734375,0.14794921875
2023-08-01T16:05:15.583197,0.909323513507843,0.0027578193694353104,0.008936822414398193,0.41598454117774963,-0.88671875,0.38427734375,0.14794921875
2023-08-01T16:05:15.597176,0.909323513507843,0.0027578193694353104,0.008936822414398193,0.41598454117774963,-0.88330078125,0.38525390625,0.1494140625
2023-08-01T16:05:15.598173,0.9092437624931335,0.0029906518757343292,0.00872565433382988,0.41616183519363403,-0.88330078125,0.38525390625,0.1494140625
2023-08-01T16:05:15.605692,0.9092437624931335,0.0029906518757343292,0.00872565433382988,0.41616183519363403,-0.89013671875,0.38818359375,0.1494140625
2023-08-01T16:05:15.605692,0.9091785550117493,0.003270271932706237,0.008458830416202545,0.41630786657333374,-0.89013671875,0.38818359375,0.1494140625
2023-08-01T16:05:15.612896,0.9091785550117493,0.003270271932706237,0.008458830416202545,0.41630786657333374,-0.89208984375,0.392578125,0.146484375
2023-08-01T16:05:15.612896,0.9091198444366455,0.003560310462489724,0.008156363852322102,0.41643932461738586,-0.89208984375,0.392578125,0.146484375
2023-08-01T16:05:15.627875,0.9091198444366455,0.003560310462489724,0.008156363852322102,0.41643932461738586,-0.88916015625,0.39208984375,0.1455078125
2023-08-01T16:05:15.627875,0.9090802669525146,0.0038683549501001835,0.007869013585150242,0.4165286421775818,-0.88916015625,0.39208984375,0.1455078125
2023-08-01T16:05:15.634876,0.9090802669525146,0.0038683549501001835,0.007869013585150242,0.4165286421775818,-0.8876953125,0.39306640625,0.14013671875
2023-08-01T16:05:15.642804,0.9090566635131836,0.004174476023763418,0.0076109967194497585,0.41658225655555725,-0.8876953125,0.39306640625,0.14013671875
2023-08-01T16:05:15.642804,0.9090566635131836,0.004174476023763418,0.0076109967194497585,0.41658225655555725,-0.896484375,0.3916015625,0.1396484375
2023-08-01T16:05:15.643802,0.9090580940246582,0.0044643632136285305,0.007407985627651215,0.41657954454421997,-0.896484375,0.3916015625,0.1396484375
2023-08-01T16:05:15.656826,0.9090580940246582,0.0044643632136285305,0.007407985627651215,0.41657954454421997,-0.8955078125,0.39208984375,0.13623046875
2023-08-01T16:05:15.657824,0.9090593457221985,0.0047973147593438625,0.007224708795547485,0.4165765047073364,-0.8955078125,0.39208984375,0.13623046875
2023-08-01T16:05:15.664824,0.9090593457221985,0.0047973147593438625,0.007224708795547485,0.4165765047073364,-0.89453125,0.39404296875,0.14208984375
2023-08-01T16:05:15.665822,0.9090610146522522,0.00516275642439723,0.006957892794162035,0.4165729284286499,-0.89453125,0.39404296875,0.14208984375
2023-08-01T16:05:15.672952,0.9090610146522522,0.00516275642439723,0.006957892794162035,0.4165729284286499,-0.916015625,0.3955078125,0.150390625
2023-08-01T16:05:15.672952,0.909062922000885,0.005575526971369982,0.006619695108383894,0.41656872630119324,-0.916015625,0.3955078125,0.150390625
2023-08-01T16:05:15.679779,0.909062922000885,0.005575526971369982,0.006619695108383894,0.41656872630119324,-0.90234375,0.39404296875,0.1484375
2023-08-01T16:05:15.687208,0.9090651273727417,0.005995783489197493,0.006233252119272947,0.41656434535980225,-0.90234375,0.39404296875,0.1484375
2023-08-01T16:05:15.695203,0.9090651273727417,0.005995783489197493,0.006233252119272947,0.41656434535980225,-0.87451171875,0.39306640625,0.13623046875
2023-08-01T16:05:15.703202,0.9090673923492432,0.006406661123037338,0.005778822116553783,0.4165595769882202,-0.87451171875,0.39306640625,0.13623046875
2023-08-01T16:05:15.709186,0.9090673923492432,0.006406661123037338,0.005778822116553783,0.4165595769882202,-0.884765625,0.3916015625,0.13916015625
2023-08-01T16:05:15.710692,0.9090455174446106,0.00677122175693512,0.005337382201105356,0.4166077971458435,-0.884765625,0.3916015625,0.13916015625
2023-08-01T16:05:15.711692,0.9090455174446106,0.00677122175693512,0.005337382201105356,0.4166077971458435,-0.8994140625,0.38623046875,0.1328125
2023-08-01T16:05:15.725188,0.9090141654014587,0.007178156170994043,0.004892007447779179,0.4166746139526367,-0.8994140625,0.38623046875,0.1328125
2023-08-01T16:05:15.726185,0.9090141654014587,0.007178156170994043,0.004892007447779179,0.4166746139526367,-0.91064453125,0.38916015625,0.13427734375
2023-08-01T16:05:15.729177,0.9089713096618652,0.007547534536570311,0.004516019951552153,0.41676583886146545,-0.91064453125,0.38916015625,0.13427734375
2023-08-01T16:05:15.732190,0.9089713096618652,0.007547534536570311,0.004516019951552153,0.41676583886146545,-0.9052734375,0.390625,0.142578125
2023-08-01T16:05:15.733190,0.90892094373703,0.007860342971980572,0.0042760721407830715,0.4168723523616791,-0.9052734375,0.390625,0.142578125
2023-08-01T16:05:15.740682,0.90892094373703,0.007860342971980572,0.0042760721407830715,0.4168723523616791,-0.88818359375,0.388671875,0.14111328125
2023-08-01T16:05:15.740682,0.9088667035102844,0.008086270652711391,0.004243616014719009,0.41698676347732544,-0.88818359375,0.388671875,0.14111328125
2023-08-01T16:05:15.755173,0.9088667035102844,0.008086270652711391,0.004243616014719009,0.41698676347732544,-0.89794921875,0.3916015625,0.134765625
2023-08-01T16:05:15.755173,0.9088112711906433,0.00823006872087717,0.004510960076004267,0.41710206866264343,-0.89794921875,0.3916015625,0.134765625
2023-08-01T16:05:15.762174,0.9088112711906433,0.00823006872087717,0.004510960076004267,0.41710206866264343,-0.9072265625,0.39404296875,0.13232421875
2023-08-01T16:05:15.763174,0.9087543487548828,0.00840429775416851,0.00491388700902462,0.4172177314758301,-0.9072265625,0.39404296875,0.13232421875
2023-08-01T16:05:15.769158,0.9087543487548828,0.00840429775416851,0.00491388700902462,0.4172177314758301,-0.9052734375,0.3994140625,0.1337890625
2023-08-01T16:05:15.770664,0.9086890816688538,0.008583653718233109,0.0052552358247339725,0.41735216975212097,-0.9052734375,0.3994140625,0.1337890625
2023-08-01T16:05:15.784758,0.9086890816688538,0.008583653718233109,0.0052552358247339725,0.41735216975212097,-0.90380859375,0.4033203125,0.13818359375
2023-08-01T16:05:15.785756,0.9086358547210693,0.008732862770557404,0.005472980905324221,0.41746214032173157,-0.90380859375,0.4033203125,0.13818359375
2023-08-01T16:05:15.792846,0.9086358547210693,0.008732862770557404,0.005472980905324221,0.41746214032173157,-0.89404296875,0.40087890625,0.1396484375
2023-08-01T16:05:15.792846,0.9085806608200073,0.00887873861938715,0.005660173948854208,0.41757673025131226,-0.89404296875,0.40087890625,0.1396484375
2023-08-01T16:05:15.799832,0.9085806608200073,0.00887873861938715,0.005660173948854208,0.41757673025131226,-0.888671875,0.39794921875,0.1396484375
2023-08-01T16:05:15.800830,0.9085357785224915,0.009031045250594616,0.005852062255144119,0.4176684319972992,-0.888671875,0.39794921875,0.1396484375
2023-08-01T16:05:15.815270,0.9085357785224915,0.009031045250594616,0.005852062255144119,0.4176684319972992,-0.8916015625,0.39990234375,0.1298828125
2023-08-01T16:05:15.816267,0.9085033535957336,0.00919885654002428,0.005928344093263149,0.4177343249320984,-0.8916015625,0.39990234375,0.1298828125
2023-08-01T16:05:15.823269,0.9085033535957336,0.00919885654002428,0.005928344093263149,0.4177343249320984,-0.91015625,0.39794921875,0.126953125
2023-08-01T16:05:15.824266,0.9084655046463013,0.00937612634152174,0.00585812097415328,0.4178135395050049,-0.91015625,0.39794921875,0.126953125
2023-08-01T16:05:15.829252,0.9084655046463013,0.00937612634152174,0.00585812097415328,0.4178135395050049,-0.9052734375,0.39404296875,0.13330078125
2023-08-01T16:05:15.830759,0.9084442853927612,0.009604428894817829,0.0056264279410243034,0.4178578555583954,-0.9052734375,0.39404296875,0.13330078125
2023-08-01T16:05:15.846249,0.9084442853927612,0.009604428894817829,0.0056264279410243034,0.4178578555583954,-0.88427734375,0.3955078125,0.13232421875
2023-08-01T16:05:15.847247,0.9084122180938721,0.009794623591005802,0.005376885645091534,0.41792622208595276,-0.88427734375,0.3955078125,0.13232421875
2023-08-01T16:05:15.853250,0.9084122180938721,0.009794623591005802,0.005376885645091534,0.41792622208595276,-0.884765625,0.39990234375,0.1318359375
2023-08-01T16:05:15.854247,0.9083864688873291,0.009937774389982224,0.00520438514649868,0.41798123717308044,-0.884765625,0.39990234375,0.1318359375
2023-08-01T16:05:15.859235,0.9083864688873291,0.009937774389982224,0.00520438514649868,0.41798123717308044,-0.90576171875,0.3974609375,0.14013671875
2023-08-01T16:05:15.860743,0.9083868861198425,0.009972993284463882,0.005127844866365194,0.4179804027080536,-0.90576171875,0.3974609375,0.14013671875
2023-08-01T16:05:15.875114,0.9083868861198425,0.009972993284463882,0.005127844866365194,0.4179804027080536,-0.9091796875,0.39794921875,0.13623046875
2023-08-01T16:05:15.882797,0.9083564877510071,0.010035731829702854,0.004991584457457066,0.41804665327072144,-0.9091796875,0.39794921875,0.13623046875
2023-08-01T16:05:15.889899,0.9083564877510071,0.010035731829702854,0.004991584457457066,0.41804665327072144,-0.9169921875,0.400390625,0.12939453125
2023-08-01T16:05:15.890896,0.9083142280578613,0.01012481190264225,0.004798108246177435,0.418138325214386,-0.9169921875,0.400390625,0.12939453125
2023-08-01T16:05:15.891906,0.9083142280578613,0.01012481190264225,0.004798108246177435,0.418138325214386,-0.92333984375,0.39794921875,0.12158203125
2023-08-01T16:05:15.903173,0.9082679748535156,0.010216236114501953,0.0044736843556165695,0.41824036836624146,-0.92333984375,0.39794921875,0.12158203125
2023-08-01T16:05:15.905169,0.9082679748535156,0.010216236114501953,0.0044736843556165695,0.41824036836624146,-0.93359375,0.3994140625,0.1181640625
2023-08-01T16:05:15.906167,0.9081721901893616,0.010393990203738213,0.003886211896315217,0.41844961047172546,-0.93359375,0.3994140625,0.1181640625
2023-08-01T16:05:15.912173,0.9081721901893616,0.010393990203738213,0.003886211896315217,0.41844961047172546,-0.95458984375,0.40576171875,0.11962890625
2023-08-01T16:05:15.913172,0.9080426096916199,0.010603506118059158,0.0030283862724900246,0.41873273253440857,-0.95458984375,0.40576171875,0.11962890625
2023-08-01T16:05:15.919157,0.9080426096916199,0.010603506118059158,0.0030283862724900246,0.41873273253440857,-0.95849609375,0.404296875,0.13818359375
2023-08-01T16:05:15.920664,0.9078865647315979,0.010799555107951164,0.0020360832568258047,0.4190717041492462,-0.95849609375,0.404296875,0.13818359375
2023-08-01T16:05:15.934787,0.9078865647315979,0.010799555107951164,0.0020360832568258047,0.4190717041492462,-0.94189453125,0.39892578125,0.1494140625
2023-08-01T16:05:15.935784,0.9076972007751465,0.010960466228425503,0.0009686675039120018,0.41948145627975464,-0.94189453125,0.39892578125,0.1494140625
2023-08-01T16:05:15.942850,0.9076972007751465,0.010960466228425503,0.0009686675039120018,0.41948145627975464,-0.93359375,0.39794921875,0.14794921875
2023-08-01T16:05:15.942850,0.9074528217315674,0.011134938336908817,-0.0001251084468094632,0.42000651359558105,-0.93359375,0.39794921875,0.14794921875
2023-08-01T16:05:15.949833,0.9074528217315674,0.011134938336908817,-0.0001251084468094632,0.42000651359558105,-0.93310546875,0.3984375,0.15234375
2023-08-01T16:05:15.950830,0.9072032570838928,0.011345703154802322,-0.0013391855172812939,0.4205373525619507,-0.93310546875,0.3984375,0.15234375
2023-08-01T16:05:15.958905,0.9072032570838928,0.011345703154802322,-0.0013391855172812939,0.4205373525619507,-0.9306640625,0.39892578125,0.15087890625
2023-08-01T16:05:15.964927,0.9069212675094604,0.011572788469493389,-0.002714711707085371,0.4211324155330658,-0.9306640625,0.39892578125,0.15087890625
2023-08-01T16:05:15.971919,0.9069212675094604,0.011572788469493389,-0.002714711707085371,0.4211324155330658,-0.92626953125,0.3984375,0.1435546875
2023-08-01T16:05:15.973066,0.9066160917282104,0.01170422788709402,-0.004135174211114645,0.42177391052246094,-0.92626953125,0.3984375,0.1435546875
2023-08-01T16:05:15.984150,0.9066160917282104,0.01170422788709402,-0.004135174211114645,0.42177391052246094,-0.92431640625,0.39306640625,0.146484375
2023-08-01T16:05:15.985147,0.9063074588775635,0.011749034747481346,-0.005369576625525951,0.4224216043949127,-0.92431640625,0.39306640625,0.146484375
2023-08-01T16:05:15.987142,0.9063074588775635,0.011749034747481346,-0.005369576625525951,0.4224216043949127,-0.92578125,0.3876953125,0.1533203125
2023-08-01T16:05:15.988139,0.9059985280036926,0.011681352742016315,-0.006412503309547901,0.4230709671974182,-0.92578125,0.3876953125,0.1533203125
2023-08-01T16:05:16.001965,0.9059985280036926,0.011681352742016315,-0.006412503309547901,0.4230709671974182,-0.912109375,0.39453125,0.16162109375
2023-08-01T16:05:16.003145,0.9056873321533203,0.01153345312923193,-0.007283804938197136,0.42372676730155945,-0.912109375,0.39453125,0.16162109375
2023-08-01T16:05:16.010650,0.9056873321533203,0.01153345312923193,-0.007283804938197136,0.42372676730155945,-0.90283203125,0.404296875,0.16845703125
2023-08-01T16:05:16.011590,0.9053635597229004,0.011284170672297478,-0.008141711354255676,0.42440924048423767,-0.90283203125,0.404296875,0.16845703125
2023-08-01T16:05:16.017762,0.9053635597229004,0.011284170672297478,-0.008141711354255676,0.42440924048423767,-0.90380859375,0.412109375,0.17236328125
2023-08-01T16:05:16.018759,0.9050363302230835,0.011113680899143219,-0.00915162730962038,0.4250905215740204,-0.90380859375,0.412109375,0.17236328125
2023-08-01T16:05:16.032868,0.9050363302230835,0.011113680899143219,-0.00915162730962038,0.4250905215740204,-0.9091796875,0.4189453125,0.166015625
2023-08-01T16:05:16.033865,0.9046929478645325,0.010958398692309856,-0.010392991825938225,0.4257964491844177,-0.9091796875,0.4189453125,0.166015625
2023-08-01T16:05:16.069586,0.9046929478645325,0.010958398692309856,-0.010392991825938225,0.4257964491844177,-0.90966796875,0.423828125,0.16259765625
2023-08-01T16:05:16.070582,0.9043291807174683,0.010883954353630543,-0.011881519109010696,0.42653149366378784,-0.90966796875,0.423828125,0.16259765625
2023-08-01T16:05:16.071593,0.9043291807174683,0.010883954353630543,-0.011881519109010696,0.42653149366378784,-0.908203125,0.42578125,0.1572265625
2023-08-01T16:05:16.071593,0.9039402008056641,0.010952119715511799,-0.013698636554181576,0.4272990822792053,-0.908203125,0.42578125,0.1572265625
2023-08-01T16:05:16.072920,0.9039402008056641,0.010952119715511799,-0.013698636554181576,0.4272990822792053,-0.904296875,0.4296875,0.1533203125
2023-08-01T16:05:16.073961,0.903529703617096,0.011107170023024082,-0.015824005007743835,0.4280890226364136,-0.904296875,0.4296875,0.1533203125
2023-08-01T16:05:16.073961,0.903529703617096,0.011107170023024082,-0.015824005007743835,0.4280890226364136,-0.88525390625,0.43212890625,0.1416015625
2023-08-01T16:05:16.074958,0.9031007289886475,0.011244988068938255,-0.01818462461233139,0.42889612913131714,-0.88525390625,0.43212890625,0.1416015625
2023-08-01T16:05:16.077950,0.9031007289886475,0.011244988068938255,-0.01818462461233139,0.42889612913131714,-0.88134765625,0.43017578125,0.146484375
2023-08-01T16:05:16.077950,0.902656614780426,0.011333554051816463,-0.020603366196155548,0.4297185242176056,-0.88134765625,0.43017578125,0.146484375
2023-08-01T16:05:16.092992,0.902656614780426,0.011333554051816463,-0.020603366196155548,0.4297185242176056,-0.8876953125,0.42578125,0.1650390625
2023-08-01T16:05:16.094050,0.9022125601768494,0.011474722996354103,-0.023020301014184952,0.4305238127708435,-0.8876953125,0.42578125,0.1650390625
2023-08-01T16:05:16.100032,0.9022125601768494,0.011474722996354103,-0.023020301014184952,0.4305238127708435,-0.8896484375,0.43017578125,0.17529296875
2023-08-01T16:05:16.100032,0.9017190933227539,0.011666402220726013,-0.025646179914474487,0.43140333890914917,-0.8896484375,0.43017578125,0.17529296875
2023-08-01T16:05:16.107623,0.9017190933227539,0.011666402220726013,-0.025646179914474487,0.43140333890914917,-0.88818359375,0.42919921875,0.19091796875
2023-08-01T16:05:16.108620,0.9012017846107483,0.011883399449288845,-0.02838798426091671,0.4323056936264038,-0.88818359375,0.42919921875,0.19091796875
2023-08-01T16:05:16.122597,0.9012017846107483,0.011883399449288845,-0.02838798426091671,0.4323056936264038,-0.85986328125,0.42626953125,0.19775390625
2023-08-01T16:05:16.122597,0.9006679058074951,0.012131892144680023,-0.031184369698166847,0.433217853307724,-0.85986328125,0.42626953125,0.19775390625
2023-08-01T16:05:16.129651,0.9006679058074951,0.012131892144680023,-0.031184369698166847,0.433217853307724,-0.84228515625,0.42626953125,0.19677734375
2023-08-01T16:05:16.137649,0.9001452922821045,0.01238231174647808,-0.033932920545339584,0.43408945202827454,-0.84228515625,0.42626953125,0.19677734375
2023-08-01T16:05:16.138647,0.9001452922821045,0.01238231174647808,-0.033932920545339584,0.43408945202827454,-0.8427734375,0.42724609375,0.18798828125
2023-08-01T16:05:16.138647,0.8996012806892395,0.012539289891719818,-0.03651578351855278,0.43500205874443054,-0.8427734375,0.42724609375,0.18798828125
2023-08-01T16:05:16.152648,0.8996012806892395,0.012539289891719818,-0.03651578351855278,0.43500205874443054,-0.8154296875,0.4384765625,0.166015625
2023-08-01T16:05:16.152648,0.8990885615348816,0.012301026843488216,-0.0386829636991024,0.4358806610107422,-0.8154296875,0.4384765625,0.166015625
2023-08-01T16:05:16.159630,0.8990885615348816,0.012301026843488216,-0.0386829636991024,0.4358806610107422,-0.763671875,0.42724609375,0.208984375
2023-08-01T16:05:16.161132,0.8987378478050232,0.011510268785059452,-0.03922472521662712,0.43657663464546204,-0.763671875,0.42724609375,0.208984375
2023-08-01T16:05:16.167627,0.8987378478050232,0.011510268785059452,-0.03922472521662712,0.43657663464546204,-0.77880859375,0.41064453125,0.2392578125
2023-08-01T16:05:16.168625,0.8984138369560242,0.010492898523807526,-0.038736190646886826,0.4373123049736023,-0.77880859375,0.41064453125,0.2392578125
2023-08-01T16:05:16.182943,0.8984138369560242,0.010492898523807526,-0.038736190646886826,0.4373123049736023,-0.853515625,0.42236328125,0.216796875
2023-08-01T16:05:16.182943,0.8980499505996704,0.009435908868908882,-0.03831367567181587,0.4381202459335327,-0.853515625,0.42236328125,0.216796875
2023-08-01T16:05:16.190542,0.8980499505996704,0.009435908868908882,-0.03831367567181587,0.4381202459335327,-0.90478515625,0.42919921875,0.208984375
2023-08-01T16:05:16.191543,0.8976889252662659,0.008659783750772476,-0.038586847484111786,0.43885159492492676,-0.90478515625,0.42919921875,0.208984375
2023-08-01T16:05:16.197617,0.8976889252662659,0.008659783750772476,-0.038586847484111786,0.43885159492492676,-0.90234375,0.427734375,0.20751953125
2023-08-01T16:05:16.199610,0.8972553610801697,0.008202779106795788,-0.039626166224479675,0.4396536350250244,-0.90234375,0.427734375,0.20751953125
2023-08-01T16:05:16.212730,0.8972553610801697,0.008202779106795788,-0.039626166224479675,0.4396536350250244,-0.88525390625,0.42431640625,0.208984375
2023-08-01T16:05:16.213648,0.8967722058296204,0.00810033269226551,-0.041486963629722595,0.44046884775161743,-0.88525390625,0.42431640625,0.208984375
2023-08-01T16:05:16.220630,0.8967722058296204,0.00810033269226551,-0.041486963629722595,0.44046884775161743,-0.88818359375,0.42626953125,0.2119140625
2023-08-01T16:05:16.221768,0.8962425589561462,0.008338559418916702,-0.04415040463209152,0.44128260016441345,-0.88818359375,0.42626953125,0.2119140625
2023-08-01T16:05:16.227233,0.8962425589561462,0.008338559418916702,-0.04415040463209152,0.44128260016441345,-0.89599609375,0.42822265625,0.2255859375
2023-08-01T16:05:16.228231,0.8956751227378845,0.008985376916825771,-0.04774602875113487,0.44204702973365784,-0.89599609375,0.42822265625,0.2255859375
2023-08-01T16:05:16.234885,0.8956751227378845,0.008985376916825771,-0.04774602875113487,0.44204702973365784,-0.88671875,0.43701171875,0.2392578125
2023-08-01T16:05:16.250866,0.8950809240341187,0.009868278168141842,-0.05211034417152405,0.44273847341537476,-0.88671875,0.43701171875,0.2392578125
2023-08-01T16:05:16.257135,0.8950809240341187,0.009868278168141842,-0.05211034417152405,0.44273847341537476,-0.859375,0.45654296875,0.20947265625
2023-08-01T16:05:16.258132,0.894408106803894,0.010678496211767197,-0.05705922469496727,0.4434685707092285,-0.859375,0.45654296875,0.20947265625
2023-08-01T16:05:16.258132,0.894408106803894,0.010678496211767197,-0.05705922469496727,0.4434685707092285,-0.826171875,0.4697265625,0.2314453125
2023-08-01T16:05:16.267135,0.893751859664917,0.01120695099234581,-0.06169523671269417,0.44415733218193054,-0.826171875,0.4697265625,0.2314453125
2023-08-01T16:05:16.268131,0.893751859664917,0.01120695099234581,-0.06169523671269417,0.44415733218193054,-0.78857421875,0.4599609375,0.25
2023-08-01T16:05:16.269129,0.893227219581604,0.011522323824465275,-0.06536640226840973,0.44467923045158386,-0.78857421875,0.4599609375,0.25
2023-08-01T16:05:16.280565,0.893227219581604,0.011522323824465275,-0.06536640226840973,0.44467923045158386,-0.8154296875,0.4560546875,0.27880859375
2023-08-01T16:05:16.280565,0.8926970958709717,0.011709601618349552,-0.06845955550670624,0.4452730417251587,-0.8154296875,0.4560546875,0.27880859375
2023-08-01T16:05:16.287773,0.8926970958709717,0.011709601618349552,-0.06845955550670624,0.4452730417251587,-0.8759765625,0.4541015625,0.3251953125
2023-08-01T16:05:16.288770,0.8921487331390381,0.0120181730017066,-0.07158897817134857,0.4458712339401245,-0.8759765625,0.4541015625,0.3251953125
2023-08-01T16:05:16.294771,0.8921487331390381,0.0120181730017066,-0.07158897817134857,0.4458712339401245,-0.861328125,0.44677734375,0.3974609375
2023-08-01T16:05:16.297765,0.8916580677032471,0.012317348271608353,-0.07431589812040329,0.446397989988327,-0.861328125,0.44677734375,0.3974609375
2023-08-01T16:05:16.309995,0.8916580677032471,0.012317348271608353,-0.07431589812040329,0.446397989988327,-0.80078125,0.4404296875,0.4345703125
2023-08-01T16:05:16.311496,0.8912106156349182,0.012318640016019344,-0.0760808065533638,0.4469938576221466,-0.80078125,0.4404296875,0.4345703125
2023-08-01T16:05:16.317723,0.8912106156349182,0.012318640016019344,-0.0760808065533638,0.4469938576221466,-0.75927734375,0.4248046875,0.447265625
2023-08-01T16:05:16.319718,0.8908869028091431,0.012042844668030739,-0.07641830295324326,0.44758880138397217,-0.75927734375,0.4248046875,0.447265625
2023-08-01T16:05:16.324569,0.8908869028091431,0.012042844668030739,-0.07641830295324326,0.44758880138397217,-0.7138671875,0.41796875,0.41650390625
2023-08-01T16:05:16.326564,0.890687108039856,0.0117202652618289,-0.0758669376373291,0.44808855652809143,-0.7138671875,0.41796875,0.41650390625
2023-08-01T16:05:16.339981,0.890687108039856,0.0117202652618289,-0.0758669376373291,0.44808855652809143,-0.765625,0.4130859375,0.39013671875
2023-08-01T16:05:16.340979,0.890338659286499,0.011721938848495483,-0.07562743872404099,0.44882073998451233,-0.765625,0.4130859375,0.39013671875
2023-08-01T16:05:16.349913,0.890338659286499,0.011721938848495483,-0.07562743872404099,0.44882073998451233,-0.90771484375,0.42919921875,0.3681640625
2023-08-01T16:05:16.350909,0.8898614645004272,0.012308637611567974,-0.07633055746555328,0.4496317505836487,-0.90771484375,0.42919921875,0.3681640625
2023-08-01T16:05:16.361135,0.8898614645004272,0.012308637611567974,-0.07633055746555328,0.4496317505836487,-0.94384765625,0.4462890625,0.36474609375
2023-08-01T16:05:16.361638,0.8893090486526489,0.013442661613225937,-0.07824033498764038,0.45036327838897705,-0.94384765625,0.4462890625,0.36474609375
2023-08-01T16:05:16.369715,0.8893090486526489,0.013442661613225937,-0.07824033498764038,0.45036327838897705,-0.8447265625,0.4404296875,0.34228515625
2023-08-01T16:05:16.370713,0.8887221217155457,0.014906837604939938,-0.08081905543804169,0.4510200321674347,-0.8447265625,0.4404296875,0.34228515625
2023-08-01T16:05:16.379933,0.8887221217155457,0.014906837604939938,-0.08081905543804169,0.4510200321674347,-0.74365234375,0.4404296875,0.32421875
2023-08-01T16:05:16.380930,0.8881932497024536,0.01626795157790184,-0.08319907635450363,0.451581746339798,-0.74365234375,0.4404296875,0.32421875
2023-08-01T16:05:16.407560,0.8881932497024536,0.01626795157790184,-0.08319907635450363,0.451581746339798,-0.69677734375,0.43896484375,0.26904296875
2023-08-01T16:05:16.408557,0.8877838850021362,0.01730971969664097,-0.08489134907722473,0.45203280448913574,-0.69677734375,0.43896484375,0.26904296875
2023-08-01T16:05:16.412598,0.8877838850021362,0.01730971969664097,-0.08489134907722473,0.45203280448913574,-0.66650390625,0.44140625,0.236328125
2023-08-01T16:05:16.412598,0.8875247240066528,0.01800127886235714,-0.08588389307260513,0.45232707262039185,-0.66650390625,0.44140625,0.236328125
2023-08-01T16:05:16.415592,0.8875247240066528,0.01800127886235714,-0.08588389307260513,0.45232707262039185,-0.74267578125,0.4453125,0.24365234375
2023-08-01T16:05:16.416589,0.8873603343963623,0.01846829429268837,-0.0862574502825737,0.45255962014198303,-0.74267578125,0.4453125,0.24365234375
2023-08-01T16:05:16.416589,0.8873603343963623,0.01846829429268837,-0.0862574502825737,0.45255962014198303,-0.81103515625,0.44873046875,0.28564453125
2023-08-01T16:05:16.417587,0.8873098492622375,0.018677104264497757,-0.08605387806892395,0.45268890261650085,-0.81103515625,0.44873046875,0.28564453125
2023-08-01T16:05:16.437137,0.8873098492622375,0.018677104264497757,-0.08605387806892395,0.45268890261650085,-0.81689453125,0.43994140625,0.3818359375
2023-08-01T16:05:16.438135,0.8873424530029297,0.018878335133194923,-0.08540920168161392,0.4527386426925659,-0.81689453125,0.43994140625,0.3818359375
2023-08-01T16:05:16.439141,0.8873424530029297,0.018878335133194923,-0.08540920168161392,0.4527386426925659,-0.7734375,0.4423828125,0.3994140625
2023-08-01T16:05:16.440649,0.8873540759086609,0.019147152081131935,-0.08501306176185608,0.4527788758277893,-0.7734375,0.4423828125,0.3994140625
2023-08-01T16:05:16.445151,0.8873540759086609,0.019147152081131935,-0.08501306176185608,0.4527788758277893,-0.83154296875,0.455078125,0.3515625
2023-08-01T16:05:16.447146,0.8872863054275513,0.01927966997027397,-0.08448120951652527,0.45300573110580444,-0.83154296875,0.455078125,0.3515625
2023-08-01T16:05:16.464149,0.8872863054275513,0.01927966997027397,-0.08448120951652527,0.45300573110580444,-0.904296875,0.45703125,0.29541015625
2023-08-01T16:05:16.465146,0.887238085269928,0.019479773938655853,-0.08416155725717545,0.4531511962413788,-0.904296875,0.45703125,0.29541015625
2023-08-01T16:05:16.468138,0.887238085269928,0.019479773938655853,-0.08416155725717545,0.4531511962413788,-0.87158203125,0.4541015625,0.25732421875
2023-08-01T16:05:16.469136,0.8871492743492126,0.019775277003645897,-0.08429057896137238,0.4532882571220398,-0.87158203125,0.4541015625,0.25732421875
2023-08-01T16:05:16.477142,0.8871492743492126,0.019775277003645897,-0.08429057896137238,0.4532882571220398,-0.7978515625,0.46728515625,0.23388671875
2023-08-01T16:05:16.477142,0.887033224105835,0.020143259316682816,-0.08478248864412308,0.45340725779533386,-0.7978515625,0.46728515625,0.23388671875
2023-08-01T16:05:16.490952,0.887033224105835,0.020143259316682816,-0.08478248864412308,0.45340725779533386,-0.7783203125,0.47119140625,0.2548828125
2023-08-01T16:05:16.491994,0.8869128227233887,0.020517179742455482,-0.0853656679391861,0.45351657271385193,-0.7783203125,0.47119140625,0.2548828125
2023-08-01T16:05:16.497994,0.8869128227233887,0.020517179742455482,-0.0853656679391861,0.45351657271385193,-0.82666015625,0.4775390625,0.275390625
2023-08-01T16:05:16.497994,0.8867955207824707,0.020715225487947464,-0.0857849270105362,0.4536581337451935,-0.82666015625,0.4775390625,0.275390625
2023-08-01T16:05:16.505541,0.8867955207824707,0.020715225487947464,-0.0857849270105362,0.4536581337451935,-0.8427734375,0.46923828125,0.271484375
2023-08-01T16:05:16.505541,0.8867445588111877,0.020616687834262848,-0.08573221415281296,0.4537721574306488,-0.8427734375,0.46923828125,0.271484375
2023-08-01T16:05:16.512951,0.8867445588111877,0.020616687834262848,-0.08573221415281296,0.4537721574306488,-0.83203125,0.45947265625,0.26904296875
2023-08-01T16:05:16.520537,0.8867912292480469,0.020368296653032303,-0.08524680882692337,0.4537833333015442,-0.83203125,0.45947265625,0.26904296875
2023-08-01T16:05:16.527545,0.8867912292480469,0.020368296653032303,-0.08524680882692337,0.4537833333015442,-0.82958984375,0.45556640625,0.279296875
2023-08-01T16:05:16.528542,0.8868791460990906,0.019897758960723877,-0.08432725071907043,0.45380422472953796,-0.82958984375,0.45556640625,0.279296875
2023-08-01T16:05:16.534817,0.8868791460990906,0.019897758960723877,-0.08432725071907043,0.45380422472953796,-0.8115234375,0.453125,0.26708984375
2023-08-01T16:05:16.535814,0.8869972825050354,0.019257597625255585,-0.0830761268734932,0.45383185148239136,-0.8115234375,0.453125,0.26708984375
2023-08-01T16:05:16.543221,0.8869972825050354,0.019257597625255585,-0.0830761268734932,0.45383185148239136,-0.77880859375,0.455078125,0.23876953125
2023-08-01T16:05:16.557723,0.8872120380401611,0.018386950716376305,-0.08149826526641846,0.45373421907424927,-0.77880859375,0.455078125,0.23876953125
2023-08-01T16:05:16.559717,0.8872120380401611,0.018386950716376305,-0.08149826526641846,0.45373421907424927,-0.74072265625,0.4609375,0.2158203125
2023-08-01T16:05:16.559717,0.887519896030426,0.01718573272228241,-0.07947304099798203,0.4535385072231293,-0.74072265625,0.4609375,0.2158203125
2023-08-01T16:05:16.565895,0.887519896030426,0.01718573272228241,-0.07947304099798203,0.4535385072231293,-0.724609375,0.45556640625,0.22021484375
2023-08-01T16:05:16.574038,0.8880562782287598,0.015608303248882294,-0.07669831812381744,0.45302292704582214,-0.724609375,0.45556640625,0.22021484375
2023-08-01T16:05:16.575035,0.8880562782287598,0.015608303248882294,-0.07669831812381744,0.45302292704582214,-0.71337890625,0.439453125,0.23681640625
2023-08-01T16:05:16.576033,0.8887220025062561,0.014008385129272938,-0.07359971106052399,0.4522830545902252,-0.71337890625,0.439453125,0.23681640625
2023-08-01T16:05:16.587535,0.8887220025062561,0.014008385129272938,-0.07359971106052399,0.4522830545902252,-0.75830078125,0.4267578125,0.28662109375
2023-08-01T16:05:16.588531,0.8892994523048401,0.01266904454678297,-0.07101356983184814,0.451600581407547,-0.75830078125,0.4267578125,0.28662109375
2023-08-01T16:05:16.595119,0.8892994523048401,0.01266904454678297,-0.07101356983184814,0.451600581407547,-0.8251953125,0.4345703125,0.337890625
2023-08-01T16:05:16.596117,0.8898229598999023,0.011611059308052063,-0.06907308846712112,0.45089811086654663,-0.8251953125,0.4345703125,0.337890625
2023-08-01T16:05:16.603637,0.8898229598999023,0.011611059308052063,-0.06907308846712112,0.45089811086654663,-0.78271484375,0.44384765625,0.3642578125
2023-08-01T16:05:16.603637,0.8903717398643494,0.010674823075532913,-0.06740275025367737,0.4500901401042938,-0.78271484375,0.44384765625,0.3642578125
2023-08-01T16:05:16.618621,0.8903717398643494,0.010674823075532913,-0.06740275025367737,0.4500901401042938,-0.74267578125,0.43310546875,0.37255859375
2023-08-01T16:05:16.619618,0.8909429907798767,0.009731380268931389,-0.06559545546770096,0.4492473006248474,-0.74267578125,0.43310546875,0.37255859375
2023-08-01T16:05:16.624629,0.8909429907798767,0.009731380268931389,-0.06559545546770096,0.4492473006248474,-0.76904296875,0.427734375,0.3515625
2023-08-01T16:05:16.625627,0.8915393352508545,0.00877070240676403,-0.06355027109384537,0.4483770728111267,-0.76904296875,0.427734375,0.3515625
2023-08-01T16:05:16.632626,0.8915393352508545,0.00877070240676403,-0.06355027109384537,0.4483770728111267,-0.818359375,0.42578125,0.31298828125
2023-08-01T16:05:16.633626,0.892180860042572,0.00781687069684267,-0.06150312349200249,0.4474031925201416,-0.818359375,0.42578125,0.31298828125
2023-08-01T16:05:16.655615,0.892180860042572,0.00781687069684267,-0.06150312349200249,0.4474031925201416,-0.8623046875,0.421875,0.27392578125
2023-08-01T16:05:16.663002,0.8928343057632446,0.0070510925725102425,-0.059610456228256226,0.44636720418930054,-0.8623046875,0.421875,0.27392578125
2023-08-01T16:05:16.663002,0.8928343057632446,0.0070510925725102425,-0.059610456228256226,0.44636720418930054,-0.873046875,0.421875,0.26025390625
2023-08-01T16:05:16.663997,0.893557071685791,0.006578995380550623,-0.05816933512687683,0.4451166093349457,-0.873046875,0.421875,0.26025390625
2023-08-01T16:05:16.669981,0.893557071685791,0.006578995380550623,-0.05816933512687683,0.4451166093349457,-0.8134765625,0.4404296875,0.25244140625
2023-08-01T16:05:16.677204,0.8942950367927551,0.006099679972976446,-0.05716211348772049,0.44376981258392334,-0.8134765625,0.4404296875,0.25244140625
2023-08-01T16:05:16.678202,0.8942950367927551,0.006099679972976446,-0.05716211348772049,0.44376981258392334,-0.74365234375,0.43896484375,0.24169921875
2023-08-01T16:05:16.678202,0.8951390981674194,0.005414270330220461,-0.05590361729264259,0.44223466515541077,-0.74365234375,0.43896484375,0.24169921875
2023-08-01T16:05:16.685201,0.8951390981674194,0.005414270330220461,-0.05590361729264259,0.44223466515541077,-0.728515625,0.4189453125,0.2314453125
2023-08-01T16:05:16.686200,0.8961091637611389,0.0046150218695402145,-0.054055355489254,0.44050538539886475,-0.728515625,0.4189453125,0.2314453125
2023-08-01T16:05:16.692774,0.8961091637611389,0.0046150218695402145,-0.054055355489254,0.44050538539886475,-0.76318359375,0.404296875,0.23046875
2023-08-01T16:05:16.692774,0.8971204161643982,0.003814923344179988,-0.05195704475045204,0.43870359659194946,-0.76318359375,0.404296875,0.23046875
2023-08-01T16:05:16.707013,0.8971204161643982,0.003814923344179988,-0.05195704475045204,0.43870359659194946,-0.79541015625,0.40380859375,0.23095703125
2023-08-01T16:05:16.708013,0.8981186151504517,0.0031664620619267225,-0.05014161393046379,0.4368736743927002,-0.79541015625,0.40380859375,0.23095703125
2023-08-01T16:05:16.714656,0.8981186151504517,0.0031664620619267225,-0.05014161393046379,0.4368736743927002,-0.81005859375,0.40087890625,0.24560546875
2023-08-01T16:05:16.715655,0.8991784453392029,0.0025796452537178993,-0.04856359586119652,0.4348711371421814,-0.81005859375,0.40087890625,0.24560546875
2023-08-01T16:05:16.721992,0.8991784453392029,0.0025796452537178993,-0.04856359586119652,0.4348711371421814,-0.80419921875,0.3984375,0.26025390625
2023-08-01T16:05:16.730960,0.9002841114997864,0.001993155339732766,-0.0469750352203846,0.432756245136261,-0.80419921875,0.3984375,0.26025390625
2023-08-01T16:05:16.737457,0.9002841114997864,0.001993155339732766,-0.0469750352203846,0.432756245136261,-0.82421875,0.38671875,0.26953125
2023-08-01T16:05:16.737457,0.9014127850532532,0.0014977121027186513,-0.04513333737850189,0.43059924244880676,-0.82421875,0.38671875,0.26953125
2023-08-01T16:05:16.745292,0.9014127850532532,0.0014977121027186513,-0.04513333737850189,0.43059924244880676,-0.8935546875,0.38232421875,0.2734375
2023-08-01T16:05:16.745292,0.902544379234314,0.0011049340246245265,-0.043114256113767624,0.42843157052993774,-0.8935546875,0.38232421875,0.2734375
2023-08-01T16:05:16.752295,0.902544379234314,0.0011049340246245265,-0.043114256113767624,0.42843157052993774,-0.93701171875,0.38037109375,0.2626953125
2023-08-01T16:05:16.753296,0.9036393761634827,0.0008082740241661668,-0.041240304708480835,0.4263033866882324,-0.93701171875,0.38037109375,0.2626953125
2023-08-01T16:05:16.767473,0.9036393761634827,0.0008082740241661668,-0.041240304708480835,0.4263033866882324,-0.93408203125,0.384765625,0.24462890625
2023-08-01T16:05:16.768469,0.9046838879585266,0.0006754997302778065,-0.03965708613395691,0.42423325777053833,-0.93408203125,0.384765625,0.24462890625
2023-08-01T16:05:16.774567,0.9046838879585266,0.0006754997302778065,-0.03965708613395691,0.42423325777053833,-0.93212890625,0.39599609375,0.244140625
2023-08-01T16:05:16.775574,0.9056433439254761,0.0005176940467208624,-0.03827065974473953,0.4223092794418335,-0.93212890625,0.39599609375,0.244140625
2023-08-01T16:05:16.782580,0.9056433439254761,0.0005176940467208624,-0.03827065974473953,0.4223092794418335,-0.92919921875,0.4052734375,0.2255859375
2023-08-01T16:05:16.782580,0.9065458178520203,0.00041163721471093595,-0.03679382801055908,0.4205004572868347,-0.92919921875,0.4052734375,0.2255859375
2023-08-01T16:05:16.797545,0.9065458178520203,0.00041163721471093595,-0.03679382801055908,0.4205004572868347,-0.93603515625,0.4111328125,0.2177734375
2023-08-01T16:05:16.798543,0.9074528217315674,0.00035732591641135514,-0.035177044570446014,0.4186784625053406,-0.93603515625,0.4111328125,0.2177734375
2023-08-01T16:05:16.804813,0.9074528217315674,0.00035732591641135514,-0.035177044570446014,0.4186784625053406,-0.93212890625,0.41845703125,0.22021484375
2023-08-01T16:05:16.811910,0.9083378911018372,0.0004113819159101695,-0.03359643369913101,0.4168853461742401,-0.93212890625,0.41845703125,0.22021484375
2023-08-01T16:05:16.813596,0.9083378911018372,0.0004113819159101695,-0.03359643369913101,0.4168853461742401,-0.91748046875,0.4228515625,0.22216796875
2023-08-01T16:05:16.813596,0.9091781377792358,0.0005034968489781022,-0.03205467760562897,0.4151715636253357,-0.91748046875,0.4228515625,0.22216796875
2023-08-01T16:05:16.819582,0.9091781377792358,0.0005034968489781022,-0.03205467760562897,0.4151715636253357,-0.9306640625,0.4228515625,0.224609375
2023-08-01T16:05:16.826954,0.9099631905555725,0.0006425991305150092,-0.03047220967710018,0.4135674238204956,-0.9306640625,0.4228515625,0.224609375
2023-08-01T16:05:16.835062,0.9099631905555725,0.0006425991305150092,-0.03047220967710018,0.4135674238204956,-0.9423828125,0.41552734375,0.2294921875
2023-08-01T16:05:16.835062,0.9106866121292114,0.0009671300649642944,-0.029127411544322968,0.41206857562065125,-0.9423828125,0.41552734375,0.2294921875
2023-08-01T16:05:16.841577,0.9106866121292114,0.0009671300649642944,-0.029127411544322968,0.41206857562065125,-0.9521484375,0.41259765625,0.236328125
2023-08-01T16:05:16.842799,0.9113469123840332,0.0014491138281300664,-0.028192048892378807,0.41067007184028625,-0.9521484375,0.41259765625,0.236328125
2023-08-01T16:05:16.849780,0.9113469123840332,0.0014491138281300664,-0.028192048892378807,0.41067007184028625,-0.9609375,0.41455078125,0.25390625
2023-08-01T16:05:16.850778,0.9119163155555725,0.001965399133041501,-0.027432212606072426,0.40945369005203247,-0.9609375,0.41455078125,0.25390625
2023-08-01T16:05:16.864810,0.9119163155555725,0.001965399133041501,-0.027432212606072426,0.40945369005203247,-0.9404296875,0.4150390625,0.2431640625
2023-08-01T16:05:16.865807,0.9124255776405334,0.0025144158862531185,-0.026817742735147476,0.4083552956581116,-0.9404296875,0.4150390625,0.2431640625
2023-08-01T16:05:16.871808,0.9124255776405334,0.0025144158862531185,-0.026817742735147476,0.4083552956581116,-0.951171875,0.40771484375,0.2177734375
2023-08-01T16:05:16.873058,0.9128542542457581,0.003078101435676217,-0.026350557804107666,0.4074227809906006,-0.951171875,0.40771484375,0.2177734375
2023-08-01T16:05:16.879042,0.9128542542457581,0.003078101435676217,-0.026350557804107666,0.4074227809906006,-0.96630859375,0.40234375,0.1923828125
2023-08-01T16:05:16.880549,0.9132227897644043,0.003659470472484827,-0.02609897218644619,0.40660738945007324,-0.96630859375,0.40234375,0.1923828125
2023-08-01T16:05:16.895420,0.9132227897644043,0.003659470472484827,-0.02609897218644619,0.40660738945007324,-0.94921875,0.400390625,0.16845703125
2023-08-01T16:05:16.895420,0.9135385155677795,0.0042620026506483555,-0.026044407859444618,0.40589508414268494,-0.94921875,0.400390625,0.16845703125
2023-08-01T16:05:16.901916,0.9135385155677795,0.0042620026506483555,-0.026044407859444618,0.40589508414268494,-0.93505859375,0.3955078125,0.154296875
2023-08-01T16:05:16.902974,0.9138166308403015,0.004790602717548609,-0.02606232464313507,0.4052615761756897,-0.93505859375,0.3955078125,0.154296875
2023-08-01T16:05:16.910032,0.9138166308403015,0.004790602717548609,-0.02606232464313507,0.4052615761756897,-0.91162109375,0.38671875,0.14794921875
2023-08-01T16:05:16.910032,0.9140799045562744,0.005254550836980343,-0.026041680946946144,0.40466299653053284,-0.91162109375,0.38671875,0.14794921875
2023-08-01T16:05:16.924544,0.9140799045562744,0.005254550836980343,-0.026041680946946144,0.40466299653053284,-0.90869140625,0.3818359375,0.14794921875
2023-08-01T16:05:16.932679,0.9143148064613342,0.005649931728839874,-0.026025783270597458,0.40412765741348267,-0.90869140625,0.3818359375,0.14794921875
2023-08-01T16:05:16.932679,0.9143148064613342,0.005649931728839874,-0.026025783270597458,0.40412765741348267,-0.92919921875,0.3837890625,0.150390625
2023-08-01T16:05:16.939668,0.9145282506942749,0.005856274627149105,-0.025937683880329132,0.40364697575569153,-0.92919921875,0.3837890625,0.150390625
2023-08-01T16:05:16.947672,0.9145282506942749,0.005856274627149105,-0.025937683880329132,0.40364697575569153,-0.916015625,0.37841796875,0.1572265625
2023-08-01T16:05:16.947672,0.9147652387619019,0.006006352603435516,-0.025874735787510872,0.4031115770339966,-0.916015625,0.37841796875,0.1572265625
2023-08-01T16:05:16.954783,0.9147652387619019,0.006006352603435516,-0.025874735787510872,0.4031115770339966,-0.90087890625,0.3701171875,0.1767578125
2023-08-01T16:05:16.955781,0.9150049090385437,0.00600231159478426,-0.025684209540486336,0.4025796055793762,-0.90087890625,0.3701171875,0.1767578125
2023-08-01T16:05:16.962848,0.9150049090385437,0.00600231159478426,-0.025684209540486336,0.4025796055793762,-0.90576171875,0.3603515625,0.19384765625
2023-08-01T16:05:16.962848,0.9152401089668274,0.005927799269556999,-0.025334861129522324,0.40206778049468994,-0.90576171875,0.3603515625,0.19384765625
2023-08-01T16:05:16.969493,0.9152401089668274,0.005927799269556999,-0.025334861129522324,0.40206778049468994,-0.916015625,0.34912109375,0.20361328125
2023-08-01T16:05:16.969493,0.9154435396194458,0.005798288155347109,-0.02500925026834011,0.4016265571117401,-0.916015625,0.34912109375,0.20361328125
2023-08-01T16:05:16.984635,0.9154435396194458,0.005798288155347109,-0.02500925026834011,0.4016265571117401,-0.93212890625,0.34716796875,0.20703125
2023-08-01T16:05:16.985634,0.9156113862991333,0.0056330375373363495,-0.024790817871689796,0.40126004815101624,-0.93212890625,0.34716796875,0.20703125
2023-08-01T16:05:16.991626,0.9156113862991333,0.0056330375373363495,-0.024790817871689796,0.40126004815101624,-0.92822265625,0.35107421875,0.18994140625
2023-08-01T16:05:16.993038,0.9157573580741882,0.005427067168056965,-0.024696923792362213,0.4009350538253784,-0.92822265625,0.35107421875,0.18994140625
2023-08-01T16:05:17.000532,0.9157573580741882,0.005427067168056965,-0.024696923792362213,0.4009350538253784,-0.91748046875,0.35302734375,0.1650390625
2023-08-01T16:05:17.001532,0.9158890843391418,0.005103154107928276,-0.024685392156243324,0.40063920617103577,-0.91748046875,0.35302734375,0.1650390625
2023-08-01T16:05:17.014602,0.9158890843391418,0.005103154107928276,-0.024685392156243324,0.40063920617103577,-0.90966796875,0.3515625,0.16259765625
2023-08-01T16:05:17.015600,0.916033923625946,0.004761701449751854,-0.02462753839790821,0.40031567215919495,-0.90966796875,0.3515625,0.16259765625
2023-08-01T16:05:17.022987,0.916033923625946,0.004761701449751854,-0.02462753839790821,0.40031567215919495,-0.8994140625,0.3515625,0.17919921875
2023-08-01T16:05:17.022987,0.916192889213562,0.0043985433876514435,-0.024585673585534096,0.3999582529067993,-0.8994140625,0.3515625,0.17919921875
2023-08-01T16:05:17.029970,0.916192889213562,0.0043985433876514435,-0.024585673585534096,0.3999582529067993,-0.8974609375,0.3505859375,0.19384765625
2023-08-01T16:05:17.030967,0.9163650274276733,0.003996914718300104,-0.02457420527935028,0.3995687961578369,-0.8974609375,0.3505859375,0.19384765625
2023-08-01T16:05:17.044797,0.9163650274276733,0.003996914718300104,-0.02457420527935028,0.3995687961578369,-0.91259765625,0.3408203125,0.2080078125
2023-08-01T16:05:17.045793,0.9165546298027039,0.0035347051452845335,-0.02455230802297592,0.39913928508758545,-0.91259765625,0.3408203125,0.2080078125
2023-08-01T16:05:17.051789,0.9165546298027039,0.0035347051452845335,-0.02455230802297592,0.39913928508758545,-0.93798828125,0.33251953125,0.21923828125
2023-08-01T16:05:17.053117,0.9167141318321228,0.003104593139141798,-0.02453005313873291,0.39877811074256897,-0.93798828125,0.33251953125,0.21923828125
2023-08-01T16:05:17.059104,0.9167141318321228,0.003104593139141798,-0.02453005313873291,0.39877811074256897,-0.95361328125,0.3232421875,0.23193359375
2023-08-01T16:05:17.060610,0.9168363809585571,0.0027400553226470947,-0.024518748745322227,0.3985000252723694,-0.95361328125,0.3232421875,0.23193359375
2023-08-01T16:05:17.075289,0.9168363809585571,0.0027400553226470947,-0.024518748745322227,0.3985000252723694,-0.94677734375,0.326171875,0.2314453125
2023-08-01T16:05:17.075289,0.916926383972168,0.0023641351144760847,-0.024551931768655777,0.3982935845851898,-0.94677734375,0.326171875,0.2314453125
2023-08-01T16:05:17.081800,0.916926383972168,0.0023641351144760847,-0.024551931768655777,0.3982935845851898,-0.94482421875,0.337890625,0.220703125
2023-08-01T16:05:17.082990,0.9169835448265076,0.002001062734052539,-0.02452719211578369,0.398165225982666,-0.94482421875,0.337890625,0.220703125
2023-08-01T16:05:17.089971,0.9169835448265076,0.002001062734052539,-0.02452719211578369,0.398165225982666,-0.9501953125,0.35107421875,0.2099609375
2023-08-01T16:05:17.089971,0.9170402884483337,0.001676093554124236,-0.024405548349022865,0.3980436623096466,-0.9501953125,0.35107421875,0.2099609375
2023-08-01T16:05:17.097067,0.9170402884483337,0.001676093554124236,-0.024405548349022865,0.3980436623096466,-0.93994140625,0.35498046875,0.20556640625
2023-08-01T16:05:17.105577,0.917108952999115,0.001476621488109231,-0.024333005771040916,0.3978903591632843,-0.93994140625,0.35498046875,0.20556640625
2023-08-01T16:05:17.113581,0.917108952999115,0.001476621488109231,-0.024333005771040916,0.3978903591632843,-0.92333984375,0.35986328125,0.212890625
2023-08-01T16:05:17.113581,0.9171636700630188,0.0013882352504879236,-0.02437260001897812,0.3977624773979187,-0.92333984375,0.35986328125,0.212890625
2023-08-01T16:05:17.120564,0.9171636700630188,0.0013882352504879236,-0.02437260001897812,0.3977624773979187,-0.91015625,0.36376953125,0.216796875
2023-08-01T16:05:17.121070,0.9172082543373108,0.00130302959587425,-0.024410581216216087,0.397657573223114,-0.91015625,0.36376953125,0.216796875
2023-08-01T16:05:17.127573,0.9172082543373108,0.00130302959587425,-0.024410581216216087,0.397657573223114,-0.908203125,0.36669921875,0.21630859375
2023-08-01T16:05:17.128570,0.917248010635376,0.0013054708251729608,-0.02441045083105564,0.3975658416748047,-0.908203125,0.36669921875,0.21630859375
2023-08-01T16:05:17.149994,0.917248010635376,0.0013054708251729608,-0.02441045083105564,0.3975658416748047,-0.9189453125,0.3671875,0.21923828125
2023-08-01T16:05:17.149994,0.9172800779342651,0.0013143597170710564,-0.024281153455376625,0.39749979972839355,-0.9189453125,0.3671875,0.21923828125
2023-08-01T16:05:17.157488,0.9172800779342651,0.0013143597170710564,-0.024281153455376625,0.39749979972839355,-0.93212890625,0.36181640625,0.220703125
2023-08-01T16:05:17.157488,0.9172827005386353,0.0013793979305773973,-0.024126846343278885,0.3975028991699219,-0.93212890625,0.36181640625,0.220703125
2023-08-01T16:05:17.158487,0.9172827005386353,0.0013793979305773973,-0.024126846343278885,0.3975028991699219,-0.9423828125,0.35986328125,0.216796875
2023-08-01T16:05:17.164952,0.9172549247741699,0.001449934090487659,-0.023923559114336967,0.3975790739059448,-0.9423828125,0.35986328125,0.216796875
2023-08-01T16:05:17.171944,0.9172549247741699,0.001449934090487659,-0.023923559114336967,0.3975790739059448,-0.93408203125,0.3583984375,0.216796875
2023-08-01T16:05:17.173221,0.9171992540359497,0.0016284064622595906,-0.02378762513399124,0.3977147340774536,-0.93408203125,0.3583984375,0.216796875
2023-08-01T16:05:17.179208,0.9171992540359497,0.0016284064622595906,-0.02378762513399124,0.3977147340774536,-0.9248046875,0.35791015625,0.2197265625
2023-08-01T16:05:17.180714,0.9171221852302551,0.001840058364905417,-0.023757338523864746,0.3978934586048126,-0.9248046875,0.35791015625,0.2197265625
2023-08-01T16:05:17.187878,0.9171221852302551,0.001840058364905417,-0.023757338523864746,0.3978934586048126,-0.9140625,0.361328125,0.2138671875
2023-08-01T16:05:17.187878,0.9170199036598206,0.0020829823333770037,-0.023742739111185074,0.3981283903121948,-0.9140625,0.361328125,0.2138671875
2023-08-01T16:05:17.201789,0.9170199036598206,0.0020829823333770037,-0.023742739111185074,0.3981283903121948,-0.90234375,0.36083984375,0.2001953125
2023-08-01T16:05:17.203026,0.9169315099716187,0.00228046509437263,-0.023655185475945473,0.39833641052246094,-0.90234375,0.36083984375,0.2001953125
2023-08-01T16:05:17.210011,0.9169315099716187,0.00228046509437263,-0.023655185475945473,0.39833641052246094,-0.896484375,0.35400390625,0.17431640625
2023-08-01T16:05:17.210011,0.9168396592140198,0.0024601954501122236,-0.02363271452486515,0.39854806661605835,-0.896484375,0.35400390625,0.17431640625
2023-08-01T16:05:17.217534,0.9168396592140198,0.0024601954501122236,-0.02363271452486515,0.39854806661605835,-0.904296875,0.34326171875,0.17041015625
2023-08-01T16:05:17.217534,0.9167550206184387,0.002644825726747513,-0.02365991473197937,0.39873987436294556,-0.904296875,0.34326171875,0.17041015625
2023-08-01T16:05:17.232674,0.9167550206184387,0.002644825726747513,-0.02365991473197937,0.39873987436294556,-0.900390625,0.33935546875,0.18359375
2023-08-01T16:05:17.232674,0.9166690111160278,0.00282911560498178,-0.023647049441933632,0.3989368975162506,-0.900390625,0.33935546875,0.18359375
2023-08-01T16:05:17.240655,0.9166690111160278,0.00282911560498178,-0.023647049441933632,0.3989368975162506,-0.89111328125,0.34375,0.197265625
2023-08-01T16:05:17.240655,0.9166024327278137,0.0029613319784402847,-0.02343330718576908,0.39910149574279785,-0.89111328125,0.34375,0.197265625
2023-08-01T16:05:17.247778,0.9166024327278137,0.0029613319784402847,-0.02343330718576908,0.39910149574279785,-0.88916015625,0.3447265625,0.19970703125
2023-08-01T16:05:17.247778,0.9165473580360413,0.003034608205780387,-0.023063473403453827,0.3992491364479065,-0.88916015625,0.3447265625,0.19970703125
2023-08-01T16:05:17.262530,0.9165473580360413,0.003034608205780387,-0.023063473403453827,0.3992491364479065,-0.8955078125,0.345703125,0.19873046875
2023-08-01T16:05:17.262530,0.9164956212043762,0.003092429833486676,-0.022664209827780724,0.39939019083976746,-0.8955078125,0.345703125,0.19873046875
2023-08-01T16:05:17.277732,0.9164956212043762,0.003092429833486676,-0.022664209827780724,0.39939019083976746,-0.90966796875,0.349609375,0.1962890625
2023-08-01T16:05:17.277732,0.9164461493492126,0.0031744777224957943,-0.02234630100429058,0.3995210826396942,-0.90966796875,0.349609375,0.1962890625
2023-08-01T16:05:17.278728,0.9164461493492126,0.0031744777224957943,-0.02234630100429058,0.3995210826396942,-0.91162109375,0.3525390625,0.19677734375
2023-08-01T16:05:17.284832,0.9163904190063477,0.0032838748302310705,-0.0222230926156044,0.39965492486953735,-0.91162109375,0.3525390625,0.19677734375
2023-08-01T16:05:17.292823,0.9163904190063477,0.0032838748302310705,-0.0222230926156044,0.39965492486953735,-0.92529296875,0.35009765625,0.20947265625
2023-08-01T16:05:17.292823,0.9163185358047485,0.0034776933025568724,-0.022229351103305817,0.3998177945613861,-0.92529296875,0.35009765625,0.20947265625
2023-08-01T16:05:17.299827,0.9163185358047485,0.0034776933025568724,-0.022229351103305817,0.3998177945613861,-0.94189453125,0.34423828125,0.2236328125
2023-08-01T16:05:17.300805,0.9162244200706482,0.003711292752996087,-0.02226385474205017,0.4000292420387268,-0.94189453125,0.34423828125,0.2236328125
2023-08-01T16:05:17.307826,0.9162244200706482,0.003711292752996087,-0.02226385474205017,0.4000292420387268,-0.94970703125,0.3408203125,0.23779296875
2023-08-01T16:05:17.308820,0.9161010384559631,0.004017425235360861,-0.02223179116845131,0.4003103971481323,-0.94970703125,0.3408203125,0.23779296875
2023-08-01T16:05:17.322801,0.9161010384559631,0.004017425235360861,-0.02223179116845131,0.4003103971481323,-0.93896484375,0.349609375,0.23046875
2023-08-01T16:05:17.329785,0.9159460067749023,0.004339579492807388,-0.022205136716365814,0.4006634056568146,-0.93896484375,0.349609375,0.23046875
2023-08-01T16:05:17.330782,0.9159460067749023,0.004339579492807388,-0.022205136716365814,0.4006634056568146,-0.94384765625,0.357421875,0.21875
2023-08-01T16:05:17.331285,0.9157710075378418,0.0046814181841909885,-0.022120986133813858,0.4010637104511261,-0.94384765625,0.357421875,0.21875
2023-08-01T16:05:17.345058,0.9157710075378418,0.0046814181841909885,-0.022120986133813858,0.4010637104511261,-0.94970703125,0.3583984375,0.22021484375
2023-08-01T16:05:17.345058,0.9155768156051636,0.005131629295647144,-0.0220076572149992,0.4015074670314789,-0.94970703125,0.3583984375,0.22021484375
2023-08-01T16:05:17.346057,0.9155768156051636,0.005131629295647144,-0.0220076572149992,0.4015074670314789,-0.9208984375,0.3603515625,0.21826171875
2023-08-01T16:05:17.352059,0.9153671264648438,0.00567701505497098,-0.021955864503979683,0.40198084712028503,-0.9208984375,0.3603515625,0.21826171875
2023-08-01T16:05:17.360550,0.9153671264648438,0.00567701505497098,-0.021955864503979683,0.40198084712028503,-0.89306640625,0.3671875,0.22314453125
2023-08-01T16:05:17.360550,0.9151642918586731,0.006238014902919531,-0.02183404378592968,0.40244078636169434,-0.89306640625,0.3671875,0.22314453125
2023-08-01T16:05:17.368050,0.9151642918586731,0.006238014902919531,-0.02183404378592968,0.40244078636169434,-0.8857421875,0.3681640625,0.22265625
2023-08-01T16:05:17.369049,0.9149734973907471,0.0068300398997962475,-0.021572137251496315,0.40287894010543823,-0.8857421875,0.3681640625,0.22265625
2023-08-01T16:05:17.374844,0.9149734973907471,0.0068300398997962475,-0.021572137251496315,0.40287894010543823,-0.88671875,0.36376953125,0.22900390625
2023-08-01T16:05:17.382837,0.9147956371307373,0.007457224186509848,-0.02123161591589451,0.40328964591026306,-0.88671875,0.36376953125,0.22900390625
2023-08-01T16:05:17.398750,0.9147956371307373,0.007457224186509848,-0.02123161591589451,0.40328964591026306,-0.892578125,0.36181640625,0.2373046875
2023-08-01T16:05:17.398750,0.9146211743354797,0.008126339875161648,-0.020871855318546295,0.4036911427974701,-0.892578125,0.36181640625,0.2373046875
2023-08-01T16:05:17.399747,0.9146211743354797,0.008126339875161648,-0.020871855318546295,0.4036911427974701,-0.89599609375,0.361328125,0.24169921875
2023-08-01T16:05:17.405169,0.9144691824913025,0.008798282593488693,-0.020511645823717117,0.4040396809577942,-0.89599609375,0.361328125,0.24169921875
2023-08-01T16:05:17.405169,0.9144691824913025,0.008798282593488693,-0.020511645823717117,0.4040396809577942,-0.89013671875,0.3544921875,0.25439453125
2023-08-01T16:05:17.412881,0.9143292307853699,0.009450722485780716,-0.02002771757543087,0.40436553955078125,-0.89013671875,0.3544921875,0.25439453125
2023-08-01T16:05:17.419864,0.9143292307853699,0.009450722485780716,-0.02002771757543087,0.40436553955078125,-0.87939453125,0.349609375,0.2490234375
2023-08-01T16:05:17.420861,0.9141973853111267,0.010119304992258549,-0.01935824565589428,0.40467995405197144,-0.87939453125,0.349609375,0.2490234375
2023-08-01T16:05:17.427228,0.9141973853111267,0.010119304992258549,-0.01935824565589428,0.40467995405197144,-0.87646484375,0.35595703125,0.2353515625
2023-08-01T16:05:17.428225,0.9140949845314026,0.010806499049067497,-0.018622849136590958,0.40492793917655945,-0.87646484375,0.35595703125,0.2353515625
2023-08-01T16:05:17.434759,0.9140949845314026,0.010806499049067497,-0.018622849136590958,0.40492793917655945,-0.87744140625,0.3642578125,0.21923828125
2023-08-01T16:05:17.435756,0.914027750492096,0.011517821811139584,-0.017859242856502533,0.4050944447517395,-0.87744140625,0.3642578125,0.21923828125
2023-08-01T16:05:17.449745,0.914027750492096,0.011517821811139584,-0.017859242856502533,0.4050944447517395,-0.8662109375,0.36572265625,0.20556640625
2023-08-01T16:05:17.450742,0.9139998555183411,0.012235182337462902,-0.01710408553481102,0.40516898036003113,-0.8662109375,0.36572265625,0.20556640625
2023-08-01T16:05:17.457020,0.9139998555183411,0.012235182337462902,-0.01710408553481102,0.40516898036003113,-0.8642578125,0.36376953125,0.2001953125
2023-08-01T16:05:17.458018,0.913996160030365,0.012944933027029037,-0.016195330768823624,0.4051927924156189,-0.8642578125,0.36376953125,0.2001953125
2023-08-01T16:05:17.464594,0.913996160030365,0.012944933027029037,-0.016195330768823624,0.4051927924156189,-0.86181640625,0.36083984375,0.19970703125
2023-08-01T16:05:17.465591,0.9140333533287048,0.013633622787892818,-0.015146891586482525,0.4051269292831421,-0.86181640625,0.36083984375,0.19970703125
2023-08-01T16:05:17.479658,0.9140333533287048,0.013633622787892818,-0.015146891586482525,0.4051269292831421,-0.8642578125,0.35888671875,0.193359375
2023-08-01T16:05:17.480657,0.914091169834137,0.014318378642201424,-0.013996177352964878,0.4050140082836151,-0.8642578125,0.35888671875,0.193359375
2023-08-01T16:05:17.487554,0.914091169834137,0.014318378642201424,-0.013996177352964878,0.4050140082836151,-0.87060546875,0.35693359375,0.1884765625
2023-08-01T16:05:17.487554,0.9141700267791748,0.014968699775636196,-0.01273938175290823,0.40485402941703796,-0.87060546875,0.35693359375,0.1884765625
2023-08-01T16:05:17.494678,0.9141700267791748,0.014968699775636196,-0.01273938175290823,0.40485402941703796,-0.86181640625,0.3603515625,0.1787109375
2023-08-01T16:05:17.495676,0.9142733812332153,0.015603912062942982,-0.011367776431143284,0.40463748574256897,-0.86181640625,0.3603515625,0.1787109375
2023-08-01T16:05:17.509898,0.9142733812332153,0.015603912062942982,-0.011367776431143284,0.40463748574256897,-0.86669921875,0.365234375,0.16796875
2023-08-01T16:05:17.510893,0.914396345615387,0.016224302351474762,-0.009921558201313019,0.40437307953834534,-0.86669921875,0.365234375,0.16796875
2023-08-01T16:05:17.517692,0.914396345615387,0.016224302351474762,-0.009921558201313019,0.40437307953834534,-0.87939453125,0.369140625,0.15576171875
2023-08-01T16:05:17.517692,0.9145424365997314,0.0168533343821764,-0.00845346786081791,0.404050350189209,-0.87939453125,0.369140625,0.15576171875
2023-08-01T16:05:17.524869,0.9145424365997314,0.0168533343821764,-0.00845346786081791,0.404050350189209,-0.880859375,0.37744140625,0.13671875
2023-08-01T16:05:17.525866,0.9146978259086609,0.01752539537847042,-0.0071264272555708885,0.40369540452957153,-0.880859375,0.37744140625,0.13671875
2023-08-01T16:05:17.539061,0.9146978259086609,0.01752539537847042,-0.0071264272555708885,0.40369540452957153,-0.89404296875,0.388671875,0.12451171875
2023-08-01T16:05:17.540569,0.9148381948471069,0.018107976764440536,-0.0058399527333676815,0.4033721685409546,-0.89404296875,0.388671875,0.12451171875
2023-08-01T16:05:17.547625,0.9148381948471069,0.018107976764440536,-0.0058399527333676815,0.4033721685409546,-0.90234375,0.39453125,0.09423828125
2023-08-01T16:05:17.547625,0.9149730205535889,0.0186619833111763,-0.004606472793966532,0.4030568301677704,-0.90234375,0.39453125,0.09423828125
2023-08-01T16:05:17.554753,0.9149730205535889,0.0186619833111763,-0.004606472793966532,0.4030568301677704,-0.90625,0.39404296875,0.087890625
2023-08-01T16:05:17.563933,0.9150874018669128,0.01925341784954071,-0.003616051748394966,0.4027794599533081,-0.90625,0.39404296875,0.087890625
2023-08-01T16:05:17.569917,0.9150874018669128,0.01925341784954071,-0.003616051748394966,0.4027794599533081,-0.91015625,0.3984375,0.09130859375
2023-08-01T16:05:17.570914,0.9151877760887146,0.019863873720169067,-0.002853560261428356,0.402527779340744,-0.91015625,0.3984375,0.09130859375
2023-08-01T16:05:17.577917,0.9151877760887146,0.019863873720169067,-0.002853560261428356,0.402527779340744,-0.89697265625,0.39990234375,0.0986328125
2023-08-01T16:05:17.585077,0.9152857065200806,0.020397495478391647,-0.0021735781338065863,0.4022824764251709,-0.89697265625,0.39990234375,0.0986328125
2023-08-01T16:05:17.592832,0.9152857065200806,0.020397495478391647,-0.0021735781338065863,0.4022824764251709,-0.88232421875,0.39892578125,0.10205078125
2023-08-01T16:05:17.599813,0.9153926372528076,0.020855864509940147,-0.001443221583031118,0.40201905369758606,-0.88232421875,0.39892578125,0.10205078125
2023-08-01T16:05:17.600810,0.9153926372528076,0.020855864509940147,-0.001443221583031118,0.40201905369758606,-0.88916015625,0.39794921875,0.09912109375
2023-08-01T16:05:17.604826,0.9154888391494751,0.021180713549256325,-0.0005738855106756091,0.40178486704826355,-0.88916015625,0.39794921875,0.09912109375
2023-08-01T16:05:17.607819,0.9154888391494751,0.021180713549256325,-0.0005738855106756091,0.40178486704826355,-0.89990234375,0.38818359375,0.0927734375
2023-08-01T16:05:17.608814,0.9155743718147278,0.02143576368689537,0.00023845632676966488,0.4015769064426422,-0.89990234375,0.38818359375,0.0927734375
2023-08-01T16:05:17.614829,0.9155743718147278,0.02143576368689537,0.00023845632676966488,0.4015769064426422,-0.89697265625,0.3798828125,0.09326171875
2023-08-01T16:05:17.615826,0.9156675934791565,0.02164420858025551,0.0009215230238623917,0.40135201811790466,-0.89697265625,0.3798828125,0.09326171875
2023-08-01T16:05:17.629817,0.9156675934791565,0.02164420858025551,0.0009215230238623917,0.40135201811790466,-0.8955078125,0.376953125,0.09033203125
2023-08-01T16:05:17.631320,0.9157606959342957,0.021785829216241837,0.0014947475865483284,0.4011302888393402,-0.8955078125,0.376953125,0.09033203125
2023-08-01T16:05:17.645835,0.9157606959342957,0.021785829216241837,0.0014947475865483284,0.4011302888393402,-0.90478515625,0.37451171875,0.09716796875
2023-08-01T16:05:17.646832,0.9158639311790466,0.021833710372447968,0.0020331337582319975,0.4008893668651581,-0.90478515625,0.37451171875,0.09716796875
2023-08-01T16:05:17.648827,0.9158639311790466,0.021833710372447968,0.0020331337582319975,0.4008893668651581,-0.9267578125,0.36474609375,0.0966796875
2023-08-01T16:05:17.653028,0.9159559011459351,0.02185756526887417,0.0024683757219463587,0.40067553520202637,-0.9267578125,0.36474609375,0.0966796875
2023-08-01T16:05:17.653846,0.9159559011459351,0.02185756526887417,0.0024683757219463587,0.40067553520202637,-0.9716796875,0.3564453125,0.10205078125
2023-08-01T16:05:17.659862,0.9160236120223999,0.021960806101560593,0.0026554495561867952,0.40051397681236267,-0.9716796875,0.3564453125,0.10205078125
2023-08-01T16:05:17.668136,0.9160236120223999,0.021960806101560593,0.0026554495561867952,0.40051397681236267,-1.01171875,0.3505859375,0.10888671875
2023-08-01T16:05:17.669134,0.9160224795341492,0.022099535912275314,0.002524265553802252,0.40050989389419556,-1.01171875,0.3505859375,0.10888671875
2023-08-01T16:05:17.675142,0.9160224795341492,0.022099535912275314,0.002524265553802252,0.40050989389419556,-1.025390625,0.3486328125,0.12109375
2023-08-01T16:05:17.676140,0.9159303307533264,0.022228728979825974,0.002224990166723728,0.4007148742675781,-1.025390625,0.3486328125,0.12109375
2023-08-01T16:05:17.682671,0.9159303307533264,0.022228728979825974,0.002224990166723728,0.4007148742675781,-1.00390625,0.34912109375,0.14501953125
2023-08-01T16:05:17.690650,0.9157938361167908,0.02233707718551159,0.001971469260752201,0.4010222852230072,-1.00390625,0.34912109375,0.14501953125
2023-08-01T16:05:17.705763,0.9157938361167908,0.02233707718551159,0.001971469260752201,0.4010222852230072,-0.943359375,0.35693359375,0.14892578125
2023-08-01T16:05:17.706760,0.9156688451766968,0.02234741859138012,0.0017847944982349873,0.4013078212738037,-0.943359375,0.35693359375,0.14892578125
2023-08-01T16:05:17.713040,0.9156688451766968,0.02234741859138012,0.0017847944982349873,0.4013078212738037,-0.89013671875,0.36328125,0.1513671875
2023-08-01T16:05:17.713040,0.9155677556991577,0.022182123735547066,0.0018557236762717366,0.40154725313186646,-0.89013671875,0.36328125,0.1513671875
2023-08-01T16:05:17.714037,0.9155677556991577,0.022182123735547066,0.0018557236762717366,0.40154725313186646,-0.87158203125,0.3681640625,0.15478515625
2023-08-01T16:05:17.720020,0.9155170917510986,0.021907614544034004,0.0021517311688512564,0.4016765058040619,-0.87158203125,0.3681640625,0.15478515625
2023-08-01T16:05:17.727518,0.9155170917510986,0.021907614544034004,0.0021517311688512564,0.4016765058040619,-0.8828125,0.36376953125,0.16455078125
2023-08-01T16:05:17.728515,0.9154762625694275,0.02159557305276394,0.002546807751059532,0.4017837941646576,-0.8828125,0.36376953125,0.16455078125
2023-08-01T16:05:17.735529,0.9154762625694275,0.02159557305276394,0.002546807751059532,0.4017837941646576,-0.908203125,0.35791015625,0.16748046875
2023-08-01T16:05:17.735529,0.9154515862464905,0.021312270313501358,0.0027407072484493256,0.4018539488315582,-0.908203125,0.35791015625,0.16748046875
2023-08-01T16:05:17.743063,0.9154515862464905,0.021312270313501358,0.0027407072484493256,0.4018539488315582,-0.93115234375,0.35205078125,0.16064453125
2023-08-01T16:05:17.743063,0.9154562950134277,0.021155504509806633,0.0025741455610841513,0.4018526077270508,-0.93115234375,0.35205078125,0.16064453125
2023-08-01T16:05:17.757719,0.9154562950134277,0.021155504509806633,0.0025741455610841513,0.4018526077270508,-0.9462890625,0.34033203125,0.162109375
2023-08-01T16:05:17.758717,0.915461003780365,0.021133409813046455,0.002179343020543456,0.4018456041812897,-0.9462890625,0.34033203125,0.162109375
2023-08-01T16:05:17.765446,0.915461003780365,0.021133409813046455,0.002179343020543456,0.4018456041812897,-0.9296875,0.33740234375,0.16455078125
2023-08-01T16:05:17.766445,0.9154645204544067,0.021272774785757065,0.0015738074434921145,0.40183284878730774,-0.9296875,0.33740234375,0.16455078125
2023-08-01T16:05:17.773113,0.9154645204544067,0.021272774785757065,0.0015738074434921145,0.40183284878730774,-0.91650390625,0.3408203125,0.1650390625
2023-08-01T16:05:17.773113,0.9154689908027649,0.02137240581214428,0.0009278455981984735,0.40181964635849,-0.91650390625,0.3408203125,0.1650390625
2023-08-01T16:05:17.794695,0.9154689908027649,0.02137240581214428,0.0009278455981984735,0.40181964635849,-0.90869140625,0.34912109375,0.15625
2023-08-01T16:05:17.795693,0.9154521822929382,0.021423188969492912,0.00033976000850088894,0.401856005191803,-0.90869140625,0.34912109375,0.15625
2023-08-01T16:05:17.795693,0.9154521822929382,0.021423188969492912,0.00033976000850088894,0.401856005191803,-0.90771484375,0.349609375,0.14111328125
2023-08-01T16:05:17.801687,0.915455162525177,0.021481947973370552,-0.00013449210382532328,0.4018462002277374,-0.90771484375,0.349609375,0.14111328125
2023-08-01T16:05:17.803142,0.915455162525177,0.021481947973370552,-0.00013449210382532328,0.4018462002277374,-0.91845703125,0.34814453125,0.1416015625
2023-08-01T16:05:17.803142,0.9154565930366516,0.021602056920528412,-0.0005935981753282249,0.4018360674381256,-0.91845703125,0.34814453125,0.1416015625
2023-08-01T16:05:17.817125,0.9154565930366516,0.021602056920528412,-0.0005935981753282249,0.4018360674381256,-0.916015625,0.3505859375,0.15478515625
2023-08-01T16:05:17.818122,0.9154261946678162,0.021749719977378845,-0.0011282055638730526,0.4018964171409607,-0.916015625,0.3505859375,0.15478515625
2023-08-01T16:05:17.824656,0.9154261946678162,0.021749719977378845,-0.0011282055638730526,0.4018964171409607,-0.904296875,0.35693359375,0.1708984375
2023-08-01T16:05:17.825652,0.9153950214385986,0.021917585283517838,-0.0016826739301905036,0.4019559919834137,-0.904296875,0.35693359375,0.1708984375
2023-08-01T16:05:17.832861,0.9153950214385986,0.021917585283517838,-0.0016826739301905036,0.4019559919834137,-0.89697265625,0.3583984375,0.185546875
2023-08-01T16:05:17.832861,0.9153937697410583,0.022165140137076378,-0.002246454358100891,0.4019424021244049,-0.89697265625,0.3583984375,0.185546875
2023-08-01T16:05:17.847389,0.9153937697410583,0.022165140137076378,-0.002246454358100891,0.4019424021244049,-0.90234375,0.35888671875,0.1884765625
2023-08-01T16:05:17.848384,0.9153690338134766,0.022410443052649498,-0.002806699136272073,0.40198180079460144,-0.90234375,0.35888671875,0.1884765625
2023-08-01T16:05:17.854952,0.9153690338134766,0.022410443052649498,-0.002806699136272073,0.40198180079460144,-0.904296875,0.3544921875,0.1806640625
2023-08-01T16:05:17.854952,0.9153344631195068,0.022678473964333534,-0.003288436448201537,0.40204188227653503,-0.904296875,0.3544921875,0.1806640625
2023-08-01T16:05:17.861949,0.9153344631195068,0.022678473964333534,-0.003288436448201537,0.40204188227653503,-0.90087890625,0.3544921875,0.17333984375
2023-08-01T16:05:17.863150,0.9152911305427551,0.023030465468764305,-0.0037393730599433184,0.40211644768714905,-0.90087890625,0.3544921875,0.17333984375
2023-08-01T16:05:17.877826,0.9152911305427551,0.023030465468764305,-0.0037393730599433184,0.40211644768714905,-0.9013671875,0.36279296875,0.169921875
2023-08-01T16:05:17.877826,0.9152354598045349,0.023405322805047035,-0.004106633830815554,0.4022181034088135,-0.9013671875,0.36279296875,0.169921875
2023-08-01T16:05:17.884526,0.9152354598045349,0.023405322805047035,-0.004106633830815554,0.4022181034088135,-0.88916015625,0.36962890625,0.16650390625
2023-08-01T16:05:17.885522,0.9151816964149475,0.023782918229699135,-0.004420310724526644,0.4023146629333496,-0.88916015625,0.36962890625,0.16650390625
2023-08-01T16:05:17.892600,0.9151816964149475,0.023782918229699135,-0.004420310724526644,0.4023146629333496,-0.8818359375,0.37353515625,0.16259765625
2023-08-01T16:05:17.892600,0.915128767490387,0.02418350614607334,-0.004603054374456406,0.4024093747138977,-0.8818359375,0.37353515625,0.16259765625
2023-08-01T16:05:17.907599,0.915128767490387,0.02418350614607334,-0.004603054374456406,0.4024093747138977,-0.8916015625,0.3779296875,0.1650390625
2023-08-01T16:05:17.907599,0.9150753021240234,0.024543479084968567,-0.004645064473152161,0.40250882506370544,-0.8916015625,0.3779296875,0.1650390625
2023-08-01T16:05:17.923013,0.9150753021240234,0.024543479084968567,-0.004645064473152161,0.40250882506370544,-0.892578125,0.380859375,0.1640625
2023-08-01T16:05:17.923013,0.9150105118751526,0.024880751967430115,-0.004595806822180748,0.4026358127593994,-0.892578125,0.380859375,0.1640625
2023-08-01T16:05:17.924006,0.9150105118751526,0.024880751967430115,-0.004595806822180748,0.4026358127593994,-0.89794921875,0.38818359375,0.16064453125
2023-08-01T16:05:17.929989,0.9149384498596191,0.025201965123414993,-0.0045213522389531136,0.40278029441833496,-0.89794921875,0.38818359375,0.16064453125
2023-08-01T16:05:17.937170,0.9149384498596191,0.025201965123414993,-0.0045213522389531136,0.40278029441833496,-0.919921875,0.3916015625,0.15283203125
2023-08-01T16:05:17.938167,0.9148454070091248,0.025499602779746056,-0.004395211581140757,0.4029744267463684,-0.919921875,0.3916015625,0.15283203125
2023-08-01T16:05:17.944711,0.9148454070091248,0.025499602779746056,-0.004395211581140757,0.4029744267463684,-0.93798828125,0.38623046875,0.1513671875
2023-08-01T16:05:17.945707,0.9147242307662964,0.02579568885266781,-0.004416948650032282,0.4032304584980011,-0.93798828125,0.38623046875,0.1513671875
2023-08-01T16:05:17.952904,0.9147242307662964,0.02579568885266781,-0.004416948650032282,0.4032304584980011,-0.92919921875,0.38037109375,0.1513671875
