Timestamp,w,x,y,z,ax,ay,az
2023-08-01T17:31:46.763170,0.9972863793373108,-0.014121058396995068,0.07221456617116928,-0.00233573280274868,-0.30810546875,-0.09423828125,1.9833984375
2023-08-01T17:31:46.771149,0.9972863793373108,-0.014121058396995068,0.07221456617116928,-0.00233573280274868,-0.31591796875,-0.09130859375,1.9794921875
2023-08-01T17:31:46.772146,0.9973004460334778,-0.014121513813734055,0.07202029973268509,-0.0023329821415245533,-0.31591796875,-0.09130859375,1.9794921875
2023-08-01T17:31:46.779127,0.9973004460334778,-0.014121513813734055,0.07202029973268509,-0.0023329821415245533,-0.28125,-0.0947265625,1.98876953125
2023-08-01T17:31:46.780125,0.9999973773956299,-0.0005225350032560527,0.002204461954534054,0.0,-0.28125,-0.0947265625,1.98876953125
2023-08-01T17:31:46.793090,0.9999973773956299,-0.0005225350032560527,0.002204461954534054,0.0,-0.2880859375,-0.0986328125,1.99609375
2023-08-01T17:31:46.794088,0.9999901652336121,-0.0010448492830619216,0.004311234224587679,-5.055949969801077e-08,-0.2880859375,-0.0986328125,1.99609375
2023-08-01T17:31:46.838484,0.9999901652336121,-0.0010448492830619216,0.004311234224587679,-5.055949969801077e-08,-0.16357421875,-0.05224609375,1.0283203125
2023-08-01T17:31:46.845466,0.9999901652336121,-0.0010448492830619216,0.004311234224587679,-5.055949969801077e-08,-0.16357421875,-0.05224609375,1.0283203125
2023-08-01T17:31:46.853444,0.9999901652336121,-0.0010448492830619216,0.004311234224587679,-5.055949969801077e-08,-0.16552734375,-0.05078125,1.03466796875
2023-08-01T17:31:46.854441,0.9999906420707703,-0.0010448492830619216,0.004194010514765978,7.192289075419467e-08,-0.16552734375,-0.05078125,1.03466796875
2023-08-01T17:31:46.861423,0.9999906420707703,-0.0010448492830619216,0.004194010514765978,7.192289075419467e-08,-0.16015625,-0.05126953125,1.03369140625
2023-08-01T17:31:46.861423,0.9999911189079285,-0.0010448492830619216,0.004078169818967581,1.9295998754387256e-07,-0.16015625,-0.05126953125,1.03369140625
2023-08-01T17:31:46.868405,0.9999911189079285,-0.0010448492830619216,0.004078169818967581,1.9295998754387256e-07,-0.15478515625,-0.0517578125,1.03173828125
2023-08-01T17:31:46.868405,0.9999911189079285,-0.0010448492830619216,0.004078169818967581,1.9295998754387256e-07,-0.15478515625,-0.0517578125,1.03173828125
2023-08-01T17:31:46.883364,0.9999911189079285,-0.0010448492830619216,0.004078169818967581,1.9295998754387256e-07,-0.154296875,-0.05078125,1.0283203125
2023-08-01T17:31:46.884362,0.9999911189079285,-0.0010448492830619216,0.004078169818967581,1.9295998754387256e-07,-0.154296875,-0.05078125,1.0283203125
2023-08-01T17:31:46.890352,0.9999911189079285,-0.0010448492830619216,0.004078169818967581,1.9295998754387256e-07,-0.1630859375,-0.04931640625,1.02880859375
2023-08-01T17:31:46.891347,0.9999913573265076,-0.0010448492830619216,0.004020228516310453,2.535002181502932e-07,-0.1630859375,-0.04931640625,1.02880859375
2023-08-01T17:31:46.898327,0.9999913573265076,-0.0010448492830619216,0.004020228516310453,2.535002181502932e-07,-0.16552734375,-0.052734375,1.03125
2023-08-01T17:31:46.905308,0.9999917149543762,-0.0010448492830619216,0.003930705599486828,3.4703873552643927e-07,-0.16552734375,-0.052734375,1.03125
2023-08-01T17:31:46.912799,0.9999917149543762,-0.0010448492830619216,0.003930705599486828,3.4703873552643927e-07,-0.158203125,-0.0537109375,1.03515625
2023-08-01T17:31:46.913800,0.9999920129776001,-0.0010448492830619216,0.003856093157082796,4.249980349868565e-07,-0.158203125,-0.0537109375,1.03515625
2023-08-01T17:31:46.923772,0.9999920129776001,-0.0010448492830619216,0.003856093157082796,4.249980349868565e-07,-0.154296875,-0.05078125,1.0380859375
2023-08-01T17:31:46.924769,0.9999920129776001,-0.0010448492830619216,0.003856093157082796,4.249980349868565e-07,-0.154296875,-0.05078125,1.0380859375
2023-08-01T17:31:46.929756,0.9999920129776001,-0.0010448492830619216,0.003856093157082796,4.249980349868565e-07,-0.15771484375,-0.046875,1.03466796875
2023-08-01T17:31:46.929756,0.999992311000824,-0.0010448492830619216,0.0037823612801730633,5.020374373998493e-07,-0.15771484375,-0.046875,1.03466796875
2023-08-01T17:31:46.942721,0.999992311000824,-0.0010448492830619216,0.0037823612801730633,5.020374373998493e-07,-0.16162109375,-0.048828125,1.03076171875
2023-08-01T17:31:46.943719,0.9999927878379822,-0.0010448491666465998,0.003661256982013583,6.285742415457207e-07,-0.16162109375,-0.048828125,1.03076171875
2023-08-01T17:31:46.950700,0.9999927878379822,-0.0010448491666465998,0.003661256982013583,6.285742415457207e-07,-0.15478515625,-0.0517578125,1.03173828125
2023-08-01T17:31:46.950700,0.9999929666519165,-0.0010448491666465998,0.0036085795145481825,6.836147576905205e-07,-0.15478515625,-0.0517578125,1.03173828125
2023-08-01T17:31:46.957682,0.9999929666519165,-0.0010448491666465998,0.0036085795145481825,6.836147576905205e-07,-0.1494140625,-0.0517578125,1.03369140625
2023-08-01T17:31:46.958679,0.9999929666519165,-0.0010448491666465998,0.0036085795145481825,6.836147576905205e-07,-0.1494140625,-0.0517578125,1.03369140625
2023-08-01T17:31:46.973639,0.9999929666519165,-0.0010448491666465998,0.0036085795145481825,6.836147576905205e-07,-0.15478515625,-0.05224609375,1.033203125
2023-08-01T17:31:46.973639,0.9999929666519165,-0.0010448491666465998,0.0036085795145481825,6.836147576905205e-07,-0.15478515625,-0.05224609375,1.033203125
2023-08-01T17:31:46.980620,0.9999929666519165,-0.0010448491666465998,0.0036085795145481825,6.836147576905205e-07,-0.154296875,-0.05126953125,1.03466796875
2023-08-01T17:31:46.981618,0.9999929666519165,-0.0010448491666465998,0.0036085795145481825,6.836147576905205e-07,-0.154296875,-0.05126953125,1.03466796875
2023-08-01T17:31:46.987601,0.9999929666519165,-0.0010448491666465998,0.0036085795145481825,6.836147576905205e-07,-0.14599609375,-0.048828125,1.0322265625
2023-08-01T17:31:46.988599,0.9999926090240479,-0.0010448492830619216,0.0037085465155541897,5.791635544483142e-07,-0.14599609375,-0.048828125,1.0322265625
2023-08-01T17:31:47.003562,0.9999926090240479,-0.0010448492830619216,0.0037085465155541897,5.791635544483142e-07,-0.14892578125,-0.05126953125,1.03564453125
2023-08-01T17:31:47.003562,0.9999920129776001,-0.0010448493994772434,0.0038769403472542763,4.032160063616175e-07,-0.14892578125,-0.05126953125,1.03564453125
2023-08-01T17:31:47.010544,0.9999920129776001,-0.0010448493994772434,0.0038769403472542763,4.032160063616175e-07,-0.15673828125,-0.05224609375,1.03857421875
2023-08-01T17:31:47.011541,0.9999912977218628,-0.0010448495158925653,0.004055861383676529,2.1626904356253362e-07,-0.15673828125,-0.05224609375,1.03857421875
2023-08-01T17:31:47.018037,0.9999912977218628,-0.0010448495158925653,0.004055861383676529,2.1626904356253362e-07,-0.16455078125,-0.05078125,1.03662109375
2023-08-01T17:31:47.019035,0.9999905824661255,-0.0010448495158925653,0.004234782420098782,2.9322052341740346e-08,-0.16455078125,-0.05078125,1.03662109375
2023-08-01T17:31:47.032997,0.9999905824661255,-0.0010448495158925653,0.004234782420098782,2.9322052341740346e-08,-0.1669921875,-0.05029296875,1.03125
2023-08-01T17:31:47.033994,0.9999900460243225,-0.0009862553561106324,0.0043732281774282455,-3.634699510257633e-07,-0.1669921875,-0.05029296875,1.03125
2023-08-01T17:31:47.040976,0.9999900460243225,-0.0009862553561106324,0.0043732281774282455,-3.634699510257633e-07,-0.14599609375,-0.05224609375,1.0380859375
2023-08-01T17:31:47.040976,0.9999891519546509,-0.0009867973858490586,0.004553878679871559,-0.00012452858209144324,-0.14599609375,-0.05224609375,1.0380859375
2023-08-01T17:31:47.047958,0.9999891519546509,-0.0009867973858490586,0.004553878679871559,-0.00012452858209144324,-0.1396484375,-0.05322265625,1.0361328125
2023-08-01T17:31:47.048954,0.9999880194664001,-0.0009338611271232367,0.004814746789634228,-0.00020492527983151376,-0.1396484375,-0.05322265625,1.0361328125
2023-08-01T17:31:47.062917,0.9999880194664001,-0.0009338611271232367,0.004814746789634228,-0.00020492527983151376,-0.15625,-0.05078125,1.02587890625
2023-08-01T17:31:47.063914,0.9999867677688599,-0.0009343204437755048,0.005046204198151827,-0.00031041313195601106,-0.15625,-0.05078125,1.02587890625
2023-08-01T17:31:47.070896,0.9999867677688599,-0.0009343204437755048,0.005046204198151827,-0.00031041313195601106,-0.166015625,-0.05126953125,1.02294921875
2023-08-01T17:31:47.071893,0.9999857544898987,-0.0009347365121357143,0.0052460902370512486,-0.0004053443262819201,-0.166015625,-0.05126953125,1.02294921875
2023-08-01T17:31:47.082865,0.9999857544898987,-0.0009347365121357143,0.0052460902370512486,-0.0004053443262819201,-0.1630859375,-0.05126953125,1.02587890625
2023-08-01T17:31:47.085856,0.999984622001648,-0.0009346490260213614,0.005461854860186577,-0.00040554601582698524,-0.1630859375,-0.05126953125,1.02587890625
2023-08-01T17:31:47.085856,0.999984622001648,-0.0009346490260213614,0.005461854860186577,-0.00040554601582698524,-0.17431640625,-0.05078125,1.03271484375
2023-08-01T17:31:47.087851,0.9999837875366211,-0.0009345849975943565,0.0056197200901806355,-0.0004056935722474009,-0.17431640625,-0.05078125,1.03271484375
2023-08-01T17:31:47.100818,0.9999837875366211,-0.0009345849975943565,0.0056197200901806355,-0.0004056935722474009,-0.18603515625,-0.04931640625,1.03173828125
2023-08-01T17:31:47.101815,0.9999834895133972,-0.0009345636353828013,0.005672314204275608,-0.0004057427286170423,-0.18603515625,-0.04931640625,1.03173828125
2023-08-01T17:31:47.107799,0.9999834895133972,-0.0009345636353828013,0.005672314204275608,-0.0004057427286170423,-0.1708984375,-0.04736328125,1.03271484375
2023-08-01T17:31:47.116291,0.9999834895133972,-0.0009345636353828013,0.005672314204275608,-0.0004057427286170423,-0.1708984375,-0.04736328125,1.03271484375
2023-08-01T17:31:47.116291,0.9999834895133972,-0.0009345636353828013,0.005672314204275608,-0.0004057427286170423,-0.15625,-0.04931640625,1.0302734375
2023-08-01T17:31:47.123272,0.9999830722808838,-0.000934535579290241,0.005741515662521124,-0.00040580739732831717,-0.15625,-0.04931640625,1.0302734375
2023-08-01T17:31:47.138233,0.9999830722808838,-0.000934535579290241,0.005741515662521124,-0.00040580739732831717,-0.16162109375,-0.05078125,1.02880859375
2023-08-01T17:31:47.139229,0.9999827146530151,-0.0009345121216028929,0.005799373146146536,-0.0004058614722453058,-0.16162109375,-0.05078125,1.02880859375
2023-08-01T17:31:47.139229,0.9999827146530151,-0.0009345121216028929,0.005799373146146536,-0.0004058614722453058,-0.16796875,-0.05224609375,1.02783203125
2023-08-01T17:31:47.145212,0.9999827146530151,-0.0009345121216028929,0.005799373146146536,-0.0004058614722453058,-0.16796875,-0.05224609375,1.02783203125
2023-08-01T17:31:47.146211,0.9999827146530151,-0.0009345121216028929,0.005799373146146536,-0.0004058614722453058,-0.1611328125,-0.05322265625,1.0341796875
2023-08-01T17:31:47.146211,0.9999827146530151,-0.0009345121216028929,0.005799373146146536,-0.0004058614722453058,-0.1611328125,-0.05322265625,1.0341796875
2023-08-01T17:31:47.160173,0.9999827146530151,-0.0009345121216028929,0.005799373146146536,-0.0004058614722453058,-0.14794921875,-0.05078125,1.03857421875
2023-08-01T17:31:47.161170,0.9999827146530151,-0.0009345121216028929,0.005799373146146536,-0.0004058614722453058,-0.14794921875,-0.05078125,1.03857421875
2023-08-01T17:31:47.168152,0.9999827146530151,-0.0009345121216028929,0.005799373146146536,-0.0004058614722453058,-0.154296875,-0.05078125,1.03125
2023-08-01T17:31:47.169149,0.9999821782112122,-0.0009344758000224829,0.005888812243938446,-0.0004059450584463775,-0.154296875,-0.05078125,1.03125
2023-08-01T17:31:47.175133,0.9999821782112122,-0.0009344758000224829,0.005888812243938446,-0.0004059450584463775,-0.16064453125,-0.05029296875,1.02294921875
2023-08-01T17:31:47.191090,0.9999817609786987,-0.0009344458812847733,0.0059624603018164635,-0.0004060138890054077,-0.16064453125,-0.05029296875,1.02294921875
2023-08-01T17:31:47.191090,0.9999817609786987,-0.0009344458812847733,0.0059624603018164635,-0.0004060138890054077,-0.16455078125,-0.05126953125,1.0283203125
2023-08-01T17:31:47.192088,0.9999813437461853,-0.0009344156133010983,0.006036987993866205,-0.00040608353447169065,-0.16455078125,-0.05126953125,1.0283203125
2023-08-01T17:31:47.198072,0.9999813437461853,-0.0009344156133010983,0.006036987993866205,-0.00040608353447169065,-0.16357421875,-0.05126953125,1.03076171875
2023-08-01T17:31:47.199072,0.9999807476997375,-0.0009347075247205794,0.00610005808994174,-0.00045877788215875626,-0.16357421875,-0.05126953125,1.03076171875
2023-08-01T17:31:47.206054,0.9999807476997375,-0.0009347075247205794,0.00610005808994174,-0.00045877788215875626,-0.1591796875,-0.0517578125,1.03515625
2023-08-01T17:31:47.206054,0.9999802112579346,-0.0009349875617772341,0.006189447361975908,-0.0005114969098940492,-0.1591796875,-0.0517578125,1.03515625
2023-08-01T17:31:47.220526,0.9999802112579346,-0.0009349875617772341,0.006189447361975908,-0.0005114969098940492,-0.16748046875,-0.05224609375,1.03125
2023-08-01T17:31:47.221523,0.9999799132347107,-0.0009349606698378921,0.006242041476070881,-0.000511546095367521,-0.16748046875,-0.05224609375,1.03125
2023-08-01T17:31:47.228504,0.9999799132347107,-0.0009349606698378921,0.006242041476070881,-0.000511546095367521,-0.17626953125,-0.048828125,1.03173828125
2023-08-01T17:31:47.228504,0.9999799132347107,-0.0009349606698378921,0.006242041476070881,-0.000511546095367521,-0.17626953125,-0.048828125,1.03173828125
2023-08-01T17:31:47.235486,0.9999799132347107,-0.0009349606698378921,0.006242041476070881,-0.000511546095367521,-0.16650390625,-0.04931640625,1.033203125
2023-08-01T17:31:47.236483,0.9999799132347107,-0.0009349606698378921,0.006242041476070881,-0.000511546095367521,-0.16650390625,-0.04931640625,1.033203125
2023-08-01T17:31:47.250446,0.9999799132347107,-0.0009349606698378921,0.006242041476070881,-0.000511546095367521,-0.16357421875,-0.04833984375,1.02294921875
2023-08-01T17:31:47.251443,0.9999806880950928,-0.0009350241161882877,0.006118015386164188,-0.0005114301457069814,-0.16357421875,-0.04833984375,1.02294921875
2023-08-01T17:31:47.258426,0.9999806880950928,-0.0009350241161882877,0.006118015386164188,-0.0005114301457069814,-0.16552734375,-0.05322265625,1.0341796875
2023-08-01T17:31:47.258426,0.999981164932251,-0.000935062300413847,0.006043403875082731,-0.0005113603547215462,-0.16552734375,-0.05322265625,1.0341796875
2023-08-01T17:31:47.265406,0.999981164932251,-0.000935062300413847,0.006043403875082731,-0.0005113603547215462,-0.15234375,-0.05224609375,1.03369140625
2023-08-01T17:31:47.266404,0.999981164932251,-0.000935062300413847,0.006043403875082731,-0.0005113603547215462,-0.15234375,-0.05224609375,1.03369140625
2023-08-01T17:31:47.280366,0.999981164932251,-0.000935062300413847,0.006043403875082731,-0.0005113603547215462,-0.1630859375,-0.0517578125,1.033203125
2023-08-01T17:31:47.281365,0.999981164932251,-0.0009347441955469549,0.006043453235179186,-0.000458724913187325,-0.1630859375,-0.0517578125,1.033203125
2023-08-01T17:31:47.288345,0.999981164932251,-0.0009347441955469549,0.006043453235179186,-0.000458724913187325,-0.16650390625,-0.048828125,1.03271484375
2023-08-01T17:31:47.289343,0.999981164932251,-0.0009347441955469549,0.006043453235179186,-0.000458724913187325,-0.16650390625,-0.048828125,1.03271484375
2023-08-01T17:31:47.297321,0.999981164932251,-0.0009347441955469549,0.006043453235179186,-0.000458724913187325,-0.16552734375,-0.048828125,1.0361328125
2023-08-01T17:31:47.297321,0.999981164932251,-0.0009347441955469549,0.006043453235179186,-0.000458724913187325,-0.16552734375,-0.048828125,1.0361328125
2023-08-01T17:31:47.311286,0.999981164932251,-0.0009347441955469549,0.006043453235179186,-0.000458724913187325,-0.16845703125,-0.0517578125,1.03076171875
2023-08-01T17:31:47.312284,0.999981164932251,-0.0009347441955469549,0.006043453235179186,-0.000458724913187325,-0.16845703125,-0.0517578125,1.03076171875
2023-08-01T17:31:47.317782,0.999981164932251,-0.0009347441955469549,0.006043453235179186,-0.000458724913187325,-0.1708984375,-0.0478515625,1.02587890625
2023-08-01T17:31:47.318779,0.9999817609786987,-0.0009347916347905993,0.005940090864896774,-0.00045862828847020864,-0.1708984375,-0.0478515625,1.02587890625
2023-08-01T17:31:47.326758,0.9999817609786987,-0.0009347916347905993,0.005940090864896774,-0.00045862828847020864,-0.16748046875,-0.04736328125,1.02685546875
2023-08-01T17:31:47.327755,0.9999824166297913,-0.000934842973947525,0.005828194320201874,-0.00045852368930354714,-0.16748046875,-0.04736328125,1.02685546875
2023-08-01T17:31:47.342716,0.9999824166297913,-0.000934842973947525,0.005828194320201874,-0.00045852368930354714,-0.1669921875,-0.0498046875,1.03271484375
2023-08-01T17:31:47.343713,0.999983549118042,-0.0009349298779852688,0.0056386650539934635,-0.00045834650518372655,-0.1669921875,-0.0498046875,1.03271484375
2023-08-01T17:31:47.347702,0.999983549118042,-0.0009349298779852688,0.0056386650539934635,-0.00045834650518372655,-0.16943359375,-0.0517578125,1.03662109375
2023-08-01T17:31:47.348699,0.9999850988388062,-0.0009350577602162957,0.005359654780477285,-0.00045808564755134284,-0.16943359375,-0.0517578125,1.03662109375
2023-08-01T17:31:47.355681,0.9999850988388062,-0.0009350577602162957,0.005359654780477285,-0.00045808564755134284,-0.162109375,-0.05126953125,1.0322265625
2023-08-01T17:31:47.356678,0.9999867081642151,-0.0009983620839193463,0.005043828394263983,-0.00045745179522782564,-0.162109375,-0.05126953125,1.0322265625
2023-08-01T17:31:47.371638,0.9999867081642151,-0.0009983620839193463,0.005043828394263983,-0.00045745179522782564,-0.15185546875,-0.05224609375,1.03173828125
2023-08-01T17:31:47.372636,0.9999878406524658,-0.000998463248834014,0.0048227165825665,-0.0004572310426738113,-0.15185546875,-0.05224609375,1.03173828125
2023-08-01T17:31:47.378619,0.9999878406524658,-0.000998463248834014,0.0048227165825665,-0.0004572310426738113,-0.1513671875,-0.052734375,1.0322265625
2023-08-01T17:31:47.378619,0.9999883770942688,-0.0010564171243458986,0.0046963756904006,-0.00045682565541937947,-0.1513671875,-0.052734375,1.0322265625
2023-08-01T17:31:47.411534,0.9999883770942688,-0.0010564171243458986,0.0046963756904006,-0.00045682565541937947,-0.16064453125,-0.05126953125,1.03076171875
2023-08-01T17:31:47.419031,0.999988853931427,-0.0010564723052084446,0.004575271159410477,-0.00045669765677303076,-0.16064453125,-0.05126953125,1.03076171875
2023-08-01T17:31:47.422022,0.999988853931427,-0.0010564723052084446,0.004575271159410477,-0.00045669765677303076,-0.162109375,-0.05322265625,1.0283203125
2023-08-01T17:31:47.425014,0.99998939037323,-0.0010565234115347266,0.004463374149054289,-0.0004565794370137155,-0.162109375,-0.05322265625,1.0283203125
2023-08-01T17:31:47.426013,0.99998939037323,-0.0010565234115347266,0.004463374149054289,-0.0004565794370137155,-0.16064453125,-0.052734375,1.03759765625
2023-08-01T17:31:47.432993,0.9999898076057434,-0.0010565642733126879,0.004373851697891951,-0.0004564848495647311,-0.16064453125,-0.052734375,1.03759765625
2023-08-01T17:31:47.435985,0.9999898076057434,-0.0010565642733126879,0.004373851697891951,-0.0004564848495647311,-0.1513671875,-0.05078125,1.03857421875
2023-08-01T17:31:47.436983,0.9999901056289673,-0.001056593144312501,0.004310647025704384,-0.0004564180562738329,-0.1513671875,-0.05078125,1.03857421875
2023-08-01T17:31:47.454935,0.9999901056289673,-0.001056593144312501,0.004310647025704384,-0.0004564180562738329,-0.14501953125,-0.05224609375,1.03662109375
2023-08-01T17:31:47.455932,0.9999904632568359,-0.0010566315613687038,0.004226387944072485,-0.00045632902765646577,-0.14501953125,-0.05224609375,1.03662109375
2023-08-01T17:31:47.456929,0.9999904632568359,-0.0010566315613687038,0.004226387944072485,-0.00045632902765646577,-0.1484375,-0.0517578125,1.0322265625
2023-08-01T17:31:47.456929,0.9999904632568359,-0.0010566315613687038,0.004226387944072485,-0.00045632902765646577,-0.1484375,-0.0517578125,1.0322265625
2023-08-01T17:31:47.466902,0.9999904632568359,-0.0010566315613687038,0.004226387944072485,-0.00045632902765646577,-0.15185546875,-0.04833984375,1.0283203125
2023-08-01T17:31:47.468897,0.9999904632568359,-0.0010566315613687038,0.004226387944072485,-0.00045632902765646577,-0.15185546875,-0.04833984375,1.0283203125
2023-08-01T17:31:47.468897,0.9999904632568359,-0.0010566315613687038,0.004226387944072485,-0.00045632902765646577,-0.15966796875,-0.0517578125,1.02880859375
2023-08-01T17:31:47.470891,0.9999904632568359,-0.0010566315613687038,0.004226387944072485,-0.00045632902765646577,-0.15966796875,-0.0517578125,1.02880859375
2023-08-01T17:31:47.485852,0.9999904632568359,-0.0010566315613687038,0.004226387944072485,-0.00045632902765646577,-0.1650390625,-0.05615234375,1.02734375
2023-08-01T17:31:47.494828,0.9999904632568359,-0.0010566315613687038,0.004226387944072485,-0.00045632902765646577,-0.1650390625,-0.05615234375,1.02734375
2023-08-01T17:31:47.498817,0.9999904632568359,-0.0010566315613687038,0.004226387944072485,-0.00045632902765646577,-0.16748046875,-0.052734375,1.0322265625
2023-08-01T17:31:47.499818,0.9999904632568359,-0.0010566315613687038,0.004226387944072485,-0.00045632902765646577,-0.16748046875,-0.052734375,1.0322265625
2023-08-01T17:31:47.510789,0.9999904632568359,-0.0010566315613687038,0.004226387944072485,-0.00045632902765646577,-0.16796875,-0.0498046875,1.03955078125
2023-08-01T17:31:47.524268,0.9999908208847046,-0.0010566699784249067,0.004142128862440586,-0.0004562399990390986,-0.16796875,-0.0498046875,1.03955078125
2023-08-01T17:31:47.527260,0.9999908208847046,-0.0010566699784249067,0.004142128862440586,-0.0004562399990390986,-0.16796875,-0.0517578125,1.0341796875
2023-08-01T17:31:47.528258,0.9999913573265076,-0.0010567300487309694,0.004010497592389584,-0.0004561009118333459,-0.16796875,-0.0517578125,1.0341796875
2023-08-01T17:31:47.529255,0.9999913573265076,-0.0010567300487309694,0.004010497592389584,-0.0004561009118333459,-0.1640625,-0.05322265625,1.0302734375
2023-08-01T17:31:47.533246,0.9999918937683105,-0.0010567901190370321,0.0038788660895079374,-0.00045596182462759316,-0.1640625,-0.05322265625,1.0302734375
2023-08-01T17:31:47.534242,0.9999918937683105,-0.0010567901190370321,0.0038788660895079374,-0.00045596182462759316,-0.15771484375,-0.05078125,1.029296875
2023-08-01T17:31:47.534242,0.999992311000824,-0.0010568411089479923,0.0037669686134904623,-0.00045584357576444745,-0.15771484375,-0.05078125,1.029296875
2023-08-01T17:31:47.535239,0.999992311000824,-0.0010568411089479923,0.0037669686134904623,-0.00045584357576444745,-0.15576171875,-0.0498046875,1.02978515625
2023-08-01T17:31:47.536236,0.9999927878379822,-0.0010569000151008368,0.0036377746146172285,-0.0004557070496957749,-0.15576171875,-0.0498046875,1.02978515625
2023-08-01T17:31:47.536236,0.9999927878379822,-0.0010569000151008368,0.0036377746146172285,-0.0004557070496957749,-0.1640625,-0.0517578125,1.03076171875
2023-08-01T17:31:47.537234,0.9999933838844299,-0.0011102583957836032,0.003424698021262884,-0.00045528801274485886,-0.1640625,-0.0517578125,1.03076171875
2023-08-01T17:31:47.544215,0.9999933838844299,-0.0011102583957836032,0.003424698021262884,-0.00045528801274485886,-0.158203125,-0.052734375,1.03466796875
2023-08-01T17:31:47.546210,0.9999940991401672,-0.0011103518772870302,0.0032193756196647882,-0.00045506004244089127,-0.158203125,-0.052734375,1.03466796875
2023-08-01T17:31:47.567155,0.9999940991401672,-0.0011103518772870302,0.0032193756196647882,-0.00045506004244089127,-0.14501953125,-0.0537109375,1.03857421875
2023-08-01T17:31:47.572141,0.9999944567680359,-0.0011104046134278178,0.0031035346910357475,-0.0004549314035102725,-0.14501953125,-0.0537109375,1.03857421875
2023-08-01T17:31:47.574135,0.9999944567680359,-0.0011104046134278178,0.0031035346910357475,-0.0004549314035102725,-0.142578125,-0.0517578125,1.03271484375
2023-08-01T17:31:47.579122,0.9999944567680359,-0.0011104046134278178,0.0031035346910357475,-0.0004549314035102725,-0.142578125,-0.0517578125,1.03271484375
2023-08-01T17:31:47.580119,0.9999944567680359,-0.0011104046134278178,0.0031035346910357475,-0.0004549314035102725,-0.15576171875,-0.0517578125,1.0263671875
2023-08-01T17:31:47.581116,0.9999944567680359,-0.0011104046134278178,0.0031035346910357475,-0.0004549314035102725,-0.15576171875,-0.0517578125,1.0263671875
2023-08-01T17:31:47.597075,0.9999944567680359,-0.0011104046134278178,0.0031035346910357475,-0.0004549314035102725,-0.1611328125,-0.0517578125,1.02734375
2023-08-01T17:31:47.598072,0.9999944567680359,-0.0011104046134278178,0.0031035346910357475,-0.0004549314035102725,-0.1611328125,-0.0517578125,1.02734375
2023-08-01T17:31:47.599068,0.9999944567680359,-0.0011104046134278178,0.0031035346910357475,-0.0004549314035102725,-0.16162109375,-0.0517578125,1.03515625
2023-08-01T17:31:47.601065,0.9999944567680359,-0.0011104046134278178,0.0031035346910357475,-0.0004549314035102725,-0.16162109375,-0.0517578125,1.03515625
2023-08-01T17:31:47.603062,0.9999944567680359,-0.0011104046134278178,0.0031035346910357475,-0.0004549314035102725,-0.1640625,-0.0517578125,1.03564453125
2023-08-01T17:31:47.613033,0.999994695186615,-0.0011104358127340674,0.003035066183656454,-0.0004548553843051195,-0.1640625,-0.0517578125,1.03564453125
2023-08-01T17:31:47.682363,0.999994695186615,-0.0011104358127340674,0.003035066183656454,-0.0004548553843051195,-0.16455078125,-0.0498046875,1.0380859375
2023-08-01T17:31:47.683360,0.9999950528144836,-0.001110488548874855,0.0029192250221967697,-0.00045472674537450075,-0.16455078125,-0.0498046875,1.0380859375
2023-08-01T17:31:47.684357,0.9999950528144836,-0.001110488548874855,0.0029192250221967697,-0.00045472674537450075,-0.1591796875,-0.052734375,1.0341796875
2023-08-01T17:31:47.686352,0.9999954104423523,-0.001110548386350274,0.0027875930536538363,-0.0004545805568341166,-0.1591796875,-0.052734375,1.0341796875
2023-08-01T17:31:47.687350,0.9999954104423523,-0.001110548386350274,0.0027875930536538363,-0.0004545805568341166,-0.1494140625,-0.0537109375,1.03515625
2023-08-01T17:31:47.688346,0.9999957084655762,-0.0011104472214356065,0.002687601139768958,-0.0004018332401756197,-0.1494140625,-0.0537109375,1.03515625
2023-08-01T17:31:47.689343,0.9999957084655762,-0.0011104472214356065,0.002687601139768958,-0.0004018332401756197,-0.1494140625,-0.0517578125,1.03271484375
2023-08-01T17:31:47.690341,0.9999957084655762,-0.0011104472214356065,0.002687601139768958,-0.0004018332401756197,-0.1494140625,-0.0517578125,1.03271484375
2023-08-01T17:31:47.691339,0.9999957084655762,-0.0011104472214356065,0.002687601139768958,-0.0004018332401756197,-0.1552734375,-0.05029296875,1.03076171875
2023-08-01T17:31:47.693333,0.9999957084655762,-0.0011104472214356065,0.002687601139768958,-0.0004018332401756197,-0.1552734375,-0.05029296875,1.03076171875
2023-08-01T17:31:47.694330,0.9999957084655762,-0.0011104472214356065,0.002687601139768958,-0.0004018332401756197,-0.1611328125,-0.05224609375,1.03125
2023-08-01T17:31:47.695328,0.9999957084655762,-0.0011104472214356065,0.002687601139768958,-0.0004018332401756197,-0.1611328125,-0.05224609375,1.03125
2023-08-01T17:31:47.695328,0.9999957084655762,-0.0011104472214356065,0.002687601139768958,-0.0004018332401756197,-0.1650390625,-0.05126953125,1.03173828125
2023-08-01T17:31:47.696326,0.9999958872795105,-0.0011104729492217302,0.002623641397804022,-0.0004017622268293053,-0.1650390625,-0.05126953125,1.03173828125
2023-08-01T17:31:47.697323,0.9999958872795105,-0.0011104729492217302,0.002623641397804022,-0.0004017622268293053,-0.15576171875,-0.0498046875,1.0361328125
2023-08-01T17:31:47.700317,0.9999961853027344,-0.0011105152079835534,0.0025183274410665035,-0.00040164528763853014,-0.15576171875,-0.0498046875,1.0361328125
2023-08-01T17:31:47.707299,0.9999961853027344,-0.0011105152079835534,0.0025183274410665035,-0.00040164528763853014,-0.140625,-0.0517578125,1.041015625
2023-08-01T17:31:47.707299,0.9999964237213135,-0.0011105574667453766,0.002413013484328985,-0.000401528348447755,-0.140625,-0.0517578125,1.041015625
2023-08-01T17:31:47.770641,0.9999964237213135,-0.0011105574667453766,0.002413013484328985,-0.000401528348447755,-0.14111328125,-0.0556640625,1.03564453125
2023-08-01T17:31:47.771637,0.9999964237213135,-0.0011105574667453766,0.002413013484328985,-0.000401528348447755,-0.14111328125,-0.0556640625,1.03564453125
2023-08-01T17:31:47.772635,0.9999964237213135,-0.0011105574667453766,0.002413013484328985,-0.000401528348447755,-0.1513671875,-0.052734375,1.02685546875
2023-08-01T17:31:47.774631,0.9999964237213135,-0.0011105574667453766,0.002413013484328985,-0.000401528348447755,-0.1513671875,-0.052734375,1.02685546875
2023-08-01T17:31:47.775627,0.9999964237213135,-0.0011105574667453766,0.002413013484328985,-0.000401528348447755,-0.15869140625,-0.0498046875,1.02783203125
2023-08-01T17:31:47.777622,0.9999964237213135,-0.0011105574667453766,0.002413013484328985,-0.000401528348447755,-0.15869140625,-0.0498046875,1.02783203125
2023-08-01T17:31:47.778621,0.9999964237213135,-0.0011105574667453766,0.002413013484328985,-0.000401528348447755,-0.16064453125,-0.0517578125,1.0283203125
2023-08-01T17:31:47.779617,0.9999964237213135,-0.0011105574667453766,0.002413013484328985,-0.000401528348447755,-0.16064453125,-0.0517578125,1.0283203125
2023-08-01T17:31:47.782609,0.9999964237213135,-0.0011105574667453766,0.002413013484328985,-0.000401528348447755,-0.166015625,-0.052734375,1.03125
2023-08-01T17:31:47.786608,0.9999964237213135,-0.0011105574667453766,0.002413013484328985,-0.000401528348447755,-0.166015625,-0.052734375,1.03125
2023-08-01T17:31:47.786608,0.9999964237213135,-0.0011105574667453766,0.002413013484328985,-0.000401528348447755,-0.166015625,-0.05224609375,1.0341796875
2023-08-01T17:31:47.804553,0.9999966025352478,-0.0011105828452855349,0.002349808579310775,-0.00040145815000869334,-0.166015625,-0.05224609375,1.0341796875
2023-08-01T17:31:47.805568,0.9999966025352478,-0.0011105828452855349,0.002349808579310775,-0.00040145815000869334,-0.15966796875,-0.05126953125,1.033203125
2023-08-01T17:31:47.805568,0.9999967217445374,-0.0011106061283499002,0.0022918672766536474,-0.0004013938014395535,-0.15966796875,-0.05126953125,1.033203125
2023-08-01T17:31:47.806554,0.9999967217445374,-0.0011106061283499002,0.0022918672766536474,-0.0004013938014395535,-0.15966796875,-0.05126953125,1.03564453125
2023-08-01T17:31:47.812530,0.9999969005584717,-0.0011106377933174372,0.0022128713317215443,-0.00040130605339072645,-0.15966796875,-0.05126953125,1.03564453125
2023-08-01T17:31:47.812530,0.9999969005584717,-0.0011106377933174372,0.0022128713317215443,-0.00040130605339072645,-0.16162109375,-0.05322265625,1.033203125
2023-08-01T17:31:47.820032,0.9999971389770508,-0.0011106779566034675,0.002112820977345109,-0.00040119493496604264,-0.16162109375,-0.05322265625,1.033203125
2023-08-01T17:31:47.821030,0.9999971389770508,-0.0011106779566034675,0.002112820977345109,-0.00040119493496604264,-0.15673828125,-0.052734375,1.03125
2023-08-01T17:31:47.830007,0.9999973773956299,-0.0011107223108410835,0.002002243185415864,-0.0004010721168015152,-0.15673828125,-0.052734375,1.03125
2023-08-01T17:31:47.831004,0.9999973773956299,-0.0011107223108410835,0.002002243185415864,-0.0004010721168015152,-0.15185546875,-0.0546875,1.03173828125
2023-08-01T17:31:47.832002,0.9999975562095642,-0.0011107560712844133,0.0019179836381226778,-0.00040097851888276637,-0.15185546875,-0.0546875,1.03173828125
2023-08-01T17:31:47.832998,0.9999975562095642,-0.0011107560712844133,0.0019179836381226778,-0.00040097851888276637,-0.1484375,-0.05224609375,1.0302734375
2023-08-01T17:31:47.832998,0.9999975562095642,-0.0011107560712844133,0.0019179836381226778,-0.00040097851888276637,-0.1484375,-0.05224609375,1.0302734375
2023-08-01T17:31:47.849953,0.9999975562095642,-0.0011107560712844133,0.0019179836381226778,-0.00040097851888276637,-0.15234375,-0.04833984375,1.03271484375
2023-08-01T17:31:47.850950,0.9999975562095642,-0.0011107560712844133,0.0019179836381226778,-0.00040097851888276637,-0.15234375,-0.04833984375,1.03271484375
2023-08-01T17:31:47.851949,0.9999975562095642,-0.0011107560712844133,0.0019179836381226778,-0.00040097851888276637,-0.15380859375,-0.04931640625,1.03515625
2023-08-01T17:31:47.852945,0.9999975562095642,-0.0011107560712844133,0.0019179836381226778,-0.00040097851888276637,-0.15380859375,-0.04931640625,1.03515625
2023-08-01T17:31:47.854942,0.9999975562095642,-0.0011107560712844133,0.0019179836381226778,-0.00040097851888276637,-0.15576171875,-0.05517578125,1.0341796875
2023-08-01T17:31:47.855945,0.9999975562095642,-0.0011107560712844133,0.0019179836381226778,-0.00040097851888276637,-0.15576171875,-0.05517578125,1.0341796875
2023-08-01T17:31:47.857932,0.9999975562095642,-0.0011107560712844133,0.0019179836381226778,-0.00040097851888276637,-0.15087890625,-0.05419921875,1.03125
2023-08-01T17:31:47.864913,0.9999973773956299,-0.0010317456908524036,0.0020495012868195772,-0.000401276076445356,-0.15087890625,-0.05419921875,1.03125
2023-08-01T17:31:47.865911,0.9999973773956299,-0.0010317456908524036,0.0020495012868195772,-0.000401276076445356,-0.15380859375,-0.04736328125,1.033203125
2023-08-01T17:31:47.867905,0.9999971389770508,-0.0010316986590623856,0.002166641876101494,-0.0004013969446532428,-0.15380859375,-0.04736328125,1.033203125
2023-08-01T17:31:47.872893,0.9999971389770508,-0.0010316986590623856,0.002166641876101494,-0.0004013969446532428,-0.16748046875,-0.05029296875,1.033203125
2023-08-01T17:31:47.874888,0.9999971389770508,-0.0010316986590623856,0.002166641876101494,-0.0004013969446532428,-0.16748046875,-0.05029296875,1.033203125
2023-08-01T17:31:47.880871,0.9999971389770508,-0.0010316986590623856,0.002166641876101494,-0.0004013969446532428,-0.162109375,-0.05419921875,1.03466796875
2023-08-01T17:31:47.881868,0.9999971389770508,-0.0010316986590623856,0.002166641876101494,-0.0004013969446532428,-0.162109375,-0.05419921875,1.03466796875
2023-08-01T17:31:47.895830,0.9999971389770508,-0.0010316986590623856,0.002166641876101494,-0.0004013969446532428,-0.1494140625,-0.0546875,1.03466796875
2023-08-01T17:31:47.897825,0.9999972581863403,-0.0010317243868485093,0.0021026821341365576,-0.0004013309662695974,-0.1494140625,-0.0546875,1.03466796875
2023-08-01T17:31:47.903813,0.9999972581863403,-0.0010317243868485093,0.0021026821341365576,-0.0004013309662695974,-0.146484375,-0.05224609375,1.03564453125
2023-08-01T17:31:47.904810,0.9999973177909851,-0.001031633815728128,0.002030373550951481,-0.00034442858304828405,-0.146484375,-0.05224609375,1.03564453125
2023-08-01T17:31:47.928259,0.9999973177909851,-0.001031633815728128,0.002030373550951481,-0.00034442858304828405,-0.14453125,-0.05126953125,1.029296875
2023-08-01T17:31:47.929255,0.9999975562095642,-0.0010316791012883186,0.001898741233162582,-0.00034429278457537293,-0.14453125,-0.05126953125,1.029296875
2023-08-01T17:31:47.930253,0.9999975562095642,-0.0010316791012883186,0.001898741233162582,-0.00034429278457537293,-0.1494140625,-0.04736328125,1.029296875
2023-08-01T17:31:47.948206,0.9999977946281433,-0.0011159448185935616,0.001751346979290247,-0.00034398079151287675,-0.1494140625,-0.04736328125,1.029296875
2023-08-01T17:31:47.949203,0.9999977946281433,-0.0011159448185935616,0.001751346979290247,-0.00034398079151287675,-0.16015625,-0.05029296875,1.02685546875
2023-08-01T17:31:47.949203,0.999998152256012,-0.0012371030170470476,0.0014671109383925796,-0.00034345153835602105,-0.16015625,-0.05029296875,1.02685546875
2023-08-01T17:31:47.950199,0.999998152256012,-0.0012371030170470476,0.0014671109383925796,-0.00034345153835602105,-0.16748046875,-0.052734375,1.03125
2023-08-01T17:31:47.950199,0.9999982714653015,-0.0013117328053340316,0.0012859939597547054,-0.00034311803756281734,-0.16748046875,-0.052734375,1.03125
2023-08-01T17:31:47.952194,0.9999982714653015,-0.0013117328053340316,0.0012859939597547054,-0.00034311803756281734,-0.15478515625,-0.0517578125,1.0390625
2023-08-01T17:31:47.973138,0.9999982118606567,-0.0014117603423073888,0.0012228231644257903,-0.0003429065109230578,-0.15478515625,-0.0517578125,1.0390625
2023-08-01T17:31:47.975133,0.9999982118606567,-0.0014117603423073888,0.0012228231644257903,-0.0003429065109230578,-0.16015625,-0.0556640625,1.04150390625
2023-08-01T17:31:47.976130,0.9999982118606567,-0.0014644169714301825,0.0011543724685907364,-0.00034274550853297114,-0.16015625,-0.0556640625,1.04150390625
2023-08-01T17:31:47.976130,0.9999982118606567,-0.0014644169714301825,0.0011543724685907364,-0.00034274550853297114,-0.1689453125,-0.05078125,1.0341796875
2023-08-01T17:31:47.977127,0.9999984502792358,-0.0014644090551882982,0.0009649325511418283,-0.00027930433861911297,-0.1689453125,-0.05078125,1.0341796875
2023-08-01T17:31:47.978127,0.9999984502792358,-0.0014644090551882982,0.0009649325511418283,-0.00027930433861911297,-0.14794921875,-0.05078125,1.0380859375
2023-08-01T17:31:47.979122,0.9999985098838806,-0.0014644325710833073,0.0008806728874333203,-0.0002791809383779764,-0.14794921875,-0.05078125,1.0380859375
2023-08-01T17:31:47.994084,0.9999985098838806,-0.0014644325710833073,0.0008806728874333203,-0.0002791809383779764,-0.130859375,-0.0556640625,1.03662109375
2023-08-01T17:31:47.995081,0.9999985098838806,-0.0014644325710833073,0.0008806728874333203,-0.0002791809383779764,-0.130859375,-0.0556640625,1.03662109375
2023-08-01T17:31:48.001066,0.9999985098838806,-0.0014644325710833073,0.0008806728874333203,-0.0002791809383779764,-0.14013671875,-0.0546875,1.0263671875
2023-08-01T17:31:48.007050,0.9999984502792358,-0.0014644090551882982,0.0009648495470173657,-0.00027930422220379114,-0.14013671875,-0.0546875,1.0263671875
2023-08-01T17:31:48.018533,0.9999984502792358,-0.0014644090551882982,0.0009648495470173657,-0.00027930422220379114,-0.15478515625,-0.048828125,1.0224609375
2023-08-01T17:31:48.019530,0.9999984502792358,-0.0014644090551882982,0.0009648495470173657,-0.00027930422220379114,-0.15478515625,-0.048828125,1.0224609375
2023-08-01T17:31:48.022522,0.9999984502792358,-0.0014644090551882982,0.0009648495470173657,-0.00027930422220379114,-0.16650390625,-0.04931640625,1.02734375
2023-08-01T17:31:48.024518,0.9999985098838806,-0.0014644311740994453,0.0008858534856699407,-0.0002791885344777256,-0.16650390625,-0.04931640625,1.02734375
2023-08-01T17:31:48.030500,0.9999985098838806,-0.0014644311740994453,0.0008858534856699407,-0.0002791885344777256,-0.16015625,-0.05322265625,1.03564453125
2023-08-01T17:31:48.064410,0.9999986290931702,-0.0014644168550148606,0.0007700890419073403,-0.00022638251539319754,-0.16015625,-0.05322265625,1.03564453125
2023-08-01T17:31:48.065407,0.9999986290931702,-0.0014644168550148606,0.0007700890419073403,-0.00022638251539319754,-0.14990234375,-0.056640625,1.04345703125
2023-08-01T17:31:48.065407,0.9999986886978149,-0.0014644418843090534,0.0006595111917704344,-0.00022622058168053627,-0.14990234375,-0.056640625,1.04345703125
2023-08-01T17:31:48.091359,0.9999986886978149,-0.0014644418843090534,0.0006595111917704344,-0.00022622058168053627,-0.15087890625,-0.05078125,1.0439453125
2023-08-01T17:31:48.091359,0.9999987483024597,-0.001464465749450028,0.0005541969439946115,-0.00022606636048294604,-0.15087890625,-0.05078125,1.0439453125
2023-08-01T17:31:48.110298,0.9999987483024597,-0.001464465749450028,0.0005541969439946115,-0.00022606636048294604,-0.15771484375,-0.04833984375,1.03271484375
2023-08-01T17:31:48.110298,0.9999988079071045,-0.0015171370469033718,0.0003857308765873313,-0.00022579047072213143,-0.15771484375,-0.04833984375,1.03271484375
2023-08-01T17:31:48.111297,0.9999988079071045,-0.0015171370469033718,0.0003857308765873313,-0.00022579047072213143,-0.1572265625,-0.0546875,1.03125
2023-08-01T17:31:48.112293,0.9999988675117493,-0.0015171845443546772,0.00017514382489025593,-0.00022547098342329264,-0.1572265625,-0.0546875,1.03125
2023-08-01T17:31:48.113292,0.9999988675117493,-0.0015171845443546772,0.00017514382489025593,-0.00022547098342329264,-0.1455078125,-0.05517578125,1.0283203125
2023-08-01T17:31:48.113292,0.9999988675117493,-0.0015172134153544903,4.7266046749427915e-05,-0.00022527696273755282,-0.1455078125,-0.05517578125,1.0283203125
2023-08-01T17:31:48.114288,0.9999988675117493,-0.0015172134153544903,4.7266046749427915e-05,-0.00022527696273755282,-0.14599609375,-0.05126953125,1.02685546875
2023-08-01T17:31:48.115797,0.9999988079071045,-0.0015698644565418363,-3.17181802529376e-05,-0.00022515462478622794,-0.14599609375,-0.05126953125,1.02685546875
2023-08-01T17:31:48.116797,0.9999988079071045,-0.0015698644565418363,-3.17181802529376e-05,-0.00022515462478622794,-0.15673828125,-0.05419921875,1.03271484375
2023-08-01T17:31:48.117794,0.9999988079071045,-0.001569888205267489,-0.0001370324462186545,-0.00022498930047731847,-0.15673828125,-0.05419921875,1.03271484375
2023-08-01T17:31:48.118792,0.9999988079071045,-0.001569888205267489,-0.0001370324462186545,-0.00022498930047731847,-0.15283203125,-0.056640625,1.0361328125
2023-08-01T17:31:48.119789,0.9999986886978149,-0.0015699199866503477,-0.00027919214335270226,-0.00022476610320154577,-0.15283203125,-0.056640625,1.0361328125
2023-08-01T17:31:48.149709,0.9999986886978149,-0.0015699199866503477,-0.00027919214335270226,-0.00022476610320154577,-0.14404296875,-0.05224609375,1.03759765625
2023-08-01T17:31:48.150708,0.9999986290931702,-0.0015699531650170684,-0.0004266155301593244,-0.0002245346549898386,-0.14404296875,-0.05224609375,1.03759765625
2023-08-01T17:31:48.179629,0.9999986290931702,-0.0015699531650170684,-0.0004266155301593244,-0.0002245346549898386,-0.1435546875,-0.05078125,1.03662109375
2023-08-01T17:31:48.180627,0.9999985694885254,-0.0015699744690209627,-0.0005214025150053203,-0.00022438584710471332,-0.1435546875,-0.05078125,1.03662109375
2023-08-01T17:31:48.180627,0.9999985694885254,-0.0015699744690209627,-0.0005214025150053203,-0.00022438584710471332,-0.1494140625,-0.05419921875,1.03369140625
2023-08-01T17:31:48.181624,0.9999985098838806,-0.0015700086951255798,-0.0006740895332768559,-0.00022414613340515643,-0.1494140625,-0.05419921875,1.03369140625
2023-08-01T17:31:48.182621,0.9999985098838806,-0.0015700086951255798,-0.0006740895332768559,-0.00022414613340515643,-0.14990234375,-0.0537109375,1.03125
2023-08-01T17:31:48.197582,0.9999983906745911,-0.0015700457151979208,-0.0008392527233809233,-0.00022388681827578694,-0.14990234375,-0.0537109375,1.03125
2023-08-01T17:31:48.198580,0.9999983906745911,-0.0015700457151979208,-0.0008392527233809233,-0.00022388681827578694,-0.14697265625,-0.05224609375,1.0302734375
2023-08-01T17:31:48.199576,0.9999982714653015,-0.0015700787771493196,-0.000986676081083715,-0.00022365535551216453,-0.14697265625,-0.05224609375,1.0302734375
2023-08-01T17:31:48.199576,0.9999982714653015,-0.0015700787771493196,-0.000986676081083715,-0.00022365535551216453,-0.150390625,-0.052734375,1.0302734375
2023-08-01T17:31:48.200573,0.9999980330467224,-0.0016233749920502305,-0.001141174347139895,-0.00022346530749928206,-0.150390625,-0.052734375,1.0302734375
2023-08-01T17:31:48.201575,0.9999980330467224,-0.0016233749920502305,-0.001141174347139895,-0.00022346530749928206,-0.15576171875,-0.04931640625,1.03076171875
2023-08-01T17:31:48.201575,0.9999977350234985,-0.0016905688680708408,-0.0013065171660855412,-0.0002232735132565722,-0.15576171875,-0.04931640625,1.03076171875
2023-08-01T17:31:48.202572,0.9999977350234985,-0.0016905688680708408,-0.0013065171660855412,-0.0002232735132565722,-0.15771484375,-0.05322265625,1.0380859375
2023-08-01T17:31:48.203568,0.9999974370002747,-0.0016906182281672955,-0.001527631189674139,-0.0002228997036581859,-0.15771484375,-0.05322265625,1.0380859375
2023-08-01T17:31:48.204565,0.9999974370002747,-0.0016906182281672955,-0.001527631189674139,-0.0002228997036581859,-0.14404296875,-0.056640625,1.0400390625
2023-08-01T17:31:48.204565,0.9999971389770508,-0.0016906657256186008,-0.0017407325794920325,-0.000222539427340962,-0.14404296875,-0.056640625,1.0400390625
2023-08-01T17:31:48.210549,0.9999971389770508,-0.0016906657256186008,-0.0017407325794920325,-0.000222539427340962,-0.13720703125,-0.0556640625,1.0390625
2023-08-01T17:31:48.211547,0.9999969005584717,-0.001690694480203092,-0.0018699271604418755,-0.0002223210030933842,-0.13720703125,-0.0556640625,1.0390625
2023-08-01T17:31:48.218046,0.9999969005584717,-0.001690694480203092,-0.0018699271604418755,-0.0002223210030933842,-0.14453125,-0.0537109375,1.03466796875
2023-08-01T17:31:48.219044,0.9999967217445374,-0.0016907134559005499,-0.00195519276894629,-0.00022217683726921678,-0.14453125,-0.0537109375,1.03466796875
2023-08-01T17:31:48.233005,0.9999967217445374,-0.0016907134559005499,-0.00195519276894629,-0.00022217683726921678,-0.1533203125,-0.05419921875,1.03076171875
2023-08-01T17:31:48.234002,0.999996542930603,-0.001690732198767364,-0.002039452316239476,-0.00022203437401913106,-0.1533203125,-0.05419921875,1.03076171875
2023-08-01T17:31:48.240985,0.999996542930603,-0.001690732198767364,-0.002039452316239476,-0.00022203437401913106,-0.1591796875,-0.0517578125,1.0322265625
2023-08-01T17:31:48.240985,0.9999962449073792,-0.0016907637473195791,-0.0021816117223352194,-0.00022179402003530413,-0.1591796875,-0.0517578125,1.0322265625
2023-08-01T17:31:48.247966,0.9999962449073792,-0.0016907637473195791,-0.0021816117223352194,-0.00022179402003530413,-0.14306640625,-0.04833984375,1.0390625
2023-08-01T17:31:48.248962,0.9999952912330627,-0.0016906968085095286,-0.0025028404779732227,-0.0002844145055860281,-0.14306640625,-0.04833984375,1.0390625
2023-08-01T17:31:48.255944,0.9999952912330627,-0.0016906968085095286,-0.0025028404779732227,-0.0002844145055860281,-0.12646484375,-0.0595703125,1.03125
2023-08-01T17:31:48.262925,0.9999951720237732,-0.0016172294272109866,-0.002650159876793623,-0.00021029019262641668,-0.12646484375,-0.0595703125,1.03125
2023-08-01T17:31:48.270904,0.9999951720237732,-0.0016172294272109866,-0.002650159876793623,-0.00021029019262641668,-0.13427734375,-0.06103515625,1.02294921875
2023-08-01T17:31:48.271903,0.9999961256980896,-0.0014697862789034843,-0.002371260430663824,-0.00021035069948993623,-0.13427734375,-0.06103515625,1.02294921875
2023-08-01T17:31:48.277885,0.9999961256980896,-0.0014697862789034843,-0.002371260430663824,-0.00021035069948993623,-0.16015625,-0.04150390625,1.02880859375
2023-08-01T17:31:48.278884,0.9999969005584717,-0.0014063759008422494,-0.0020450784359127283,-0.00028437122819013894,-0.16015625,-0.04150390625,1.02880859375
2023-08-01T17:31:48.285864,0.9999969005584717,-0.0014063759008422494,-0.0020450784359127283,-0.00028437122819013894,-0.1865234375,-0.0458984375,1.0400390625
2023-08-01T17:31:48.286862,0.999997079372406,-0.0014063516864553094,-0.001959896646440029,-0.00028449101955629885,-0.1865234375,-0.0458984375,1.0400390625
2023-08-01T17:31:48.300825,0.999997079372406,-0.0014063516864553094,-0.001959896646440029,-0.00028449101955629885,-0.17822265625,-0.0625,1.0517578125
2023-08-01T17:31:48.301827,0.9999967217445374,-0.0014064025599509478,-0.002138901501893997,-0.0002842392714228481,-0.17822265625,-0.0625,1.0517578125
2023-08-01T17:31:48.308806,0.9999967217445374,-0.0014064025599509478,-0.002138901501893997,-0.0002842392714228481,-0.1572265625,-0.0693359375,1.0419921875
2023-08-01T17:31:48.308806,0.9999963045120239,-0.0014060480752959847,-0.002318172948434949,-0.0004734781105071306,-0.1572265625,-0.0693359375,1.0419921875
2023-08-01T17:31:48.314790,0.9999963045120239,-0.0014060480752959847,-0.002318172948434949,-0.0004734781105071306,-0.1005859375,-0.05810546875,1.04052734375
2023-08-01T17:31:48.316297,0.999995231628418,-0.0014055384090170264,-0.002634430769830942,-0.000757269561290741,-0.1005859375,-0.05810546875,1.04052734375
2023-08-01T17:31:48.330263,0.999995231628418,-0.0014055384090170264,-0.002634430769830942,-0.000757269561290741,-0.0771484375,-0.052734375,1.03515625
2023-08-01T17:31:48.338241,0.9999951124191284,-0.0014050669269636273,-0.0026346822269260883,-0.0009362326236441731,-0.0771484375,-0.052734375,1.03515625
2023-08-01T17:31:48.339238,0.9999951124191284,-0.0014050669269636273,-0.0026346822269260883,-0.0009362326236441731,-0.099609375,-0.0458984375,1.021484375
2023-08-01T17:31:48.339238,0.9999957084655762,-0.001515313982963562,-0.002329330425709486,-0.0009369527106173337,-0.099609375,-0.0458984375,1.021484375
2023-08-01T17:31:48.351207,0.9999957084655762,-0.001515313982963562,-0.002329330425709486,-0.0009369527106173337,-0.17822265625,-0.04638671875,1.02880859375
2023-08-01T17:31:48.351207,0.9999961256980896,-0.0015782671980559826,-0.00210824073292315,-0.000937434786465019,-0.17822265625,-0.04638671875,1.02880859375
2023-08-01T17:31:48.360182,0.9999961256980896,-0.0015782671980559826,-0.00210824073292315,-0.000937434786465019,-0.22705078125,-0.0390625,1.0322265625
2023-08-01T17:31:48.361179,0.9999954104423523,-0.001700769062153995,-0.0022840676829218864,-0.001017312635667622,-0.22705078125,-0.0390625,1.0322265625
2023-08-01T17:31:48.368160,0.9999954104423523,-0.001700769062153995,-0.0022840676829218864,-0.001017312635667622,-0.1796875,-0.048828125,1.03662109375
2023-08-01T17:31:48.369159,0.9999942183494568,-0.0018064450705423951,-0.0026840369682759047,-0.0010168724693357944,-0.1796875,-0.048828125,1.03662109375
2023-08-01T17:31:48.376139,0.9999942183494568,-0.0018064450705423951,-0.0026840369682759047,-0.0010168724693357944,-0.13037109375,-0.0615234375,1.041015625
2023-08-01T17:31:48.376139,0.9999932646751404,-0.0018701208755373955,-0.0030102345626801252,-0.0009480253211222589,-0.13037109375,-0.0615234375,1.041015625
2023-08-01T17:31:48.411048,0.9999932646751404,-0.0018701208755373955,-0.0030102345626801252,-0.0009480253211222589,-0.1328125,-0.05224609375,1.03662109375
2023-08-01T17:31:48.412046,0.9999921917915344,-0.0019649737514555454,-0.003294519614428282,-0.0010004150681197643,-0.1328125,-0.05224609375,1.03662109375
2023-08-01T17:31:48.412046,0.9999921917915344,-0.0019649737514555454,-0.003294519614428282,-0.0010004150681197643,-0.1279296875,-0.05322265625,1.0322265625
2023-08-01T17:31:48.420539,0.9999910593032837,-0.00196528946980834,-0.0036103767342865467,-0.0009997943416237831,-0.1279296875,-0.05322265625,1.0322265625
2023-08-01T17:31:48.421535,0.9999910593032837,-0.00196528946980834,-0.0036103767342865467,-0.0009997943416237831,-0.1337890625,-0.0595703125,1.03662109375
2023-08-01T17:31:48.421535,0.9999896287918091,-0.0019659013487398624,-0.003994536120444536,-0.0009358758688904345,-0.1337890625,-0.0595703125,1.03662109375
2023-08-01T17:31:48.427520,0.9999896287918091,-0.0019659013487398624,-0.003994536120444536,-0.0009358758688904345,-0.14306640625,-0.05419921875,1.03076171875
2023-08-01T17:31:48.428516,0.9999886155128479,-0.0019661455880850554,-0.004255573730915785,-0.0009353627101518214,-0.14306640625,-0.05419921875,1.03076171875
2023-08-01T17:31:48.429514,0.9999886155128479,-0.0019661455880850554,-0.004255573730915785,-0.0009353627101518214,-0.1318359375,-0.0498046875,1.03076171875
2023-08-01T17:31:48.435498,0.9999886155128479,-0.0019661455880850554,-0.004255573730915785,-0.0009353627101518214,-0.1318359375,-0.0498046875,1.03076171875
2023-08-01T17:31:48.435498,0.9999886155128479,-0.0019661455880850554,-0.004255573730915785,-0.0009353627101518214,-0.14208984375,-0.0517578125,1.0341796875
2023-08-01T17:31:48.436496,0.9999889731407166,-0.0019660668913275003,-0.004171398002654314,-0.0009355281945317984,-0.14208984375,-0.0517578125,1.0341796875
2023-08-01T17:31:48.450457,0.9999889731407166,-0.0019660668913275003,-0.004171398002654314,-0.0009355281945317984,-0.1611328125,-0.0556640625,1.03369140625
2023-08-01T17:31:48.451455,0.9999889731407166,-0.0019660668913275003,-0.004171398002654314,-0.0009355281945317984,-0.1611328125,-0.0556640625,1.03369140625
2023-08-01T17:31:48.458437,0.9999889731407166,-0.0019660668913275003,-0.004171398002654314,-0.0009355281945317984,-0.14990234375,-0.060546875,1.04052734375
2023-08-01T17:31:48.458437,0.9999884963035583,-0.001966178184375167,-0.004290259443223476,-0.0009352944907732308,-0.14990234375,-0.060546875,1.04052734375
2023-08-01T17:31:48.465417,0.9999884963035583,-0.001966178184375167,-0.004290259443223476,-0.0009352944907732308,-0.130859375,-0.05908203125,1.03759765625
2023-08-01T17:31:48.466415,0.9999880194664001,-0.0019136472837999463,-0.0044061485677957535,-0.0009348407620564103,-0.130859375,-0.05908203125,1.03759765625
2023-08-01T17:31:48.488358,0.9999880194664001,-0.0019136472837999463,-0.0044061485677957535,-0.0009348407620564103,-0.12890625,-0.052734375,1.03662109375
2023-08-01T17:31:48.488358,0.9999880194664001,-0.0019136472837999463,-0.0044061485677957535,-0.0009348407620564103,-0.12890625,-0.052734375,1.03662109375
2023-08-01T17:31:48.489354,0.9999880194664001,-0.0019136472837999463,-0.0044061485677957535,-0.0009348407620564103,-0.13232421875,-0.04833984375,1.03466796875
2023-08-01T17:31:48.495338,0.9999880194664001,-0.0019136472837999463,-0.0044061485677957535,-0.0009348407620564103,-0.13232421875,-0.04833984375,1.03466796875
2023-08-01T17:31:48.496335,0.9999880194664001,-0.0019136472837999463,-0.0044061485677957535,-0.0009348407620564103,-0.14501953125,-0.0498046875,1.03466796875
2023-08-01T17:31:48.496335,0.9999880194664001,-0.0019136472837999463,-0.0044061485677957535,-0.0009348407620564103,-0.14501953125,-0.0498046875,1.03466796875
2023-08-01T17:31:48.510301,0.9999880194664001,-0.0019136472837999463,-0.0044061485677957535,-0.0009348407620564103,-0.14794921875,-0.05419921875,1.0302734375
2023-08-01T17:31:48.517794,0.9999880194664001,-0.0019136472837999463,-0.0044061485677957535,-0.0009348407620564103,-0.14794921875,-0.05419921875,1.0302734375
2023-08-01T17:31:48.518791,0.9999880194664001,-0.0019136472837999463,-0.0044061485677957535,-0.0009348407620564103,-0.14794921875,-0.0546875,1.03466796875
2023-08-01T17:31:48.518791,0.9999883770942688,-0.001913573476485908,-0.004327236209064722,-0.0009349917527288198,-0.14794921875,-0.0546875,1.03466796875
2023-08-01T17:31:48.525282,0.9999883770942688,-0.001913573476485908,-0.004327236209064722,-0.0009349917527288198,-0.150390625,-0.0517578125,1.0400390625
2023-08-01T17:31:48.526280,0.9999887943267822,-0.001913479994982481,-0.0042272694408893585,-0.0009351830231025815,-0.150390625,-0.0517578125,1.0400390625
2023-08-01T17:31:48.533261,0.9999887943267822,-0.001913479994982481,-0.0042272694408893585,-0.0009351830231025815,-0.15576171875,-0.0576171875,1.03466796875
2023-08-01T17:31:48.541239,0.9999887943267822,-0.001913479994982481,-0.0042272694408893585,-0.0009351830231025815,-0.15576171875,-0.0576171875,1.03466796875
2023-08-01T17:31:48.548221,0.9999887943267822,-0.001913479994982481,-0.0042272694408893585,-0.0009351830231025815,-0.150390625,-0.056640625,1.03076171875
2023-08-01T17:31:48.548221,0.9999887943267822,-0.001913479994982481,-0.0042272694408893585,-0.0009351830231025815,-0.150390625,-0.056640625,1.03076171875
2023-08-01T17:31:48.555202,0.9999887943267822,-0.001913479994982481,-0.0042272694408893585,-0.0009351830231025815,-0.146484375,-0.05126953125,1.02880859375
2023-08-01T17:31:48.556199,0.9999887943267822,-0.001913479994982481,-0.0042272694408893585,-0.0009351830231025815,-0.146484375,-0.05126953125,1.02880859375
2023-08-01T17:31:48.563181,0.9999887943267822,-0.001913479994982481,-0.0042272694408893585,-0.0009351830231025815,-0.14208984375,-0.0517578125,1.0302734375
2023-08-01T17:31:48.564196,0.9999887943267822,-0.001913479994982481,-0.0042272694408893585,-0.0009351830231025815,-0.14208984375,-0.0517578125,1.0302734375
2023-08-01T17:31:48.578142,0.9999887943267822,-0.001913479994982481,-0.0042272694408893585,-0.0009351830231025815,-0.13671875,-0.0537109375,1.03466796875
2023-08-01T17:31:48.579140,0.9999887943267822,-0.001913479994982481,-0.0042272694408893585,-0.0009351830231025815,-0.13671875,-0.0537109375,1.03466796875
2023-08-01T17:31:48.586119,0.9999887943267822,-0.001913479994982481,-0.0042272694408893585,-0.0009351830231025815,-0.13671875,-0.05517578125,1.04248046875
2023-08-01T17:31:48.586119,0.9999887943267822,-0.001913479994982481,-0.0042272694408893585,-0.0009351830231025815,-0.13671875,-0.05517578125,1.04248046875
2023-08-01T17:31:48.593101,0.9999887943267822,-0.001913479994982481,-0.0042272694408893585,-0.0009351830231025815,-0.13818359375,-0.05029296875,1.04150390625
2023-08-01T17:31:48.594100,0.9999887943267822,-0.001913479994982481,-0.0042272694408893585,-0.0009351830231025815,-0.13818359375,-0.05029296875,1.04150390625
2023-08-01T17:31:48.608064,0.9999887943267822,-0.001913479994982481,-0.0042272694408893585,-0.0009351830231025815,-0.14697265625,-0.05224609375,1.0361328125
2023-08-01T17:31:48.609061,0.9999887943267822,-0.001913479994982481,-0.0042272694408893585,-0.0009351830231025815,-0.14697265625,-0.05224609375,1.0361328125
2023-08-01T17:31:48.616043,0.9999887943267822,-0.001913479994982481,-0.0042272694408893585,-0.0009351830231025815,-0.146484375,-0.0537109375,1.03173828125
2023-08-01T17:31:48.623224,0.9999887943267822,-0.001913479994982481,-0.0042272694408893585,-0.0009351830231025815,-0.146484375,-0.0537109375,1.03173828125
2023-08-01T17:31:48.623224,0.9999887943267822,-0.001913479994982481,-0.0042272694408893585,-0.0009351830231025815,-0.14208984375,-0.05078125,1.029296875
2023-08-01T17:31:48.624222,0.9999887943267822,-0.001913479994982481,-0.0042272694408893585,-0.0009351830231025815,-0.14208984375,-0.05078125,1.029296875
2023-08-01T17:31:48.638183,0.9999887943267822,-0.001913479994982481,-0.0042272694408893585,-0.0009351830231025815,-0.14990234375,-0.05126953125,1.029296875
2023-08-01T17:31:48.638183,0.9999887943267822,-0.001913479994982481,-0.0042272694408893585,-0.0009351830231025815,-0.14990234375,-0.05126953125,1.029296875
2023-08-01T17:31:48.645164,0.9999887943267822,-0.001913479994982481,-0.0042272694408893585,-0.0009351830231025815,-0.15185546875,-0.05615234375,1.0322265625
2023-08-01T17:31:48.646161,0.9999887943267822,-0.001913479994982481,-0.0042272694408893585,-0.0009351830231025815,-0.15185546875,-0.05615234375,1.0322265625
2023-08-01T17:31:48.653143,0.9999887943267822,-0.001913479994982481,-0.0042272694408893585,-0.0009351830231025815,-0.14599609375,-0.0556640625,1.03466796875
2023-08-01T17:31:48.653143,0.9999887943267822,-0.001913479994982481,-0.0042272694408893585,-0.0009351830231025815,-0.14599609375,-0.0556640625,1.03466796875
2023-08-01T17:31:48.668105,0.9999887943267822,-0.001913479994982481,-0.0042272694408893585,-0.0009351830231025815,-0.1435546875,-0.0537109375,1.03662109375
2023-08-01T17:31:48.669101,0.9999885559082031,-0.0019135292386636138,-0.004279946908354759,-0.0009350822074338794,-0.1435546875,-0.0537109375,1.03662109375
2023-08-01T17:31:48.675087,0.9999885559082031,-0.0019135292386636138,-0.004279946908354759,-0.0009350822074338794,-0.13818359375,-0.0537109375,1.03759765625
2023-08-01T17:31:48.676082,0.999988317489624,-0.0019135784823447466,-0.00433262437582016,-0.0009349813917651772,-0.13818359375,-0.0537109375,1.03759765625
2023-08-01T17:31:48.683065,0.999988317489624,-0.0019135784823447466,-0.00433262437582016,-0.0009349813917651772,-0.1357421875,-0.0546875,1.0361328125
2023-08-01T17:31:48.684062,0.999988317489624,-0.0019135784823447466,-0.00433262437582016,-0.0009349813917651772,-0.1357421875,-0.0546875,1.0361328125
2023-08-01T17:31:48.698025,0.999988317489624,-0.0019135784823447466,-0.00433262437582016,-0.0009349813917651772,-0.142578125,-0.0517578125,1.0322265625
2023-08-01T17:31:48.699022,0.999988317489624,-0.0019135784823447466,-0.00433262437582016,-0.0009349813917651772,-0.142578125,-0.0517578125,1.0322265625
2023-08-01T17:31:48.706005,0.999988317489624,-0.0019135784823447466,-0.00433262437582016,-0.0009349813917651772,-0.1494140625,-0.05078125,1.03271484375
2023-08-01T17:31:48.706005,0.999988317489624,-0.0019135784823447466,-0.00433262437582016,-0.0009349813917651772,-0.1494140625,-0.05078125,1.03271484375
2023-08-01T17:31:48.712986,0.999988317489624,-0.0019135784823447466,-0.00433262437582016,-0.0009349813917651772,-0.14697265625,-0.0546875,1.0361328125
2023-08-01T17:31:48.713984,0.9999879598617554,-0.0019136572955176234,-0.0044168829917907715,-0.0009348201565444469,-0.14697265625,-0.0546875,1.0361328125
2023-08-01T17:31:48.728095,0.9999879598617554,-0.0019136572955176234,-0.0044168829917907715,-0.0009348201565444469,-0.13916015625,-0.0556640625,1.0361328125
2023-08-01T17:31:48.729094,0.9999874830245972,-0.0019137569470331073,-0.004523453768342733,-0.0009346161969006062,-0.13916015625,-0.0556640625,1.0361328125
2023-08-01T17:31:48.735076,0.9999874830245972,-0.0019137569470331073,-0.004523453768342733,-0.0009346161969006062,-0.13916015625,-0.05322265625,1.0380859375
2023-08-01T17:31:48.736073,0.9999871850013733,-0.0019138245843350887,-0.004595819860696793,-0.000934477720875293,-0.13916015625,-0.05322265625,1.0380859375
2023-08-01T17:31:48.743055,0.9999871850013733,-0.0019138245843350887,-0.004595819860696793,-0.000934477720875293,-0.142578125,-0.05322265625,1.03515625
2023-08-01T17:31:48.744053,0.9999868273735046,-0.001913898391649127,-0.004674815107136965,-0.0009343265555799007,-0.142578125,-0.05322265625,1.03515625
2023-08-01T17:31:48.758015,0.9999868273735046,-0.001913898391649127,-0.004674815107136965,-0.0009343265555799007,-0.14404296875,-0.0537109375,1.03369140625
2023-08-01T17:31:48.759012,0.9999865293502808,-0.0019139631185680628,-0.004744100850075483,-0.0009341939585283399,-0.14404296875,-0.0537109375,1.03369140625
2023-08-01T17:31:48.765993,0.9999865293502808,-0.0019139631185680628,-0.004744100850075483,-0.0009341939585283399,-0.138671875,-0.05615234375,1.0361328125
2023-08-01T17:31:48.765993,0.9999865293502808,-0.0019139631185680628,-0.004744100850075483,-0.0009341939585283399,-0.138671875,-0.05615234375,1.0361328125
2023-08-01T17:31:48.772976,0.9999865293502808,-0.0019139631185680628,-0.004744100850075483,-0.0009341939585283399,-0.140625,-0.05419921875,1.03369140625
2023-08-01T17:31:48.773972,0.9999865293502808,-0.0019139631185680628,-0.004744100850075483,-0.0009341939585283399,-0.140625,-0.05419921875,1.03369140625
2023-08-01T17:31:48.787934,0.9999865293502808,-0.0019139631185680628,-0.004744100850075483,-0.0009341939585283399,-0.14599609375,-0.0537109375,1.03369140625
2023-08-01T17:31:48.788931,0.9999865293502808,-0.0019139631185680628,-0.004744100850075483,-0.0009341939585283399,-0.14599609375,-0.0537109375,1.03369140625
2023-08-01T17:31:48.795913,0.9999865293502808,-0.0019139631185680628,-0.004744100850075483,-0.0009341939585283399,-0.14697265625,-0.0517578125,1.03466796875
2023-08-01T17:31:48.795913,0.9999865293502808,-0.0019139631185680628,-0.004744100850075483,-0.0009341939585283399,-0.14697265625,-0.0517578125,1.03466796875
2023-08-01T17:31:48.802903,0.9999865293502808,-0.0019139631185680628,-0.004744100850075483,-0.0009341939585283399,-0.14599609375,-0.0537109375,1.03662109375
2023-08-01T17:31:48.803900,0.9999865293502808,-0.0019139631185680628,-0.004744100850075483,-0.0009341939585283399,-0.14599609375,-0.0537109375,1.03662109375
2023-08-01T17:31:48.810882,0.9999865293502808,-0.0019139631185680628,-0.004744100850075483,-0.0009341939585283399,-0.1455078125,-0.05322265625,1.0380859375
2023-08-01T17:31:48.818313,0.9999860525131226,-0.001914051710627973,-0.004838886670768261,-0.0009340125252492726,-0.1455078125,-0.05322265625,1.0380859375
2023-08-01T17:31:48.825295,0.9999860525131226,-0.001914051710627973,-0.004838886670768261,-0.0009340125252492726,-0.1435546875,-0.05419921875,1.037109375
2023-08-01T17:31:48.826292,0.9999854564666748,-0.0019141697557643056,-0.004965254105627537,-0.0009337706724181771,-0.1435546875,-0.05419921875,1.037109375
2023-08-01T17:31:48.833273,0.9999854564666748,-0.0019141697557643056,-0.004965254105627537,-0.0009337706724181771,-0.1337890625,-0.0546875,1.03662109375
2023-08-01T17:31:48.833273,0.9999850988388062,-0.001914239372126758,-0.005039866082370281,-0.0009336278308182955,-0.1337890625,-0.0546875,1.03662109375
2023-08-01T17:31:48.840254,0.9999850988388062,-0.001914239372126758,-0.005039866082370281,-0.0009336278308182955,-0.12841796875,-0.05322265625,1.0361328125
2023-08-01T17:31:48.841252,0.9999850988388062,-0.001914239372126758,-0.005039866082370281,-0.0009336278308182955,-0.12841796875,-0.05322265625,1.0361328125
2023-08-01T17:31:48.855214,0.9999850988388062,-0.001914239372126758,-0.005039866082370281,-0.0009336278308182955,-0.13525390625,-0.0517578125,1.03759765625
2023-08-01T17:31:48.856212,0.99998539686203,-0.0019141804659739137,-0.0049767447635531425,-0.0009337486699223518,-0.13525390625,-0.0517578125,1.03759765625
2023-08-01T17:31:48.863193,0.99998539686203,-0.0019141804659739137,-0.0049767447635531425,-0.0009337486699223518,-0.14404296875,-0.0556640625,1.033203125
2023-08-01T17:31:48.863193,0.9999856352806091,-0.0019141313387081027,-0.00492415064945817,-0.0009338493691757321,-0.14404296875,-0.0556640625,1.033203125
2023-08-01T17:31:48.870175,0.9999856352806091,-0.0019141313387081027,-0.00492415064945817,-0.0009338493691757321,-0.14697265625,-0.0546875,1.037109375
2023-08-01T17:31:48.871172,0.9999856352806091,-0.0019141313387081027,-0.00492415064945817,-0.0009338493691757321,-0.14697265625,-0.0546875,1.037109375
2023-08-01T17:31:48.886133,0.9999856352806091,-0.0019141313387081027,-0.00492415064945817,-0.0009338493691757321,-0.14990234375,-0.0517578125,1.0361328125
2023-08-01T17:31:48.886133,0.9999856352806091,-0.0019141313387081027,-0.00492415064945817,-0.0009338493691757321,-0.14990234375,-0.0517578125,1.0361328125
2023-08-01T17:31:48.893112,0.9999856352806091,-0.0019141313387081027,-0.00492415064945817,-0.0009338493691757321,-0.150390625,-0.052734375,1.03466796875
2023-08-01T17:31:48.893112,0.9999856352806091,-0.0019141313387081027,-0.00492415064945817,-0.0009338493691757321,-0.150390625,-0.052734375,1.03466796875
2023-08-01T17:31:48.900093,0.9999856352806091,-0.0019141313387081027,-0.00492415064945817,-0.0009338493691757321,-0.14404296875,-0.05419921875,1.03271484375
2023-08-01T17:31:48.901091,0.9999853372573853,-0.0019141910597682,-0.004988109692931175,-0.0009337269584648311,-0.14404296875,-0.05419921875,1.03271484375
2023-08-01T17:31:48.916053,0.9999853372573853,-0.0019141910597682,-0.004988109692931175,-0.0009337269584648311,-0.1396484375,-0.05126953125,1.03466796875
2023-08-01T17:31:48.917052,0.9999853372573853,-0.0019141910597682,-0.004988109692931175,-0.0009337269584648311,-0.1396484375,-0.05126953125,1.03466796875
2023-08-01T17:31:48.923542,0.9999853372573853,-0.0019141910597682,-0.004988109692931175,-0.0009337269584648311,-0.14404296875,-0.052734375,1.03515625
2023-08-01T17:31:48.923542,0.9999850392341614,-0.0019142500823363662,-0.005051313899457455,-0.000933605944737792,-0.14404296875,-0.052734375,1.03515625
2023-08-01T17:31:48.930523,0.9999850392341614,-0.0019142500823363662,-0.005051313899457455,-0.000933605944737792,-0.14208984375,-0.05615234375,1.03662109375
2023-08-01T17:31:48.938502,0.9999847412109375,-0.0019143042154610157,-0.005109254736453295,-0.000933495000936091,-0.14208984375,-0.05615234375,1.03662109375
2023-08-01T17:31:48.945484,0.9999847412109375,-0.0019143042154610157,-0.005109254736453295,-0.000933495000936091,-0.13720703125,-0.05517578125,1.03759765625
2023-08-01T17:31:48.946481,0.9999844431877136,-0.0019143583485856652,-0.005167195573449135,-0.0009333840571343899,-0.13720703125,-0.05517578125,1.03759765625
2023-08-01T17:31:48.960444,0.9999844431877136,-0.0019143583485856652,-0.005167195573449135,-0.0009333840571343899,-0.14013671875,-0.0546875,1.0390625
2023-08-01T17:31:48.961442,0.9999844431877136,-0.0019143583485856652,-0.005167195573449135,-0.0009333840571343899,-0.14013671875,-0.0546875,1.0390625
2023-08-01T17:31:48.961442,0.9999844431877136,-0.0019143583485856652,-0.005167195573449135,-0.0009333840571343899,-0.1435546875,-0.056640625,1.03466796875
2023-08-01T17:31:48.968423,0.9999844431877136,-0.0019143583485856652,-0.005167195573449135,-0.0009333840571343899,-0.1435546875,-0.056640625,1.03466796875
2023-08-01T17:31:48.975403,0.9999844431877136,-0.0019143583485856652,-0.005167195573449135,-0.0009333840571343899,-0.14111328125,-0.05908203125,1.03515625
2023-08-01T17:31:48.976401,0.9999844431877136,-0.0019143583485856652,-0.005167195573449135,-0.0009333840571343899,-0.14111328125,-0.05908203125,1.03515625
2023-08-01T17:31:48.983382,0.9999844431877136,-0.0019143583485856652,-0.005167195573449135,-0.0009333840571343899,-0.13818359375,-0.05419921875,1.03369140625
2023-08-01T17:31:48.983382,0.9999844431877136,-0.0019143583485856652,-0.005167195573449135,-0.0009333840571343899,-0.13818359375,-0.05419921875,1.03369140625
2023-08-01T17:31:48.990380,0.9999844431877136,-0.0019143583485856652,-0.005167195573449135,-0.0009333840571343899,-0.14697265625,-0.052734375,1.033203125
2023-08-01T17:31:48.991361,0.9999844431877136,-0.0019143583485856652,-0.005167195573449135,-0.0009333840571343899,-0.14697265625,-0.052734375,1.033203125
2023-08-01T17:31:49.005324,0.9999844431877136,-0.0019143583485856652,-0.005167195573449135,-0.0009333840571343899,-0.14892578125,-0.05126953125,1.03466796875
2023-08-01T17:31:49.006322,0.9999840259552002,-0.0019144370453432202,-0.005251454189419746,-0.0009332227637059987,-0.14892578125,-0.05126953125,1.03466796875
2023-08-01T17:31:49.013303,0.9999840259552002,-0.0019144370453432202,-0.005251454189419746,-0.0009332227637059987,-0.14208984375,-0.0537109375,1.03466796875
2023-08-01T17:31:49.013303,0.999983549118042,-0.0019145056139677763,-0.005325185135006905,-0.0009330814937129617,-0.14208984375,-0.0537109375,1.03466796875
2023-08-01T17:31:49.020794,0.999983549118042,-0.0019145056139677763,-0.005325185135006905,-0.0009330814937129617,-0.13671875,-0.05615234375,1.03759765625
2023-08-01T17:31:49.020794,0.999983549118042,-0.0019145056139677763,-0.005325185135006905,-0.0009330814937129617,-0.13671875,-0.05615234375,1.03759765625
2023-08-01T17:31:49.035754,0.999983549118042,-0.0019145056139677763,-0.005325185135006905,-0.0009330814937129617,-0.14111328125,-0.05224609375,1.03662109375
2023-08-01T17:31:49.036752,0.999983549118042,-0.0019145056139677763,-0.005325185135006905,-0.0009330814937129617,-0.14111328125,-0.05224609375,1.03662109375
2023-08-01T17:31:49.043733,0.999983549118042,-0.0019145056139677763,-0.005325185135006905,-0.0009330814937129617,-0.14208984375,-0.05322265625,1.03466796875
2023-08-01T17:31:49.043733,0.999983549118042,-0.0019145056139677763,-0.005325185135006905,-0.0009330814937129617,-0.14208984375,-0.05322265625,1.03466796875
2023-08-01T17:31:49.050726,0.999983549118042,-0.0019145056139677763,-0.005325185135006905,-0.0009330814937129617,-0.13916015625,-0.0537109375,1.0380859375
2023-08-01T17:31:49.050726,0.9999831914901733,-0.0019145695259794593,-0.005393652711063623,-0.0009329504100605845,-0.13916015625,-0.0537109375,1.0380859375
2023-08-01T17:31:49.065673,0.9999831914901733,-0.0019145695259794593,-0.005393652711063623,-0.0009329504100605845,-0.13623046875,-0.0556640625,1.03759765625
2023-08-01T17:31:49.066684,0.9999831914901733,-0.0019145695259794593,-0.005393652711063623,-0.0009329504100605845,-0.13623046875,-0.0556640625,1.03759765625
2023-08-01T17:31:49.073652,0.9999831914901733,-0.0019145695259794593,-0.005393652711063623,-0.0009329504100605845,-0.13427734375,-0.05322265625,1.0380859375
2023-08-01T17:31:49.073652,0.9999831914901733,-0.0019145695259794593,-0.005393652711063623,-0.0009329504100605845,-0.13427734375,-0.05322265625,1.0380859375
2023-08-01T17:31:49.080634,0.9999831914901733,-0.0019145695259794593,-0.005393652711063623,-0.0009329504100605845,-0.1357421875,-0.0537109375,1.0341796875
2023-08-01T17:31:49.080634,0.9999831914901733,-0.0019145695259794593,-0.005393652711063623,-0.0009329504100605845,-0.1357421875,-0.0537109375,1.0341796875
2023-08-01T17:31:49.087615,0.9999831914901733,-0.0019145695259794593,-0.005393652711063623,-0.0009329504100605845,-0.14208984375,-0.05615234375,1.0322265625
2023-08-01T17:31:49.095594,0.9999831914901733,-0.0019145695259794593,-0.005393652711063623,-0.0009329504100605845,-0.14208984375,-0.05615234375,1.0322265625
2023-08-01T17:31:49.103575,0.9999831914901733,-0.0019145695259794593,-0.005393652711063623,-0.0009329504100605845,-0.14208984375,-0.0546875,1.03466796875
2023-08-01T17:31:49.103575,0.9999831914901733,-0.0019145695259794593,-0.005393652711063623,-0.0009329504100605845,-0.14208984375,-0.0546875,1.03466796875
2023-08-01T17:31:49.110555,0.9999831914901733,-0.0019145695259794593,-0.005393652711063623,-0.0009329504100605845,-0.14306640625,-0.05322265625,1.03662109375
2023-08-01T17:31:49.111553,0.9999831914901733,-0.0019145695259794593,-0.005393652711063623,-0.0009329504100605845,-0.14306640625,-0.05322265625,1.03662109375
2023-08-01T17:31:49.118642,0.9999831914901733,-0.0019145695259794593,-0.005393652711063623,-0.0009329504100605845,-0.14697265625,-0.0546875,1.03564453125
2023-08-01T17:31:49.125635,0.9999831914901733,-0.0019145695259794593,-0.005393652711063623,-0.0009329504100605845,-0.14697265625,-0.0546875,1.03564453125
2023-08-01T17:31:49.133601,0.9999831914901733,-0.0019145695259794593,-0.005393652711063623,-0.0009329504100605845,-0.146484375,-0.0556640625,1.0361328125
2023-08-01T17:31:49.133601,0.9999828934669495,-0.0019146186532452703,-0.005446329712867737,-0.0009328495361842215,-0.146484375,-0.0556640625,1.0361328125
2023-08-01T17:31:49.140597,0.9999828934669495,-0.0019146186532452703,-0.005446329712867737,-0.0009328495361842215,-0.142578125,-0.0517578125,1.03564453125
2023-08-01T17:31:49.141581,0.9999823570251465,-0.0019147120183333755,-0.005546378903090954,-0.0009326579747721553,-0.142578125,-0.0517578125,1.03564453125
2023-08-01T17:31:49.148583,0.9999823570251465,-0.0019147120183333755,-0.005546378903090954,-0.0009326579747721553,-0.13916015625,-0.0546875,1.03466796875
2023-08-01T17:31:49.148583,0.9999819397926331,-0.0019147808197885752,-0.005620110314339399,-0.0009325168211944401,-0.13916015625,-0.0546875,1.03466796875
2023-08-01T17:31:49.163529,0.9999819397926331,-0.0019147808197885752,-0.005620110314339399,-0.0009325168211944401,-0.1337890625,-0.0556640625,1.0361328125
2023-08-01T17:31:49.163529,0.9999819397926331,-0.0019147808197885752,-0.005620110314339399,-0.0009325168211944401,-0.1337890625,-0.0556640625,1.0361328125
2023-08-01T17:31:49.170502,0.9999819397926331,-0.0019147808197885752,-0.005620110314339399,-0.0009325168211944401,-0.13525390625,-0.05322265625,1.0361328125
2023-08-01T17:31:49.171501,0.9999819397926331,-0.0019147808197885752,-0.005620110314339399,-0.0009325168211944401,-0.13525390625,-0.05322265625,1.0361328125
2023-08-01T17:31:49.178481,0.9999819397926331,-0.0019147808197885752,-0.005620110314339399,-0.0009325168211944401,-0.1416015625,-0.05322265625,1.03369140625
2023-08-01T17:31:49.178481,0.9999819397926331,-0.0019147808197885752,-0.005620110314339399,-0.0009325168211944401,-0.1416015625,-0.05322265625,1.03369140625
2023-08-01T17:31:49.193441,0.9999819397926331,-0.0019147808197885752,-0.005620110314339399,-0.0009325168211944401,-0.138671875,-0.052734375,1.033203125
2023-08-01T17:31:49.193441,0.9999819397926331,-0.0019147808197885752,-0.005620110314339399,-0.0009325168211944401,-0.138671875,-0.052734375,1.033203125
2023-08-01T17:31:49.200422,0.9999819397926331,-0.0019147808197885752,-0.005620110314339399,-0.0009325168211944401,-0.134765625,-0.05517578125,1.03515625
2023-08-01T17:31:49.201420,0.9999822378158569,-0.001914731808938086,-0.005567516200244427,-0.0009326175204478204,-0.134765625,-0.05517578125,1.03515625
2023-08-01T17:31:49.208405,0.9999822378158569,-0.001914731808938086,-0.005567516200244427,-0.0009326175204478204,-0.1376953125,-0.05615234375,1.0361328125
2023-08-01T17:31:49.208405,0.9999822378158569,-0.001914731808938086,-0.005567516200244427,-0.0009326175204478204,-0.1376953125,-0.05615234375,1.0361328125
2023-08-01T17:31:49.222882,0.9999822378158569,-0.001914731808938086,-0.005567516200244427,-0.0009326175204478204,-0.138671875,-0.05322265625,1.0400390625
2023-08-01T17:31:49.223879,0.9999822378158569,-0.001914731808938086,-0.005567516200244427,-0.0009326175204478204,-0.138671875,-0.05322265625,1.0400390625
2023-08-01T17:31:49.230862,0.9999822378158569,-0.001914731808938086,-0.005567516200244427,-0.0009326175204478204,-0.138671875,-0.0546875,1.03564453125
2023-08-01T17:31:49.230862,0.9999826550483704,-0.0019146631238982081,-0.005493868142366409,-0.0009327585576102138,-0.138671875,-0.0546875,1.03564453125
2023-08-01T17:31:49.238839,0.9999826550483704,-0.0019146631238982081,-0.005493868142366409,-0.0009327585576102138,-0.14697265625,-0.05224609375,1.033203125
2023-08-01T17:31:49.238839,0.9999830722808838,-0.001914588618092239,-0.005414014216512442,-0.0009329114691354334,-0.14697265625,-0.05224609375,1.033203125
2023-08-01T17:31:49.252801,0.9999830722808838,-0.001914588618092239,-0.005414014216512442,-0.0009329114691354334,-0.14599609375,-0.05517578125,1.033203125
2023-08-01T17:31:49.253798,0.9999834299087524,-0.0019145248224958777,-0.005345629528164864,-0.0009330423781648278,-0.14599609375,-0.05517578125,1.033203125
2023-08-01T17:31:49.260780,0.9999834299087524,-0.0019145248224958777,-0.005345629528164864,-0.0009330423781648278,-0.13916015625,-0.05419921875,1.033203125
2023-08-01T17:31:49.260780,0.9999839663505554,-0.0019144315738230944,-0.005245663225650787,-0.0009332337649539113,-0.13916015625,-0.05419921875,1.033203125
2023-08-01T17:31:49.267761,0.9999839663505554,-0.0019144315738230944,-0.005245663225650787,-0.0009332337649539113,-0.14013671875,-0.05224609375,1.0361328125
2023-08-01T17:31:49.268759,0.9999843239784241,-0.0019143628887832165,-0.005172014702111483,-0.0009333747439086437,-0.14013671875,-0.05224609375,1.0361328125
2023-08-01T17:31:49.282723,0.9999843239784241,-0.0019143628887832165,-0.005172014702111483,-0.0009333747439086437,-0.142578125,-0.0537109375,1.0390625
2023-08-01T17:31:49.283719,0.9999843239784241,-0.0019143628887832165,-0.005172014702111483,-0.0009333747439086437,-0.142578125,-0.0537109375,1.0390625
2023-08-01T17:31:49.290700,0.9999843239784241,-0.0019143628887832165,-0.005172014702111483,-0.0009333747439086437,-0.14013671875,-0.05517578125,1.04052734375
2023-08-01T17:31:49.290700,0.9999844431877136,-0.001851196982897818,-0.005172073841094971,-0.0009330480243079364,-0.14013671875,-0.05517578125,1.04052734375
2023-08-01T17:31:49.298678,0.9999844431877136,-0.001851196982897818,-0.005172073841094971,-0.0009330480243079364,-0.134765625,-0.05517578125,1.0380859375
2023-08-01T17:31:49.298678,0.999984860420227,-0.0017932356568053365,-0.00510900653898716,-0.00093286536866799,-0.134765625,-0.05517578125,1.0380859375
2023-08-01T17:31:49.313641,0.999984860420227,-0.0017932356568053365,-0.00510900653898716,-0.00093286536866799,-0.1357421875,-0.0517578125,1.0341796875
2023-08-01T17:31:49.313641,0.99998539686203,-0.0017931412439793348,-0.005007846746593714,-0.0009330468019470572,-0.1357421875,-0.0517578125,1.0341796875
2023-08-01T17:31:49.328117,0.99998539686203,-0.0017931412439793348,-0.005007846746593714,-0.0009330468019470572,-0.142578125,-0.052734375,1.03173828125
2023-08-01T17:31:49.328117,0.9999857544898987,-0.0017930774483829737,-0.004939462058246136,-0.0009331694454886019,-0.142578125,-0.052734375,1.03173828125
2023-08-01T17:31:49.329116,0.9999857544898987,-0.0017930774483829737,-0.004939462058246136,-0.0009331694454886019,-0.146484375,-0.05517578125,1.033203125
2023-08-01T17:31:49.336098,0.9999860525131226,-0.0017930185422301292,-0.004876340739428997,-0.0009332826011814177,-0.146484375,-0.05517578125,1.033203125
2023-08-01T17:31:49.343111,0.9999860525131226,-0.0017930185422301292,-0.004876340739428997,-0.0009332826011814177,-0.14697265625,-0.05322265625,1.0341796875
2023-08-01T17:31:49.343111,0.9999860525131226,-0.0017930185422301292,-0.004876340739428997,-0.0009332826011814177,-0.14697265625,-0.05322265625,1.0341796875
2023-08-01T17:31:49.351057,0.9999860525131226,-0.0017930185422301292,-0.004876340739428997,-0.0009332826011814177,-0.1494140625,-0.05126953125,1.03271484375
2023-08-01T17:31:49.351057,0.9999860525131226,-0.0017930185422301292,-0.004876340739428997,-0.0009332826011814177,-0.1494140625,-0.05126953125,1.03271484375
2023-08-01T17:31:49.358038,0.9999860525131226,-0.0017930185422301292,-0.004876340739428997,-0.0009332826011814177,-0.14697265625,-0.05224609375,1.03173828125
2023-08-01T17:31:49.358038,0.9999860525131226,-0.0017930185422301292,-0.004876340739428997,-0.0009332826011814177,-0.14697265625,-0.05224609375,1.03173828125
2023-08-01T17:31:49.372998,0.9999860525131226,-0.0017930185422301292,-0.004876340739428997,-0.0009332826011814177,-0.14599609375,-0.05224609375,1.033203125
2023-08-01T17:31:49.373995,0.9999855756759644,-0.0017931070178747177,-0.004971126560121775,-0.0009331126348115504,-0.14599609375,-0.05224609375,1.033203125
2023-08-01T17:31:49.380976,0.9999855756759644,-0.0017931070178747177,-0.004971126560121775,-0.0009331126348115504,-0.14306640625,-0.05224609375,1.037109375
2023-08-01T17:31:49.380976,0.9999851584434509,-0.001793185598216951,-0.005055385176092386,-0.000932961527723819,-0.14306640625,-0.05224609375,1.037109375
2023-08-01T17:31:49.387958,0.9999851584434509,-0.001793185598216951,-0.005055385176092386,-0.000932961527723819,-0.138671875,-0.056640625,1.0380859375
2023-08-01T17:31:49.388956,0.9999851584434509,-0.001793185598216951,-0.005055385176092386,-0.000932961527723819,-0.138671875,-0.056640625,1.0380859375
2023-08-01T17:31:49.395936,0.9999851584434509,-0.001793185598216951,-0.005055385176092386,-0.000932961527723819,-0.13818359375,-0.056640625,1.0380859375
2023-08-01T17:31:49.404916,0.9999851584434509,-0.001793185598216951,-0.005055385176092386,-0.000932961527723819,-0.13818359375,-0.056640625,1.0380859375
2023-08-01T17:31:49.410901,0.9999851584434509,-0.001793185598216951,-0.005055385176092386,-0.000932961527723819,-0.140625,-0.05322265625,1.03564453125
2023-08-01T17:31:49.411898,0.9999851584434509,-0.001793185598216951,-0.005055385176092386,-0.000932961527723819,-0.140625,-0.05322265625,1.03564453125
2023-08-01T17:31:49.419392,0.9999851584434509,-0.001793185598216951,-0.005055385176092386,-0.000932961527723819,-0.14013671875,-0.0537109375,1.0322265625
2023-08-01T17:31:49.420389,0.9999851584434509,-0.001793185598216951,-0.005055385176092386,-0.000932961527723819,-0.14013671875,-0.0537109375,1.0322265625
2023-08-01T17:31:49.426373,0.9999851584434509,-0.001793185598216951,-0.005055385176092386,-0.000932961527723819,-0.13720703125,-0.0537109375,1.033203125
2023-08-01T17:31:49.426373,0.9999851584434509,-0.001793185598216951,-0.005055385176092386,-0.000932961527723819,-0.13720703125,-0.0537109375,1.033203125
2023-08-01T17:31:49.443329,0.9999851584434509,-0.001793185598216951,-0.005055385176092386,-0.000932961527723819,-0.14306640625,-0.05322265625,1.03125
2023-08-01T17:31:49.443329,0.9999851584434509,-0.001793185598216951,-0.005055385176092386,-0.000932961527723819,-0.14306640625,-0.05322265625,1.03125
2023-08-01T17:31:49.448314,0.9999851584434509,-0.001793185598216951,-0.005055385176092386,-0.000932961527723819,-0.150390625,-0.05322265625,1.0341796875
2023-08-01T17:31:49.449312,0.9999851584434509,-0.001793185598216951,-0.005055385176092386,-0.000932961527723819,-0.150390625,-0.05322265625,1.0341796875
2023-08-01T17:31:49.457291,0.9999851584434509,-0.001793185598216951,-0.005055385176092386,-0.000932961527723819,-0.14404296875,-0.052734375,1.0380859375
2023-08-01T17:31:49.458288,0.9999851584434509,-0.001793185598216951,-0.005055385176092386,-0.000932961527723819,-0.14404296875,-0.052734375,1.0380859375
2023-08-01T17:31:49.470256,0.9999851584434509,-0.001793185598216951,-0.005055385176092386,-0.000932961527723819,-0.1396484375,-0.05419921875,1.0380859375
2023-08-01T17:31:49.471253,0.9999851584434509,-0.001793185598216951,-0.005055385176092386,-0.000932961527723819,-0.1396484375,-0.05419921875,1.0380859375
2023-08-01T17:31:49.478234,0.9999851584434509,-0.001793185598216951,-0.005055385176092386,-0.000932961527723819,-0.1396484375,-0.05224609375,1.03515625
2023-08-01T17:31:49.479232,0.9999851584434509,-0.001793185598216951,-0.005055385176092386,-0.000932961527723819,-0.1396484375,-0.05224609375,1.03515625
2023-08-01T17:31:49.485216,0.9999851584434509,-0.001793185598216951,-0.005055385176092386,-0.000932961527723819,-0.1396484375,-0.05224609375,1.033203125
2023-08-01T17:31:49.487210,0.9999851584434509,-0.001793185598216951,-0.005055385176092386,-0.000932961527723819,-0.1396484375,-0.05224609375,1.033203125
2023-08-01T17:31:49.500175,0.9999851584434509,-0.001793185598216951,-0.005055385176092386,-0.000932961527723819,-0.13818359375,-0.05322265625,1.0322265625
2023-08-01T17:31:49.501173,0.9999851584434509,-0.001793185598216951,-0.005055385176092386,-0.000932961527723819,-0.13818359375,-0.05322265625,1.0322265625
2023-08-01T17:31:49.508159,0.9999851584434509,-0.001793185598216951,-0.005055385176092386,-0.000932961527723819,-0.14111328125,-0.052734375,1.0341796875
2023-08-01T17:31:49.509156,0.999984860420227,-0.0017932396149262786,-0.005113326013088226,-0.0009328576270490885,-0.14111328125,-0.052734375,1.0341796875
2023-08-01T17:31:49.516139,0.999984860420227,-0.0017932396149262786,-0.005113326013088226,-0.0009328576270490885,-0.138671875,-0.052734375,1.03759765625
2023-08-01T17:31:49.516139,0.9999844431877136,-0.0017933191265910864,-0.005198590457439423,-0.0009327047155238688,-0.138671875,-0.052734375,1.03759765625
2023-08-01T17:31:49.530611,0.9999844431877136,-0.0017933191265910864,-0.005198590457439423,-0.0009327047155238688,-0.138671875,-0.05615234375,1.03515625
2023-08-01T17:31:49.530611,0.9999844431877136,-0.0017933191265910864,-0.005198590457439423,-0.0009327047155238688,-0.138671875,-0.05615234375,1.03515625
2023-08-01T17:31:49.538590,0.9999844431877136,-0.0017933191265910864,-0.005198590457439423,-0.0009327047155238688,-0.13916015625,-0.0556640625,1.03662109375
2023-08-01T17:31:49.538590,0.9999844431877136,-0.0017933191265910864,-0.005198590457439423,-0.0009327047155238688,-0.13916015625,-0.0556640625,1.03662109375
2023-08-01T17:31:49.545571,0.9999844431877136,-0.0017933191265910864,-0.005198590457439423,-0.0009327047155238688,-0.14306640625,-0.05224609375,1.0361328125
2023-08-01T17:31:49.545571,0.9999844431877136,-0.0017933191265910864,-0.005198590457439423,-0.0009327047155238688,-0.14306640625,-0.05224609375,1.0361328125
2023-08-01T17:31:49.568510,0.9999844431877136,-0.0017933191265910864,-0.005198590457439423,-0.0009327047155238688,-0.14501953125,-0.052734375,1.0341796875
2023-08-01T17:31:49.568510,0.9999844431877136,-0.0017933191265910864,-0.005198590457439423,-0.0009327047155238688,-0.14501953125,-0.052734375,1.0341796875
2023-08-01T17:31:49.569508,0.9999844431877136,-0.0017933191265910864,-0.005198590457439423,-0.0009327047155238688,-0.1416015625,-0.05419921875,1.0341796875
2023-08-01T17:31:49.575491,0.9999844431877136,-0.0017933191265910864,-0.005198590457439423,-0.0009327047155238688,-0.1416015625,-0.05419921875,1.0341796875
2023-08-01T17:31:49.576489,0.9999844431877136,-0.0017933191265910864,-0.005198590457439423,-0.0009327047155238688,-0.140625,-0.052734375,1.03564453125
2023-08-01T17:31:49.576489,0.9999844431877136,-0.0017933191265910864,-0.005198590457439423,-0.0009327047155238688,-0.140625,-0.052734375,1.03564453125
2023-08-01T17:31:49.590451,0.9999844431877136,-0.0017933191265910864,-0.005198590457439423,-0.0009327047155238688,-0.1435546875,-0.0537109375,1.03515625
2023-08-01T17:31:49.591448,0.9999844431877136,-0.0017933191265910864,-0.005198590457439423,-0.0009327047155238688,-0.1435546875,-0.0537109375,1.03515625
2023-08-01T17:31:49.597861,0.9999844431877136,-0.0017933191265910864,-0.005198590457439423,-0.0009327047155238688,-0.14306640625,-0.05322265625,1.03955078125
2023-08-01T17:31:49.598860,0.9999844431877136,-0.0017933191265910864,-0.005198590457439423,-0.0009327047155238688,-0.14306640625,-0.05322265625,1.03955078125
2023-08-01T17:31:49.605841,0.9999844431877136,-0.0017933191265910864,-0.005198590457439423,-0.0009327047155238688,-0.14306640625,-0.0537109375,1.041015625
2023-08-01T17:31:49.605841,0.9999844431877136,-0.0017933191265910864,-0.005198590457439423,-0.0009327047155238688,-0.14306640625,-0.0537109375,1.041015625
2023-08-01T17:31:49.621032,0.9999844431877136,-0.0017933191265910864,-0.005198590457439423,-0.0009327047155238688,-0.1416015625,-0.05615234375,1.03759765625
2023-08-01T17:31:49.621032,0.9999844431877136,-0.0017933191265910864,-0.005198590457439423,-0.0009327047155238688,-0.1416015625,-0.05615234375,1.03759765625
2023-08-01T17:31:49.628014,0.9999844431877136,-0.0017933191265910864,-0.005198590457439423,-0.0009327047155238688,-0.1337890625,-0.0556640625,1.03271484375
2023-08-01T17:31:49.629011,0.9999844431877136,-0.0017933191265910864,-0.005198590457439423,-0.0009327047155238688,-0.1337890625,-0.0556640625,1.03271484375
2023-08-01T17:31:49.635992,0.9999844431877136,-0.0017933191265910864,-0.005198590457439423,-0.0009327047155238688,-0.13916015625,-0.05078125,1.03173828125
2023-08-01T17:31:49.635992,0.9999844431877136,-0.0017933191265910864,-0.005198590457439423,-0.0009327047155238688,-0.13916015625,-0.05078125,1.03173828125
2023-08-01T17:31:49.650954,0.9999844431877136,-0.0017933191265910864,-0.005198590457439423,-0.0009327047155238688,-0.142578125,-0.0517578125,1.0322265625
2023-08-01T17:31:49.650954,0.9999844431877136,-0.0017933191265910864,-0.005198590457439423,-0.0009327047155238688,-0.142578125,-0.0517578125,1.0322265625
2023-08-01T17:31:49.657935,0.9999844431877136,-0.0017933191265910864,-0.005198590457439423,-0.0009327047155238688,-0.14111328125,-0.0556640625,1.03515625
2023-08-01T17:31:49.658932,0.9999844431877136,-0.0017933191265910864,-0.005198590457439423,-0.0009327047155238688,-0.14111328125,-0.0556640625,1.03515625
2023-08-01T17:31:49.672915,0.9999844431877136,-0.0017933191265910864,-0.005198590457439423,-0.0009327047155238688,-0.1396484375,-0.05322265625,1.037109375
2023-08-01T17:31:49.680896,0.9999844431877136,-0.0017933191265910864,-0.005198590457439423,-0.0009327047155238688,-0.1396484375,-0.05322265625,1.037109375
2023-08-01T17:31:49.680896,0.9999844431877136,-0.0017933191265910864,-0.005198590457439423,-0.0009327047155238688,-0.14892578125,-0.052734375,1.03564453125
2023-08-01T17:31:49.681870,0.9999844431877136,-0.0017933191265910864,-0.005198590457439423,-0.0009327047155238688,-0.14892578125,-0.052734375,1.03564453125
2023-08-01T17:31:49.687854,0.9999844431877136,-0.0017933191265910864,-0.005198590457439423,-0.0009327047155238688,-0.150390625,-0.05224609375,1.03466796875
2023-08-01T17:31:49.688853,0.9999841451644897,-0.0017933682538568974,-0.005251267459243536,-0.0009326102444902062,-0.150390625,-0.05224609375,1.03466796875
2023-08-01T17:31:49.695834,0.9999841451644897,-0.0017933682538568974,-0.005251267459243536,-0.0009326102444902062,-0.14111328125,-0.0537109375,1.03662109375
2023-08-01T17:31:49.695834,0.9999836087226868,-0.0017934665083885193,-0.005356580018997192,-0.000932421360630542,-0.14111328125,-0.0537109375,1.03662109375
2023-08-01T17:31:49.710796,0.9999836087226868,-0.0017934665083885193,-0.005356580018997192,-0.000932421360630542,-0.13525390625,-0.05615234375,1.0361328125
2023-08-01T17:31:49.710796,0.9999836087226868,-0.0017934665083885193,-0.005356580018997192,-0.000932421360630542,-0.13525390625,-0.05615234375,1.0361328125
2023-08-01T17:31:49.717777,0.9999836087226868,-0.0017934665083885193,-0.005356580018997192,-0.000932421360630542,-0.13330078125,-0.0546875,1.0341796875
2023-08-01T17:31:49.718773,0.9999836087226868,-0.0017934665083885193,-0.005356580018997192,-0.000932421360630542,-0.13330078125,-0.0546875,1.0341796875
2023-08-01T17:31:49.725239,0.9999836087226868,-0.0017934665083885193,-0.005356580018997192,-0.000932421360630542,-0.13720703125,-0.052734375,1.033203125
2023-08-01T17:31:49.726236,0.9999836087226868,-0.0017934665083885193,-0.005356580018997192,-0.000932421360630542,-0.13720703125,-0.052734375,1.033203125
2023-08-01T17:31:49.733217,0.9999836087226868,-0.0017934665083885193,-0.005356580018997192,-0.000932421360630542,-0.14111328125,-0.0537109375,1.0322265625
2023-08-01T17:31:49.733217,0.9999836087226868,-0.0017934665083885193,-0.005356580018997192,-0.000932421360630542,-0.14111328125,-0.0537109375,1.0322265625
2023-08-01T17:31:49.748178,0.9999836087226868,-0.0017934665083885193,-0.005356580018997192,-0.000932421360630542,-0.14306640625,-0.0546875,1.033203125
2023-08-01T17:31:49.748178,0.9999836087226868,-0.0017934665083885193,-0.005356580018997192,-0.000932421360630542,-0.14306640625,-0.0546875,1.033203125
2023-08-01T17:31:49.755159,0.9999836087226868,-0.0017934665083885193,-0.005356580018997192,-0.000932421360630542,-0.1416015625,-0.05517578125,1.04248046875
2023-08-01T17:31:49.756157,0.9999836087226868,-0.0017934665083885193,-0.005356580018997192,-0.000932421360630542,-0.1416015625,-0.05517578125,1.04248046875
2023-08-01T17:31:49.763138,0.9999836087226868,-0.0017934665083885193,-0.005356580018997192,-0.000932421360630542,-0.13720703125,-0.04931640625,1.03271484375
2023-08-01T17:31:49.763138,0.9999836087226868,-0.0017934665083885193,-0.005356580018997192,-0.000932421360630542,-0.13720703125,-0.04931640625,1.03271484375
2023-08-01T17:31:49.778098,0.9999836087226868,-0.0017934665083885193,-0.005356580018997192,-0.000932421360630542,-0.146484375,-0.0556640625,1.03662109375
2023-08-01T17:31:49.778098,0.9999836087226868,-0.0017934665083885193,-0.005356580018997192,-0.000932421360630542,-0.146484375,-0.0556640625,1.03662109375
2023-08-01T17:31:49.785079,0.9999836087226868,-0.0017934665083885193,-0.005356580018997192,-0.000932421360630542,-0.14306640625,-0.0546875,1.03759765625
2023-08-01T17:31:49.786076,0.9999836087226868,-0.0017934665083885193,-0.005356580018997192,-0.000932421360630542,-0.14306640625,-0.0546875,1.03759765625
2023-08-01T17:31:49.793058,0.9999836087226868,-0.0017934665083885193,-0.005356580018997192,-0.000932421360630542,-0.13916015625,-0.0517578125,1.03759765625
2023-08-01T17:31:49.793058,0.9999836087226868,-0.0017934665083885193,-0.005356580018997192,-0.000932421360630542,-0.13916015625,-0.0517578125,1.03759765625
2023-08-01T17:31:49.808020,0.9999836087226868,-0.0017934665083885193,-0.005356580018997192,-0.000932421360630542,-0.14208984375,-0.05517578125,1.03564453125
2023-08-01T17:31:49.809019,0.9999833106994629,-0.0017935156356543303,-0.005409257020801306,-0.0009323268895968795,-0.14208984375,-0.05517578125,1.03564453125
2023-08-01T17:31:49.815999,0.9999833106994629,-0.0017935156356543303,-0.005409257020801306,-0.0009323268895968795,-0.138671875,-0.0537109375,1.033203125
2023-08-01T17:31:49.815999,0.9999833106994629,-0.0017935156356543303,-0.005409257020801306,-0.0009323268895968795,-0.138671875,-0.0537109375,1.033203125
2023-08-01T17:31:49.823485,0.9999833106994629,-0.0017935156356543303,-0.005409257020801306,-0.0009323268895968795,-0.13427734375,-0.0537109375,1.03466796875
2023-08-01T17:31:49.823485,0.9999833106994629,-0.0017935156356543303,-0.005409257020801306,-0.0009323268895968795,-0.13427734375,-0.0537109375,1.03466796875
2023-08-01T17:31:49.838446,0.9999833106994629,-0.0017935156356543303,-0.005409257020801306,-0.0009323268895968795,-0.14013671875,-0.0556640625,1.03369140625
2023-08-01T17:31:49.838446,0.9999833106994629,-0.0017935156356543303,-0.005409257020801306,-0.0009323268895968795,-0.14013671875,-0.0556640625,1.03369140625
2023-08-01T17:31:49.845426,0.9999833106994629,-0.0017935156356543303,-0.005409257020801306,-0.0009323268895968795,-0.14404296875,-0.0556640625,1.033203125
2023-08-01T17:31:49.846424,0.9999833106994629,-0.0017935156356543303,-0.005409257020801306,-0.0009323268895968795,-0.14404296875,-0.0556640625,1.033203125
2023-08-01T17:31:49.853405,0.9999833106994629,-0.0017935156356543303,-0.005409257020801306,-0.0009323268895968795,-0.14404296875,-0.05419921875,1.03271484375
2023-08-01T17:31:49.853405,0.9999833106994629,-0.0017935156356543303,-0.005409257020801306,-0.0009323268895968795,-0.14404296875,-0.05419921875,1.03271484375
2023-08-01T17:31:49.868366,0.9999833106994629,-0.0017935156356543303,-0.005409257020801306,-0.0009323268895968795,-0.14453125,-0.05126953125,1.03857421875
2023-08-01T17:31:49.869363,0.9999833106994629,-0.0017935156356543303,-0.005409257020801306,-0.0009323268895968795,-0.14453125,-0.05126953125,1.03857421875
2023-08-01T17:31:49.875347,0.9999833106994629,-0.0017935156356543303,-0.005409257020801306,-0.0009323268895968795,-0.14794921875,-0.0537109375,1.04052734375
2023-08-01T17:31:49.876346,0.999983012676239,-0.0017935647629201412,-0.005461934022605419,-0.0009322324185632169,-0.14794921875,-0.0537109375,1.04052734375
2023-08-01T17:31:49.883325,0.999983012676239,-0.0017935647629201412,-0.005461934022605419,-0.0009322324185632169,-0.142578125,-0.0537109375,1.0380859375
2023-08-01T17:31:49.883325,0.999983012676239,-0.0017935647629201412,-0.005461934022605419,-0.0009322324185632169,-0.142578125,-0.0537109375,1.0380859375
2023-08-01T17:31:49.898287,0.999983012676239,-0.0017935647629201412,-0.005461934022605419,-0.0009322324185632169,-0.134765625,-0.0517578125,1.03515625
2023-08-01T17:31:49.898287,0.999983012676239,-0.0017935647629201412,-0.005461934022605419,-0.0009322324185632169,-0.134765625,-0.0517578125,1.03515625
2023-08-01T17:31:49.913248,0.999983012676239,-0.0017935647629201412,-0.005461934022605419,-0.0009322324185632169,-0.13671875,-0.05224609375,1.03076171875
2023-08-01T17:31:49.913248,0.999983012676239,-0.0017935647629201412,-0.005461934022605419,-0.0009322324185632169,-0.13671875,-0.05224609375,1.03076171875
2023-08-01T17:31:49.914247,0.999983012676239,-0.0017935647629201412,-0.005461934022605419,-0.0009322324185632169,-0.1416015625,-0.05517578125,1.03076171875
2023-08-01T17:31:49.920736,0.9999827146530151,-0.001793618779629469,-0.005519874859601259,-0.0009321285178884864,-0.1416015625,-0.05517578125,1.03076171875
2023-08-01T17:31:49.927718,0.9999827146530151,-0.001793618779629469,-0.005519874859601259,-0.0009321285178884864,-0.138671875,-0.05615234375,1.03466796875
2023-08-01T17:31:49.928715,0.9999827146530151,-0.001793618779629469,-0.005519874859601259,-0.0009321285178884864,-0.138671875,-0.05615234375,1.03466796875
2023-08-01T17:31:49.935376,0.9999827146530151,-0.001793618779629469,-0.005519874859601259,-0.0009321285178884864,-0.13916015625,-0.052734375,1.03662109375
2023-08-01T17:31:49.936377,0.9999827146530151,-0.001793618779629469,-0.005519874859601259,-0.0009321285178884864,-0.13916015625,-0.052734375,1.03662109375
2023-08-01T17:31:49.943357,0.9999827146530151,-0.001793618779629469,-0.005519874859601259,-0.0009321285178884864,-0.1416015625,-0.05322265625,1.041015625
2023-08-01T17:31:49.943357,0.9999827146530151,-0.001793618779629469,-0.005519874859601259,-0.0009321285178884864,-0.1416015625,-0.05322265625,1.041015625
2023-08-01T17:31:49.950338,0.9999827146530151,-0.001793618779629469,-0.005519874859601259,-0.0009321285178884864,-0.1416015625,-0.05419921875,1.04150390625
2023-08-01T17:31:49.958318,0.9999827146530151,-0.001793618779629469,-0.005519874859601259,-0.0009321285178884864,-0.1416015625,-0.05419921875,1.04150390625
2023-08-01T17:31:49.965300,0.9999827146530151,-0.001793618779629469,-0.005519874859601259,-0.0009321285178884864,-0.1396484375,-0.0537109375,1.037109375
2023-08-01T17:31:49.966297,0.9999827146530151,-0.001793618779629469,-0.005519874859601259,-0.0009321285178884864,-0.1396484375,-0.0537109375,1.037109375
2023-08-01T17:31:49.973279,0.9999827146530151,-0.001793618779629469,-0.005519874859601259,-0.0009321285178884864,-0.13916015625,-0.05419921875,1.033203125
2023-08-01T17:31:49.973279,0.9999827146530151,-0.001793618779629469,-0.005519874859601259,-0.0009321285178884864,-0.13916015625,-0.05419921875,1.033203125
2023-08-01T17:31:49.980259,0.9999827146530151,-0.001793618779629469,-0.005519874859601259,-0.0009321285178884864,-0.14111328125,-0.052734375,1.0322265625
2023-08-01T17:31:49.981258,0.9999827146530151,-0.001793618779629469,-0.005519874859601259,-0.0009321285178884864,-0.14111328125,-0.052734375,1.0322265625
2023-08-01T17:31:49.995220,0.9999827146530151,-0.001793618779629469,-0.005519874859601259,-0.0009321285178884864,-0.14404296875,-0.0537109375,1.03173828125
2023-08-01T17:31:49.996217,0.9999827146530151,-0.001793618779629469,-0.005519874859601259,-0.0009321285178884864,-0.14404296875,-0.0537109375,1.03173828125
2023-08-01T17:31:50.003199,0.9999827146530151,-0.001793618779629469,-0.005519874859601259,-0.0009321285178884864,-0.1435546875,-0.0546875,1.0322265625
2023-08-01T17:31:50.003199,0.9999827146530151,-0.001793618779629469,-0.005519874859601259,-0.0009321285178884864,-0.1435546875,-0.0546875,1.0322265625
2023-08-01T17:31:50.010184,0.9999827146530151,-0.001793618779629469,-0.005519874859601259,-0.0009321285178884864,-0.1435546875,-0.0537109375,1.03271484375
2023-08-01T17:31:50.011181,0.9999827146530151,-0.001793618779629469,-0.005519874859601259,-0.0009321285178884864,-0.1435546875,-0.0537109375,1.03271484375
2023-08-01T17:31:50.033631,0.9999827146530151,-0.001793618779629469,-0.005519874859601259,-0.0009321285178884864,-0.1416015625,-0.052734375,1.03759765625
2023-08-01T17:31:50.033631,0.9999827146530151,-0.001793618779629469,-0.005519874859601259,-0.0009321285178884864,-0.1416015625,-0.052734375,1.03759765625
2023-08-01T17:31:50.033631,0.9999827146530151,-0.001793618779629469,-0.005519874859601259,-0.0009321285178884864,-0.142578125,-0.0546875,1.04150390625
2023-08-01T17:31:50.040611,0.9999827146530151,-0.001793618779629469,-0.005519874859601259,-0.0009321285178884864,-0.142578125,-0.0546875,1.04150390625
2023-08-01T17:31:50.040611,0.9999827146530151,-0.001793618779629469,-0.005519874859601259,-0.0009321285178884864,-0.140625,-0.0546875,1.03759765625
2023-08-01T17:31:50.041608,0.9999827146530151,-0.001793618779629469,-0.005519874859601259,-0.0009321285178884864,-0.140625,-0.0546875,1.03759765625
2023-08-01T17:31:50.055570,0.9999827146530151,-0.001793618779629469,-0.005519874859601259,-0.0009321285178884864,-0.13818359375,-0.0556640625,1.03466796875
2023-08-01T17:31:50.056568,0.9999827146530151,-0.001793618779629469,-0.005519874859601259,-0.0009321285178884864,-0.13818359375,-0.0556640625,1.03466796875
2023-08-01T17:31:50.063549,0.9999827146530151,-0.001793618779629469,-0.005519874859601259,-0.0009321285178884864,-0.13330078125,-0.05517578125,1.03369140625
2023-08-01T17:31:50.063549,0.9999827146530151,-0.001793618779629469,-0.005519874859601259,-0.0009321285178884864,-0.13330078125,-0.05517578125,1.03369140625
2023-08-01T17:31:50.070531,0.9999827146530151,-0.001793618779629469,-0.005519874859601259,-0.0009321285178884864,-0.13671875,-0.0537109375,1.0322265625
2023-08-01T17:31:50.071530,0.9999827146530151,-0.001793618779629469,-0.005519874859601259,-0.0009321285178884864,-0.13671875,-0.0537109375,1.0322265625
2023-08-01T17:31:50.085491,0.9999827146530151,-0.001793618779629469,-0.005519874859601259,-0.0009321285178884864,-0.1416015625,-0.05224609375,1.03125
2023-08-01T17:31:50.085491,0.9999827146530151,-0.001793618779629469,-0.005519874859601259,-0.0009321285178884864,-0.1416015625,-0.05224609375,1.03125
2023-08-01T17:31:50.092472,0.9999827146530151,-0.001793618779629469,-0.005519874859601259,-0.0009321285178884864,-0.1455078125,-0.0517578125,1.03759765625
2023-08-01T17:31:50.093471,0.9999827146530151,-0.001793618779629469,-0.005519874859601259,-0.0009321285178884864,-0.1455078125,-0.0517578125,1.03759765625
2023-08-01T17:31:50.100452,0.9999827146530151,-0.001793618779629469,-0.005519874859601259,-0.0009321285178884864,-0.14404296875,-0.05322265625,1.04052734375
2023-08-01T17:31:50.101448,0.9999827146530151,-0.001793618779629469,-0.005519874859601259,-0.0009321285178884864,-0.14404296875,-0.05322265625,1.04052734375
2023-08-01T17:31:50.115412,0.9999827146530151,-0.001793618779629469,-0.005519874859601259,-0.0009321285178884864,-0.14111328125,-0.0546875,1.03515625
2023-08-01T17:31:50.116410,0.9999827146530151,-0.001793618779629469,-0.005519874859601259,-0.0009321285178884864,-0.14111328125,-0.0546875,1.03515625
2023-08-01T17:31:50.123404,0.9999827146530151,-0.001793618779629469,-0.005519874859601259,-0.0009321285178884864,-0.13720703125,-0.0537109375,1.03564453125
2023-08-01T17:31:50.123404,0.9999827146530151,-0.001793618779629469,-0.005519874859601259,-0.0009321285178884864,-0.13720703125,-0.0537109375,1.03564453125
2023-08-01T17:31:50.130384,0.9999827146530151,-0.001793618779629469,-0.005519874859601259,-0.0009321285178884864,-0.13818359375,-0.05224609375,1.03271484375
2023-08-01T17:31:50.131382,0.9999827146530151,-0.001793618779629469,-0.005519874859601259,-0.0009321285178884864,-0.13818359375,-0.05224609375,1.03271484375
2023-08-01T17:31:50.145346,0.9999827146530151,-0.001793618779629469,-0.005519874859601259,-0.0009321285178884864,-0.13818359375,-0.05419921875,1.0322265625
2023-08-01T17:31:50.146343,0.9999827146530151,-0.001793618779629469,-0.005519874859601259,-0.0009321285178884864,-0.13818359375,-0.05419921875,1.0322265625
2023-08-01T17:31:50.153324,0.9999827146530151,-0.001793618779629469,-0.005519874859601259,-0.0009321285178884864,-0.138671875,-0.05712890625,1.03466796875
2023-08-01T17:31:50.153324,0.9999827146530151,-0.001793618779629469,-0.005519874859601259,-0.0009321285178884864,-0.138671875,-0.05712890625,1.03466796875
2023-08-01T17:31:50.160305,0.9999827146530151,-0.001793618779629469,-0.005519874859601259,-0.0009321285178884864,-0.1396484375,-0.05517578125,1.03466796875
2023-08-01T17:31:50.161302,0.9999827146530151,-0.001793618779629469,-0.005519874859601259,-0.0009321285178884864,-0.1396484375,-0.05517578125,1.03466796875
2023-08-01T17:31:50.175266,0.9999827146530151,-0.001793618779629469,-0.005519874859601259,-0.0009321285178884864,-0.1416015625,-0.0537109375,1.03564453125
2023-08-01T17:31:50.176263,0.9999827146530151,-0.001793618779629469,-0.005519874859601259,-0.0009321285178884864,-0.1416015625,-0.0537109375,1.03564453125
2023-08-01T17:31:50.183275,0.9999827146530151,-0.001793618779629469,-0.005519874859601259,-0.0009321285178884864,-0.14306640625,-0.0517578125,1.03515625
2023-08-01T17:31:50.183275,0.9999827146530151,-0.001793618779629469,-0.005519874859601259,-0.0009321285178884864,-0.14306640625,-0.0517578125,1.03515625
2023-08-01T17:31:50.190225,0.9999827146530151,-0.001793618779629469,-0.005519874859601259,-0.0009321285178884864,-0.14599609375,-0.05322265625,1.03564453125
2023-08-01T17:31:50.191243,0.9999827146530151,-0.001793618779629469,-0.005519874859601259,-0.0009321285178884864,-0.14599609375,-0.05322265625,1.03564453125
2023-08-01T17:31:50.205187,0.9999827146530151,-0.001793618779629469,-0.005519874859601259,-0.0009321285178884864,-0.14501953125,-0.0546875,1.0361328125
2023-08-01T17:31:50.206184,0.9999823570251465,-0.00179368257522583,-0.005588342435657978,-0.000932005699723959,-0.14501953125,-0.0546875,1.0361328125
2023-08-01T17:31:50.213165,0.9999823570251465,-0.00179368257522583,-0.005588342435657978,-0.000932005699723959,-0.140625,-0.05419921875,1.03564453125
2023-08-01T17:31:50.213165,0.9999820590019226,-0.0017937322845682502,-0.005641648545861244,-0.0009319100645370781,-0.140625,-0.05419921875,1.03564453125
2023-08-01T17:31:50.220658,0.9999820590019226,-0.0017937322845682502,-0.005641648545861244,-0.0009319100645370781,-0.13671875,-0.05322265625,1.03857421875
2023-08-01T17:31:50.220658,0.9999820590019226,-0.0017937322845682502,-0.005641648545861244,-0.0009319100645370781,-0.13671875,-0.05322265625,1.03857421875
2023-08-01T17:31:50.227639,0.9999820590019226,-0.0017937322845682502,-0.005641648545861244,-0.0009319100645370781,-0.13623046875,-0.052734375,1.03271484375
2023-08-01T17:31:50.243597,0.9999820590019226,-0.0017937322845682502,-0.005641648545861244,-0.0009319100645370781,-0.13623046875,-0.052734375,1.03271484375
2023-08-01T17:31:50.243597,0.9999820590019226,-0.0017937322845682502,-0.005641648545861244,-0.0009319100645370781,-0.13916015625,-0.0537109375,1.0322265625
2023-08-01T17:31:50.244594,0.9999820590019226,-0.0017937322845682502,-0.005641648545861244,-0.0009319100645370781,-0.13916015625,-0.0537109375,1.0322265625
2023-08-01T17:31:50.250578,0.9999820590019226,-0.0017937322845682502,-0.005641648545861244,-0.0009319100645370781,-0.13623046875,-0.0537109375,1.0361328125
2023-08-01T17:31:50.251576,0.9999820590019226,-0.0017937322845682502,-0.005641648545861244,-0.0009319100645370781,-0.13623046875,-0.0537109375,1.0361328125
2023-08-01T17:31:50.258557,0.9999820590019226,-0.0017937322845682502,-0.005641648545861244,-0.0009319100645370781,-0.13818359375,-0.0556640625,1.03369140625
2023-08-01T17:31:50.265538,0.9999820590019226,-0.0017937322845682502,-0.005641648545861244,-0.0009319100645370781,-0.13818359375,-0.0556640625,1.03369140625
2023-08-01T17:31:50.273516,0.9999820590019226,-0.0017937322845682502,-0.005641648545861244,-0.0009319100645370781,-0.14404296875,-0.0546875,1.03125
2023-08-01T17:31:50.273516,0.9999820590019226,-0.0017937322845682502,-0.005641648545861244,-0.0009319100645370781,-0.14404296875,-0.0546875,1.03125
2023-08-01T17:31:50.280511,0.9999820590019226,-0.0017937322845682502,-0.005641648545861244,-0.0009319100645370781,-0.1455078125,-0.05126953125,1.0341796875
2023-08-01T17:31:50.281495,0.9999820590019226,-0.0017937322845682502,-0.005641648545861244,-0.0009319100645370781,-0.1455078125,-0.05126953125,1.0341796875
2023-08-01T17:31:50.295457,0.9999820590019226,-0.0017937322845682502,-0.005641648545861244,-0.0009319100645370781,-0.138671875,-0.05419921875,1.0361328125
2023-08-01T17:31:50.296455,0.9999820590019226,-0.0017937322845682502,-0.005641648545861244,-0.0009319100645370781,-0.138671875,-0.05419921875,1.0361328125
2023-08-01T17:31:50.303438,0.9999820590019226,-0.0017937322845682502,-0.005641648545861244,-0.0009319100645370781,-0.13623046875,-0.05712890625,1.0361328125
2023-08-01T17:31:50.303438,0.9999820590019226,-0.0017937322845682502,-0.005641648545861244,-0.0009319100645370781,-0.13623046875,-0.05712890625,1.0361328125
2023-08-01T17:31:50.310421,0.9999820590019226,-0.0017937322845682502,-0.005641648545861244,-0.0009319100645370781,-0.138671875,-0.05322265625,1.0341796875
2023-08-01T17:31:50.311419,0.9999820590019226,-0.0017937322845682502,-0.005641648545861244,-0.0009319100645370781,-0.138671875,-0.05322265625,1.0341796875
2023-08-01T17:31:50.318401,0.9999820590019226,-0.0017937322845682502,-0.005641648545861244,-0.0009319100645370781,-0.14111328125,-0.0498046875,1.03564453125
2023-08-01T17:31:50.318401,0.9999820590019226,-0.0017937322845682502,-0.005641648545861244,-0.0009319100645370781,-0.14111328125,-0.0498046875,1.03564453125
2023-08-01T17:31:50.332883,0.9999820590019226,-0.0017937322845682502,-0.005641648545861244,-0.0009319100645370781,-0.13916015625,-0.05419921875,1.037109375
2023-08-01T17:31:50.333880,0.9999820590019226,-0.0017937322845682502,-0.005641648545861244,-0.0009319100645370781,-0.13916015625,-0.05419921875,1.037109375
2023-08-01T17:31:50.340862,0.9999820590019226,-0.0017937322845682502,-0.005641648545861244,-0.0009319100645370781,-0.14501953125,-0.05712890625,1.0390625
2023-08-01T17:31:50.340862,0.9999820590019226,-0.0017937322845682502,-0.005641648545861244,-0.0009319100645370781,-0.14501953125,-0.05712890625,1.0390625
2023-08-01T17:31:50.347842,0.9999820590019226,-0.0017937322845682502,-0.005641648545861244,-0.0009319100645370781,-0.1494140625,-0.0537109375,1.03662109375
2023-08-01T17:31:50.348840,0.9999820590019226,-0.0017937322845682502,-0.005641648545861244,-0.0009319100645370781,-0.1494140625,-0.0537109375,1.03662109375
2023-08-01T17:31:50.362803,0.9999820590019226,-0.0017937322845682502,-0.005641648545861244,-0.0009319100645370781,-0.14306640625,-0.0517578125,1.03564453125
2023-08-01T17:31:50.363814,0.9999820590019226,-0.0017937322845682502,-0.005641648545861244,-0.0009319100645370781,-0.14306640625,-0.0517578125,1.03564453125
2023-08-01T17:31:50.370783,0.9999820590019226,-0.0017937322845682502,-0.005641648545861244,-0.0009319100645370781,-0.13671875,-0.052734375,1.03515625
2023-08-01T17:31:50.370783,0.9999820590019226,-0.0017937322845682502,-0.005641648545861244,-0.0009319100645370781,-0.13671875,-0.052734375,1.03515625
2023-08-01T17:31:50.377766,0.9999820590019226,-0.0017937322845682502,-0.005641648545861244,-0.0009319100645370781,-0.1357421875,-0.0537109375,1.033203125
2023-08-01T17:31:50.378760,0.9999820590019226,-0.0017937322845682502,-0.005641648545861244,-0.0009319100645370781,-0.1357421875,-0.0537109375,1.033203125
2023-08-01T17:31:50.392723,0.9999820590019226,-0.0017937322845682502,-0.005641648545861244,-0.0009319100645370781,-0.142578125,-0.05419921875,1.0361328125
2023-08-01T17:31:50.393721,0.9999820590019226,-0.0017937322845682502,-0.005641648545861244,-0.0009319100645370781,-0.142578125,-0.05419921875,1.0361328125
2023-08-01T17:31:50.400702,0.9999820590019226,-0.0017937322845682502,-0.005641648545861244,-0.0009319100645370781,-0.140625,-0.0556640625,1.03515625
2023-08-01T17:31:50.401698,0.9999820590019226,-0.0017937322845682502,-0.005641648545861244,-0.0009319100645370781,-0.140625,-0.0556640625,1.03515625
2023-08-01T17:31:50.407686,0.9999820590019226,-0.0017937322845682502,-0.005641648545861244,-0.0009319100645370781,-0.14013671875,-0.05322265625,1.0361328125
2023-08-01T17:31:50.408685,0.9999820590019226,-0.0017937322845682502,-0.005641648545861244,-0.0009319100645370781,-0.14013671875,-0.05322265625,1.0361328125
2023-08-01T17:31:50.423159,0.9999820590019226,-0.0017937322845682502,-0.005641648545861244,-0.0009319100645370781,-0.14306640625,-0.0517578125,1.03515625
2023-08-01T17:31:50.423159,0.9999820590019226,-0.0017937322845682502,-0.005641648545861244,-0.0009319100645370781,-0.14306640625,-0.0517578125,1.03515625
2023-08-01T17:31:50.430141,0.9999820590019226,-0.0017937322845682502,-0.005641648545861244,-0.0009319100645370781,-0.14306640625,-0.0537109375,1.03662109375
2023-08-01T17:31:50.431138,0.9999820590019226,-0.0017937322845682502,-0.005641648545861244,-0.0009319100645370781,-0.14306640625,-0.0537109375,1.03662109375
2023-08-01T17:31:50.438119,0.9999820590019226,-0.0017937322845682502,-0.005641648545861244,-0.0009319100645370781,-0.13818359375,-0.0546875,1.0390625
2023-08-01T17:31:50.438119,0.9999820590019226,-0.0017937322845682502,-0.005641648545861244,-0.0009319100645370781,-0.13818359375,-0.0546875,1.0390625
2023-08-01T17:31:50.453080,0.9999820590019226,-0.0017937322845682502,-0.005641648545861244,-0.0009319100645370781,-0.1357421875,-0.05517578125,1.03857421875
2023-08-01T17:31:50.453080,0.9999820590019226,-0.0017937322845682502,-0.005641648545861244,-0.0009319100645370781,-0.1357421875,-0.05517578125,1.03857421875
2023-08-01T17:31:50.460061,0.9999820590019226,-0.0017937322845682502,-0.005641648545861244,-0.0009319100645370781,-0.1396484375,-0.052734375,1.0361328125
2023-08-01T17:31:50.461059,0.9999820590019226,-0.0017937322845682502,-0.005641648545861244,-0.0009319100645370781,-0.1396484375,-0.052734375,1.0361328125
2023-08-01T17:31:50.469037,0.9999820590019226,-0.0017937322845682502,-0.005641648545861244,-0.0009319100645370781,-0.14111328125,-0.05322265625,1.03271484375
2023-08-01T17:31:50.469037,0.999981701374054,-0.0017937911907210946,-0.005704852752387524,-0.0009317966760136187,-0.14111328125,-0.05322265625,1.03271484375
2023-08-01T17:31:50.483000,0.999981701374054,-0.0017937911907210946,-0.005704852752387524,-0.0009317966760136187,-0.14013671875,-0.0556640625,1.03076171875
2023-08-01T17:31:50.483996,0.999981701374054,-0.0017937911907210946,-0.005704852752387524,-0.0009317966760136187,-0.14013671875,-0.0556640625,1.03076171875
2023-08-01T17:31:50.490978,0.999981701374054,-0.0017937911907210946,-0.005704852752387524,-0.0009317966760136187,-0.13818359375,-0.05615234375,1.03466796875
2023-08-01T17:31:50.490978,0.999981701374054,-0.0017937911907210946,-0.005704852752387524,-0.0009317966760136187,-0.13818359375,-0.05615234375,1.03466796875
2023-08-01T17:31:50.497960,0.999981701374054,-0.0017937911907210946,-0.005704852752387524,-0.0009317966760136187,-0.14208984375,-0.0546875,1.0380859375
2023-08-01T17:31:50.498958,0.999981701374054,-0.0017937911907210946,-0.005704852752387524,-0.0009317966760136187,-0.14208984375,-0.0546875,1.0380859375
2023-08-01T17:31:50.512921,0.999981701374054,-0.0017937911907210946,-0.005704852752387524,-0.0009317966760136187,-0.146484375,-0.05517578125,1.0361328125
2023-08-01T17:31:50.513918,0.999981701374054,-0.0017937911907210946,-0.005704852752387524,-0.0009317966760136187,-0.146484375,-0.05517578125,1.0361328125
2023-08-01T17:31:50.520412,0.999981701374054,-0.0017937911907210946,-0.005704852752387524,-0.0009317966760136187,-0.140625,-0.0537109375,1.03466796875
2023-08-01T17:31:50.521411,0.999981701374054,-0.0017937911907210946,-0.005704852752387524,-0.0009317966760136187,-0.140625,-0.0537109375,1.03466796875
2023-08-01T17:31:50.528393,0.999981701374054,-0.0017937911907210946,-0.005704852752387524,-0.0009317966760136187,-0.13720703125,-0.0517578125,1.03759765625
2023-08-01T17:31:50.528393,0.999981701374054,-0.0017937911907210946,-0.005704852752387524,-0.0009317966760136187,-0.13720703125,-0.0517578125,1.03759765625
2023-08-01T17:31:50.535373,0.999981701374054,-0.0017937911907210946,-0.005704852752387524,-0.0009317966760136187,-0.1416015625,-0.05322265625,1.0361328125
2023-08-01T17:31:50.543353,0.9999814033508301,-0.0017938403179869056,-0.005757529754191637,-0.0009317022049799562,-0.1416015625,-0.05322265625,1.0361328125
2023-08-01T17:31:50.550334,0.9999814033508301,-0.0017938403179869056,-0.005757529754191637,-0.0009317022049799562,-0.140625,-0.05712890625,1.0341796875
2023-08-01T17:31:50.551331,0.9999810457229614,-0.00179389922413975,-0.0058207339607179165,-0.0009315888164564967,-0.140625,-0.05712890625,1.0341796875
2023-08-01T17:31:50.558314,0.9999810457229614,-0.00179389922413975,-0.0058207339607179165,-0.0009315888164564967,-0.1376953125,-0.05419921875,1.03369140625
2023-08-01T17:31:50.558314,0.9999810457229614,-0.00179389922413975,-0.0058207339607179165,-0.0009315888164564967,-0.1376953125,-0.05419921875,1.03369140625
2023-08-01T17:31:50.565294,0.9999810457229614,-0.00179389922413975,-0.0058207339607179165,-0.0009315888164564967,-0.13818359375,-0.0546875,1.03466796875
2023-08-01T17:31:50.566291,0.9999810457229614,-0.00179389922413975,-0.0058207339607179165,-0.0009315888164564967,-0.13818359375,-0.0546875,1.03466796875
2023-08-01T17:31:50.580254,0.9999810457229614,-0.00179389922413975,-0.0058207339607179165,-0.0009315888164564967,-0.13818359375,-0.0546875,1.0341796875
2023-08-01T17:31:50.581252,0.9999810457229614,-0.00179389922413975,-0.0058207339607179165,-0.0009315888164564967,-0.13818359375,-0.0546875,1.0341796875
2023-08-01T17:31:50.588233,0.9999810457229614,-0.00179389922413975,-0.0058207339607179165,-0.0009315888164564967,-0.1396484375,-0.05419921875,1.037109375
2023-08-01T17:31:50.588233,0.9999810457229614,-0.00179389922413975,-0.0058207339607179165,-0.0009315888164564967,-0.1396484375,-0.05419921875,1.037109375
2023-08-01T17:31:50.595215,0.9999810457229614,-0.00179389922413975,-0.0058207339607179165,-0.0009315888164564967,-0.1416015625,-0.05419921875,1.03564453125
2023-08-01T17:31:50.596212,0.9999810457229614,-0.00179389922413975,-0.0058207339607179165,-0.0009315888164564967,-0.1416015625,-0.05419921875,1.03564453125
2023-08-01T17:31:50.611174,0.9999810457229614,-0.00179389922413975,-0.0058207339607179165,-0.0009315888164564967,-0.14501953125,-0.052734375,1.037109375
2023-08-01T17:31:50.611174,0.9999810457229614,-0.00179389922413975,-0.0058207339607179165,-0.0009315888164564967,-0.14501953125,-0.052734375,1.037109375
2023-08-01T17:31:50.618155,0.9999810457229614,-0.00179389922413975,-0.0058207339607179165,-0.0009315888164564967,-0.140625,-0.05419921875,1.03662109375
2023-08-01T17:31:50.618155,0.9999810457229614,-0.00179389922413975,-0.0058207339607179165,-0.0009315888164564967,-0.140625,-0.05419921875,1.03662109375
