Timestamp,w,x,y,z,ax,ay,az
2023-08-01T15:55:27.052246,0.8697522878646851,-0.04551111161708832,-0.15574003756046295,0.46605226397514343,-0.69287109375,-0.10986328125,0.83544921875
2023-08-01T15:55:27.058898,0.8697522878646851,-0.04551111161708832,-0.15574003756046295,0.46605226397514343,-0.736328125,-0.13671875,0.84326171875
2023-08-01T15:55:27.060035,0.9999992251396179,-0.00027696797042153776,0.0011664631310850382,-0.00037817779229953885,-0.736328125,-0.13671875,0.84326171875
2023-08-01T15:55:27.135199,0.9999992251396179,-0.00027696797042153776,0.0011664631310850382,-0.00037817779229953885,-0.60888671875,-0.15673828125,0.75
2023-08-01T15:55:27.136195,0.9988388419151306,-5.494820652529597e-05,0.0013891828712075949,0.04815705493092537,-0.60888671875,-0.15673828125,0.75
2023-08-01T15:55:27.141942,0.9988388419151306,-5.494820652529597e-05,0.0013891828712075949,0.04815705493092537,-0.6123046875,-0.1435546875,0.73876953125
2023-08-01T15:55:27.142938,0.9988033771514893,0.0003429947537370026,0.0012449587229639292,0.04888730123639107,-0.6123046875,-0.1435546875,0.73876953125
2023-08-01T15:55:27.148944,0.9988033771514893,0.0003429947537370026,0.0012449587229639292,0.04888730123639107,-0.58056640625,-0.134765625,0.73486328125
2023-08-01T15:55:27.150351,0.9987589120864868,0.0006282118847593665,0.0009317781077697873,0.04979109764099121,-0.58056640625,-0.134765625,0.73486328125
2023-08-01T15:55:27.164825,0.9987589120864868,0.0006282118847593665,0.0009317781077697873,0.04979109764099121,-0.55908203125,-0.146484375,0.75244140625
2023-08-01T15:55:27.165823,0.9957394003868103,0.000796765903942287,0.0009754535276442766,0.0922035202383995,-0.55908203125,-0.146484375,0.75244140625
2023-08-01T15:55:27.171913,0.9957394003868103,0.000796765903942287,0.0009754535276442766,0.0922035202383995,-0.58984375,-0.1396484375,0.75439453125
2023-08-01T15:55:27.171913,0.9956623315811157,0.0009280923404730856,0.0012462559388950467,0.09302660077810287,-0.58984375,-0.1396484375,0.75439453125
2023-08-01T15:55:27.178973,0.9956623315811157,0.0009280923404730856,0.0012462559388950467,0.09302660077810287,-0.61376953125,-0.1298828125,0.75390625
2023-08-01T15:55:27.180132,0.9955888986587524,0.0009875200921669602,0.0016950269928202033,0.09380249679088593,-0.61376953125,-0.1298828125,0.75390625
2023-08-01T15:55:27.198026,0.9955888986587524,0.0009875200921669602,0.0016950269928202033,0.09380249679088593,-0.62939453125,-0.1123046875,0.76611328125
2023-08-01T15:55:27.198026,0.995535135269165,0.0009494724217802286,0.002108425833284855,0.09436361491680145,-0.62939453125,-0.1123046875,0.76611328125
2023-08-01T15:55:27.203111,0.995535135269165,0.0009494724217802286,0.002108425833284855,0.09436361491680145,-0.67333984375,-0.10693359375,0.7998046875
2023-08-01T15:55:27.203111,0.9911980032920837,0.0008383252425119281,0.002382313832640648,0.1323632150888443,-0.67333984375,-0.10693359375,0.7998046875
2023-08-01T15:55:27.208987,0.9911980032920837,0.0008383252425119281,0.002382313832640648,0.1323632150888443,-0.75634765625,-0.1181640625,0.8330078125
2023-08-01T15:55:27.210107,0.9911637306213379,0.0008319776388816535,0.0024342327378690243,0.13261890411376953,-0.75634765625,-0.1181640625,0.8330078125
2023-08-01T15:55:27.217098,0.9911637306213379,0.0008319776388816535,0.0024342327378690243,0.13261890411376953,-0.822265625,-0.14013671875,0.8505859375
2023-08-01T15:55:27.224214,0.99116450548172,0.0009820838458836079,0.0021157192531973124,0.13261836767196655,-0.822265625,-0.14013671875,0.8505859375
2023-08-01T15:55:27.233214,0.99116450548172,0.0009820838458836079,0.0021157192531973124,0.13261836767196655,-0.83203125,-0.14453125,0.8447265625
2023-08-01T15:55:27.234206,0.9911760687828064,0.0011819073697552085,0.001414972823113203,0.13253912329673767,-0.83203125,-0.14453125,0.8447265625
2023-08-01T15:55:27.239200,0.9911760687828064,0.0011819073697552085,0.001414972823113203,0.13253912329673767,-0.81982421875,-0.1455078125,0.8359375
2023-08-01T15:55:27.246408,0.9861998558044434,0.0013619259698316455,0.000445753859821707,0.1655530035495758,-0.81982421875,-0.1455078125,0.8359375
2023-08-01T15:55:27.247916,0.9861998558044434,0.0013619259698316455,0.000445753859821707,0.1655530035495758,-0.82666015625,-0.14599609375,0.8212890625
2023-08-01T15:55:27.254411,0.9861722588539124,0.0016916784225031734,-0.0010096154874190688,0.1657116562128067,-0.82666015625,-0.14599609375,0.8212890625
2023-08-01T15:55:27.261452,0.9861722588539124,0.0016916784225031734,-0.0010096154874190688,0.1657116562128067,-0.84619140625,-0.150390625,0.82177734375
2023-08-01T15:55:27.262449,0.9860981702804565,0.0022009096574038267,-0.002931593218818307,0.1661234200000763,-0.84619140625,-0.150390625,0.82177734375
2023-08-01T15:55:27.270993,0.9860981702804565,0.0022009096574038267,-0.002931593218818307,0.1661234200000763,-0.85693359375,-0.14892578125,0.8271484375
2023-08-01T15:55:27.271991,0.9859527945518494,0.002947489731013775,-0.005161185748875141,0.16691820323467255,-0.85693359375,-0.14892578125,0.8271484375
2023-08-01T15:55:27.276975,0.9859527945518494,0.002947489731013775,-0.005161185748875141,0.16691820323467255,-0.85205078125,-0.13134765625,0.81494140625
2023-08-01T15:55:27.277973,0.9802204966545105,0.0041854120790958405,-0.007411076221615076,0.1977253407239914,-0.85205078125,-0.13134765625,0.81494140625
2023-08-01T15:55:27.292348,0.9802204966545105,0.0041854120790958405,-0.007411076221615076,0.1977253407239914,-0.7958984375,-0.1005859375,0.7763671875
2023-08-01T15:55:27.292348,0.9798441529273987,0.00543712405487895,-0.009836636483669281,0.19944718480110168,-0.7958984375,-0.1005859375,0.7763671875
2023-08-01T15:55:27.298837,0.9798441529273987,0.00543712405487895,-0.009836636483669281,0.19944718480110168,-0.68408203125,-0.07666015625,0.74267578125
2023-08-01T15:55:27.299901,0.9793585538864136,0.0068654161877930164,-0.012040507048368454,0.20165501534938812,-0.68408203125,-0.07666015625,0.74267578125
2023-08-01T15:55:27.306885,0.9793585538864136,0.0068654161877930164,-0.012040507048368454,0.20165501534938812,-0.583984375,-0.06005859375,0.72705078125
2023-08-01T15:55:27.307882,0.9788366556167603,0.008550843223929405,-0.013831822201609612,0.20399577915668488,-0.583984375,-0.06005859375,0.72705078125
2023-08-01T15:55:27.322146,0.9788366556167603,0.008550843223929405,-0.013831822201609612,0.20399577915668488,-0.5224609375,-0.02880859375,0.7138671875
2023-08-01T15:55:27.323146,0.9723722338676453,0.010770400986075401,-0.014535128138959408,0.2327335774898529,-0.5224609375,-0.02880859375,0.7138671875
2023-08-01T15:55:27.330965,0.9723722338676453,0.010770400986075401,-0.014535128138959408,0.2327335774898529,-0.50244140625,0.00439453125,0.7001953125
2023-08-01T15:55:27.330965,0.9717960357666016,0.01267586275935173,-0.014637203887104988,0.23502647876739502,-0.50244140625,0.00439453125,0.7001953125
2023-08-01T15:55:27.351963,0.9717960357666016,0.01267586275935173,-0.014637203887104988,0.23502647876739502,-0.5322265625,0.04150390625,0.68212890625
2023-08-01T15:55:27.351963,0.9712633490562439,0.014388865791261196,-0.014020660892128944,0.2371576428413391,-0.5322265625,0.04150390625,0.68212890625
2023-08-01T15:55:27.352962,0.9712633490562439,0.014388865791261196,-0.014020660892128944,0.2371576428413391,-0.568359375,0.06640625,0.66259765625
2023-08-01T15:55:27.354955,0.9707964062690735,0.015887752175331116,-0.01310651283711195,0.23901894688606262,-0.568359375,0.06640625,0.66259765625
2023-08-01T15:55:27.358975,0.9707964062690735,0.015887752175331116,-0.01310651283711195,0.23901894688606262,-0.60986328125,0.07666015625,0.65673828125
2023-08-01T15:55:27.360080,0.963650107383728,0.017441878095269203,-0.012373609468340874,0.26631030440330505,-0.60986328125,0.07666015625,0.65673828125
2023-08-01T15:55:27.374519,0.963650107383728,0.017441878095269203,-0.012373609468340874,0.26631030440330505,-0.6591796875,0.0576171875,0.6708984375
2023-08-01T15:55:27.375519,0.9631505608558655,0.018603568896651268,-0.012361420318484306,0.26803362369537354,-0.6591796875,0.0576171875,0.6708984375
2023-08-01T15:55:27.382110,0.9631505608558655,0.018603568896651268,-0.012361420318484306,0.26803362369537354,-0.681640625,0.05859375,0.68115234375
2023-08-01T15:55:27.383107,0.9627172946929932,0.019667234271764755,-0.013098771683871746,0.2694754898548126,-0.681640625,0.05859375,0.68115234375
2023-08-01T15:55:27.389100,0.9627172946929932,0.019667234271764755,-0.013098771683871746,0.2694754898548126,-0.71630859375,0.056640625,0.6962890625
2023-08-01T15:55:27.390437,0.9623037576675415,0.02066650241613388,-0.014770309440791607,0.2707880437374115,-0.71630859375,0.056640625,0.6962890625
2023-08-01T15:55:27.396420,0.9623037576675415,0.02066650241613388,-0.014770309440791607,0.2707880437374115,-0.75,0.015625,0.72119140625
2023-08-01T15:55:27.397927,0.9555870890617371,0.022142421454191208,-0.016670722514390945,0.2934025228023529,-0.75,0.015625,0.72119140625
2023-08-01T15:55:27.423634,0.9555870890617371,0.022142421454191208,-0.016670722514390945,0.2934025228023529,-0.76806640625,-0.015625,0.73388671875
2023-08-01T15:55:27.424633,0.955104649066925,0.023640310391783714,-0.019987888634204865,0.29464682936668396,-0.76806640625,-0.015625,0.73388671875
2023-08-01T15:55:27.424633,0.955104649066925,0.023640310391783714,-0.019987888634204865,0.29464682936668396,-0.79638671875,-0.03173828125,0.74658203125
2023-08-01T15:55:27.425629,0.9545380473136902,0.025375574827194214,-0.024843862280249596,0.29596641659736633,-0.79638671875,-0.03173828125,0.74658203125
2023-08-01T15:55:27.426627,0.9545380473136902,0.025375574827194214,-0.024843862280249596,0.29596641659736633,-0.833984375,-0.0693359375,0.76708984375
2023-08-01T15:55:27.428134,0.9537830948829651,0.02746664732694626,-0.03201425075531006,0.29752060770988464,-0.833984375,-0.0693359375,0.76708984375
2023-08-01T15:55:27.442335,0.9537830948829651,0.02746664732694626,-0.03201425075531006,0.29752060770988464,-0.8330078125,-0.09765625,0.8125
2023-08-01T15:55:27.443333,0.9526903033256531,0.0301516130566597,-0.04114655405282974,0.2996315062046051,-0.8330078125,-0.09765625,0.8125
2023-08-01T15:55:27.449913,0.9526903033256531,0.0301516130566597,-0.04114655405282974,0.2996315062046051,-0.78759765625,-0.10791015625,0.873046875
2023-08-01T15:55:27.456218,0.9513937830924988,0.03311372920870781,-0.051749732345342636,0.3017868995666504,-0.78759765625,-0.10791015625,0.873046875
2023-08-01T15:55:27.457216,0.9513937830924988,0.03311372920870781,-0.051749732345342636,0.3017868995666504,-0.7216796875,-0.115234375,0.9482421875
2023-08-01T15:55:27.458214,0.9499027729034424,0.03649120777845383,-0.06337162852287292,0.303870290517807,-0.7216796875,-0.115234375,0.9482421875
2023-08-01T15:55:27.472204,0.9499027729034424,0.03649120777845383,-0.06337162852287292,0.303870290517807,-0.615234375,-0.12744140625,0.9970703125
2023-08-01T15:55:27.473201,0.9481915831565857,0.03973332792520523,-0.07529838383197784,0.30607858300209045,-0.615234375,-0.12744140625,0.9970703125
2023-08-01T15:55:27.479165,0.9481915831565857,0.03973332792520523,-0.07529838383197784,0.30607858300209045,-0.50244140625,-0.13037109375,1.02099609375
2023-08-01T15:55:27.480341,0.9462841749191284,0.0426461435854435,-0.08690319210290909,0.3085050880908966,-0.50244140625,-0.13037109375,1.02099609375
2023-08-01T15:55:27.491824,0.9462841749191284,0.0426461435854435,-0.08690319210290909,0.3085050880908966,-0.376953125,-0.12255859375,1.06982421875
2023-08-01T15:55:27.498318,0.9443987011909485,0.04594073444604874,-0.09729068726301193,0.31070050597190857,-0.376953125,-0.12255859375,1.06982421875
2023-08-01T15:55:27.498827,0.9443987011909485,0.04594073444604874,-0.09729068726301193,0.31070050597190857,-0.31005859375,-0.0927734375,1.07568359375
2023-08-01T15:55:27.503927,0.9425299167633057,0.048580352216959,-0.1063133105635643,0.3130093216896057,-0.31005859375,-0.0927734375,1.07568359375
2023-08-01T15:55:27.518997,0.9425299167633057,0.048580352216959,-0.1063133105635643,0.3130093216896057,-0.2294921875,-0.0625,1.078125
2023-08-01T15:55:27.521011,0.9409935474395752,0.05049685016274452,-0.11354721337556839,0.3147828280925751,-0.2294921875,-0.0625,1.078125
2023-08-01T15:55:27.522003,0.9409935474395752,0.05049685016274452,-0.11354721337556839,0.3147828280925751,-0.13720703125,-0.06298828125,1.0400390625
2023-08-01T15:55:27.523008,0.9399888515472412,0.05204222351312637,-0.11824414134025574,0.3158019781112671,-0.13720703125,-0.06298828125,1.0400390625
2023-08-01T15:55:27.524995,0.9399888515472412,0.05204222351312637,-0.11824414134025574,0.3158019781112671,-0.05419921875,-0.0615234375,1.0166015625
2023-08-01T15:55:27.535079,0.9396342635154724,0.05322323366999626,-0.12003597617149353,0.31598421931266785,-0.05419921875,-0.0615234375,1.0166015625
2023-08-01T15:55:27.604550,0.9396342635154724,0.05322323366999626,-0.12003597617149353,0.31598421931266785,-0.029296875,-0.00634765625,0.9560546875
2023-08-01T15:55:27.605527,0.9399142861366272,0.05368850380182266,-0.11902271956205368,0.3154557943344116,-0.029296875,-0.00634765625,0.9560546875
2023-08-01T15:55:27.606524,0.9399142861366272,0.05368850380182266,-0.11902271956205368,0.3154557943344116,-0.04248046875,0.03662109375,0.89599609375
2023-08-01T15:55:27.608031,0.940804660320282,0.05381077155470848,-0.11491253972053528,0.3143024444580078,-0.04248046875,0.03662109375,0.89599609375
2023-08-01T15:55:27.610068,0.940804660320282,0.05381077155470848,-0.11491253972053528,0.3143024444580078,-0.09716796875,0.06591796875,0.82568359375
2023-08-01T15:55:27.611260,0.942189633846283,0.05330144613981247,-0.10852502286434174,0.31250590085983276,-0.09716796875,0.06591796875,0.82568359375
2023-08-01T15:55:27.612256,0.942189633846283,0.05330144613981247,-0.10852502286434174,0.31250590085983276,-0.203125,0.0615234375,0.77587890625
2023-08-01T15:55:27.613254,0.9439182877540588,0.05230163782835007,-0.10058171302080154,0.3101063668727875,-0.203125,0.0615234375,0.77587890625
2023-08-01T15:55:27.615248,0.9439182877540588,0.05230163782835007,-0.10058171302080154,0.3101063668727875,-0.32568359375,0.02880859375,0.74853515625
2023-08-01T15:55:27.616245,0.9457486867904663,0.050950635224580765,-0.09199327230453491,0.3074095547199249,-0.32568359375,0.02880859375,0.74853515625
2023-08-01T15:55:27.619829,0.9457486867904663,0.050950635224580765,-0.09199327230453491,0.3074095547199249,-0.439453125,0.01123046875,0.73291015625
2023-08-01T15:55:27.619829,0.947532057762146,0.049543704837560654,-0.08317014575004578,0.3046490252017975,-0.439453125,0.01123046875,0.73291015625
2023-08-01T15:55:27.621824,0.947532057762146,0.049543704837560654,-0.08317014575004578,0.3046490252017975,-0.5537109375,0.00634765625,0.72314453125
2023-08-01T15:55:27.621824,0.9491883516311646,0.048148926347494125,-0.07454007863998413,0.30193859338760376,-0.5537109375,0.00634765625,0.72314453125
2023-08-01T15:55:27.622822,0.9491883516311646,0.048148926347494125,-0.07454007863998413,0.30193859338760376,-0.654296875,0.00732421875,0.70703125
2023-08-01T15:55:27.622822,0.950714647769928,0.04682110622525215,-0.06678377836942673,0.29914769530296326,-0.654296875,0.00732421875,0.70703125
2023-08-01T15:55:27.623818,0.950714647769928,0.04682110622525215,-0.06678377836942673,0.29914769530296326,-0.73046875,-0.00927734375,0.70458984375
2023-08-01T15:55:27.628317,0.9521353244781494,0.045647699385881424,-0.060269225388765335,0.2961791455745697,-0.73046875,-0.00927734375,0.70458984375
2023-08-01T15:55:27.635276,0.9521353244781494,0.045647699385881424,-0.060269225388765335,0.2961791455745697,-0.78173828125,-0.03466796875,0.68896484375
2023-08-01T15:55:27.635276,0.9534021615982056,0.04465634375810623,-0.05537363514304161,0.29319608211517334,-0.78173828125,-0.03466796875,0.68896484375
2023-08-01T15:55:27.700816,0.9534021615982056,0.04465634375810623,-0.05537363514304161,0.29319608211517334,-0.8427734375,-0.04052734375,0.6728515625
2023-08-01T15:55:27.701814,0.9544882774353027,0.04377845302224159,-0.05260404571890831,0.29029029607772827,-0.8427734375,-0.04052734375,0.6728515625
2023-08-01T15:55:27.702811,0.9544882774353027,0.04377845302224159,-0.05260404571890831,0.29029029607772827,-0.88818359375,-0.046875,0.6826171875
2023-08-01T15:55:27.703809,0.9554957151412964,0.042914386838674545,-0.05212873965501785,0.28717392683029175,-0.88818359375,-0.046875,0.6826171875
2023-08-01T15:55:27.704806,0.9554957151412964,0.042914386838674545,-0.05212873965501785,0.28717392683029175,-0.8876953125,-0.06103515625,0.71826171875
2023-08-01T15:55:27.705805,0.9563530683517456,0.04199201613664627,-0.05371609330177307,0.2841479480266571,-0.8876953125,-0.06103515625,0.71826171875
2023-08-01T15:55:27.706801,0.9563530683517456,0.04199201613664627,-0.05371609330177307,0.2841479480266571,-0.8623046875,-0.08740234375,0.77490234375
2023-08-01T15:55:27.709328,0.9569799304008484,0.041075944900512695,-0.056793928146362305,0.28156083822250366,-0.8623046875,-0.08740234375,0.77490234375
2023-08-01T15:55:27.709328,0.9569799304008484,0.041075944900512695,-0.056793928146362305,0.28156083822250366,-0.82861328125,-0.11376953125,0.8212890625
2023-08-01T15:55:27.710361,0.9573768377304077,0.04020894691348076,-0.06081186980009079,0.2794901430606842,-0.82861328125,-0.11376953125,0.8212890625
2023-08-01T15:55:27.711359,0.9573768377304077,0.04020894691348076,-0.06081186980009079,0.2794901430606842,-0.7841796875,-0.13427734375,0.857421875
2023-08-01T15:55:27.713353,0.9575007557868958,0.039556410163640976,-0.06536241620779037,0.2781282067298889,-0.7841796875,-0.13427734375,0.857421875
2023-08-01T15:55:27.716346,0.9575007557868958,0.039556410163640976,-0.06536241620779037,0.2781282067298889,-0.72265625,-0.1484375,0.88916015625
2023-08-01T15:55:27.717428,0.9572970271110535,0.03927876427769661,-0.07032427936792374,0.2776581943035126,-0.72265625,-0.1484375,0.88916015625
2023-08-01T15:55:27.717939,0.9572970271110535,0.03927876427769661,-0.07032427936792374,0.2776581943035126,-0.671875,-0.15185546875,0.90771484375
2023-08-01T15:55:27.734199,0.9567630887031555,0.039279669523239136,-0.0757269486784935,0.2780773639678955,-0.671875,-0.15185546875,0.90771484375
2023-08-01T15:55:27.735196,0.9567630887031555,0.039279669523239136,-0.0757269486784935,0.2780773639678955,-0.603515625,-0.15625,0.91845703125
2023-08-01T15:55:27.736194,0.9559696316719055,0.03956151381134987,-0.08146588504314423,0.2791421413421631,-0.603515625,-0.15625,0.91845703125
2023-08-01T15:55:27.736194,0.9559696316719055,0.03956151381134987,-0.08146588504314423,0.2791421413421631,-0.5146484375,-0.15673828125,0.9345703125
2023-08-01T15:55:27.742247,0.9550188183784485,0.04013051837682724,-0.08710497617721558,0.2806088328361511,-0.5146484375,-0.15673828125,0.9345703125
2023-08-01T15:55:27.742247,0.9550188183784485,0.04013051837682724,-0.08710497617721558,0.2806088328361511,-0.44921875,-0.12939453125,0.95361328125
2023-08-01T15:55:27.751621,0.9539282917976379,0.040767647325992584,-0.09276361018419266,0.2824069857597351,-0.44921875,-0.12939453125,0.95361328125
2023-08-01T15:55:27.752619,0.9539282917976379,0.040767647325992584,-0.09276361018419266,0.2824069857597351,-0.40869140625,-0.10791015625,0.97412109375
2023-08-01T15:55:27.762613,0.9527777433395386,0.04140143096446991,-0.09813200682401657,0.28437772393226624,-0.40869140625,-0.10791015625,0.97412109375
2023-08-01T15:55:27.763611,0.9527777433395386,0.04140143096446991,-0.09813200682401657,0.28437772393226624,-0.37353515625,-0.1044921875,0.99169921875
2023-08-01T15:55:27.765606,0.9516363739967346,0.04200342670083046,-0.10290644317865372,0.28641626238822937,-0.37353515625,-0.1044921875,0.99169921875
2023-08-01T15:55:27.765606,0.9516363739967346,0.04200342670083046,-0.10290644317865372,0.28641626238822937,-0.34765625,-0.1025390625,1.00830078125
2023-08-01T15:55:27.766603,0.9505408406257629,0.042530737817287445,-0.10715331882238388,0.2884119153022766,-0.34765625,-0.1025390625,1.00830078125
2023-08-01T15:55:27.788811,0.9505408406257629,0.042530737817287445,-0.10715331882238388,0.2884119153022766,-0.3330078125,-0.09716796875,1.025390625
2023-08-01T15:55:27.789962,0.9495757818222046,0.04299396649003029,-0.11079668253660202,0.29014021158218384,-0.3330078125,-0.09716796875,1.025390625
2023-08-01T15:55:27.790820,0.9495757818222046,0.04299396649003029,-0.11079668253660202,0.29014021158218384,-0.330078125,-0.0888671875,1.03662109375
2023-08-01T15:55:27.791817,0.9487940073013306,0.043387364596128464,-0.11375069618225098,0.29149308800697327,-0.330078125,-0.0888671875,1.03662109375
2023-08-01T15:55:27.798829,0.9487940073013306,0.043387364596128464,-0.11375069618225098,0.29149308800697327,-0.33349609375,-0.07666015625,1.03125
2023-08-01T15:55:27.819371,0.9481782913208008,0.043680377304553986,-0.11607005447149277,0.2925367057323456,-0.33349609375,-0.07666015625,1.03125
2023-08-01T15:55:27.820373,0.9481782913208008,0.043680377304553986,-0.11607005447149277,0.2925367057323456,-0.33642578125,-0.05908203125,1.02392578125
2023-08-01T15:55:27.820373,0.9477370977401733,0.04394097626209259,-0.11765807121992111,0.29329195618629456,-0.33642578125,-0.05908203125,1.02392578125
2023-08-01T15:55:27.823365,0.9477370977401733,0.04394097626209259,-0.11765807121992111,0.29329195618629456,-0.337890625,-0.0439453125,1.01318359375
2023-08-01T15:55:27.824362,0.9474546313285828,0.04413435235619545,-0.11853744834661484,0.29382094740867615,-0.337890625,-0.0439453125,1.01318359375
2023-08-01T15:55:27.825360,0.9474546313285828,0.04413435235619545,-0.11853744834661484,0.29382094740867615,-0.34912109375,-0.0361328125,0.9931640625
2023-08-01T15:55:27.827865,0.9473130702972412,0.04426545649766922,-0.11868555098772049,0.2941976487636566,-0.34912109375,-0.0361328125,0.9931640625
2023-08-01T15:55:27.833366,0.9473130702972412,0.04426545649766922,-0.11868555098772049,0.2941976487636566,-0.35986328125,-0.02783203125,0.9658203125
2023-08-01T15:55:27.835360,0.947273313999176,0.0443512387573719,-0.11808031797409058,0.29455605149269104,-0.35986328125,-0.02783203125,0.9658203125
2023-08-01T15:55:27.849369,0.947273313999176,0.0443512387573719,-0.11808031797409058,0.29455605149269104,-0.3701171875,-0.01611328125,0.92724609375
2023-08-01T15:55:27.849369,0.947356641292572,0.044339925050735474,-0.11663620918989182,0.2948648929595947,-0.3701171875,-0.01611328125,0.92724609375
2023-08-01T15:55:27.855359,0.947356641292572,0.044339925050735474,-0.11663620918989182,0.2948648929595947,-0.373046875,0.0009765625,0.890625
2023-08-01T15:55:27.856356,0.9475724697113037,0.04415178298950195,-0.11441954225301743,0.2950682044029236,-0.373046875,0.0009765625,0.890625
2023-08-01T15:55:27.863361,0.9475724697113037,0.04415178298950195,-0.11441954225301743,0.2950682044029236,-0.38720703125,0.01123046875,0.87353515625
2023-08-01T15:55:27.864358,0.9478735327720642,0.043806955218315125,-0.11172466725111008,0.29518482089042664,-0.38720703125,0.01123046875,0.87353515625
2023-08-01T15:55:27.879360,0.9478735327720642,0.043806955218315125,-0.11172466725111008,0.29518482089042664,-0.43115234375,0.0107421875,0.8671875
2023-08-01T15:55:27.904991,0.9482381939888,0.04327579587697983,-0.1087738424539566,0.29519444704055786,-0.43115234375,0.0107421875,0.8671875
2023-08-01T15:55:27.905988,0.9482381939888,0.04327579587697983,-0.1087738424539566,0.29519444704055786,-0.48681640625,0.0048828125,0.8662109375
2023-08-01T15:55:27.906987,0.9486560821533203,0.04261896014213562,-0.10591931641101837,0.2949853241443634,-0.48681640625,0.0048828125,0.8662109375
2023-08-01T15:55:27.907983,0.9486560821533203,0.04261896014213562,-0.10591931641101837,0.2949853241443634,-0.53955078125,0.0048828125,0.8701171875
2023-08-01T15:55:27.931205,0.9491123557090759,0.04179129749536514,-0.10348156839609146,0.2945006787776947,-0.53955078125,0.0048828125,0.8701171875
2023-08-01T15:55:27.932204,0.9491123557090759,0.04179129749536514,-0.10348156839609146,0.2945006787776947,-0.578125,0.001953125,0.87646484375
2023-08-01T15:55:27.933200,0.9496224522590637,0.04074486717581749,-0.1016189455986023,0.29365041851997375,-0.578125,0.001953125,0.87646484375
2023-08-01T15:55:27.934198,0.9496224522590637,0.04074486717581749,-0.1016189455986023,0.29365041851997375,-0.5888671875,-0.01318359375,0.8837890625
2023-08-01T15:55:27.935196,0.9501656889915466,0.03949929028749466,-0.10031172633171082,0.2925106883049011,-0.5888671875,-0.01318359375,0.8837890625
2023-08-01T15:55:27.936192,0.9501656889915466,0.03949929028749466,-0.10031172633171082,0.2925106883049011,-0.58984375,-0.03564453125,0.89013671875
2023-08-01T15:55:27.960081,0.9507322311401367,0.03813663125038147,-0.09941072762012482,0.29115498065948486,-0.58984375,-0.03564453125,0.89013671875
2023-08-01T15:55:27.960081,0.9507322311401367,0.03813663125038147,-0.09941072762012482,0.29115498065948486,-0.59423828125,-0.060546875,0.8798828125
2023-08-01T15:55:27.962079,0.9512771964073181,0.036679383367300034,-0.09882272779941559,0.28975915908813477,-0.59423828125,-0.060546875,0.8798828125
2023-08-01T15:55:27.963076,0.9512771964073181,0.036679383367300034,-0.09882272779941559,0.28975915908813477,-0.5927734375,-0.07861328125,0.86328125
2023-08-01T15:55:27.964073,0.9517830014228821,0.03529707342386246,-0.09857256710529327,0.2883516848087311,-0.5927734375,-0.07861328125,0.86328125
2023-08-01T15:55:27.965070,0.9517830014228821,0.03529707342386246,-0.09857256710529327,0.2883516848087311,-0.58740234375,-0.09228515625,0.85986328125
2023-08-01T15:55:27.965070,0.9522199034690857,0.03398382291197777,-0.09851521253585815,0.2870837450027466,-0.58740234375,-0.09228515625,0.85986328125
2023-08-01T15:55:27.967065,0.9522199034690857,0.03398382291197777,-0.09851521253585815,0.2870837450027466,-0.587890625,-0.107421875,0.8642578125
2023-08-01T15:55:27.968063,0.9525792598724365,0.032834406942129135,-0.09857510775327682,0.28600263595581055,-0.587890625,-0.107421875,0.8642578125
2023-08-01T15:55:27.974917,0.9525792598724365,0.032834406942129135,-0.09857510775327682,0.28600263595581055,-0.58251953125,-0.1171875,0.87255859375
2023-08-01T15:55:27.974917,0.952847957611084,0.03195805847644806,-0.09869616478681564,0.28516411781311035,-0.58251953125,-0.1171875,0.87255859375
2023-08-01T15:55:27.982641,0.952847957611084,0.03195805847644806,-0.09869616478681564,0.28516411781311035,-0.5732421875,-0.12158203125,0.8759765625
2023-08-01T15:55:27.983639,0.9530607461929321,0.031196916475892067,-0.09882842004299164,0.2844904959201813,-0.5732421875,-0.12158203125,0.8759765625
2023-08-01T15:55:27.999236,0.9530607461929321,0.031196916475892067,-0.09882842004299164,0.2844904959201813,-0.5615234375,-0.1240234375,0.875
2023-08-01T15:55:28.000399,0.9532355666160583,0.03048098459839821,-0.098985955119133,0.283926784992218,-0.5615234375,-0.1240234375,0.875
2023-08-01T15:55:28.013585,0.9532355666160583,0.03048098459839821,-0.098985955119133,0.283926784992218,-0.548828125,-0.1240234375,0.87158203125
2023-08-01T15:55:28.014582,0.9533841609954834,0.02986065484583378,-0.09917023777961731,0.28342923521995544,-0.548828125,-0.1240234375,0.87158203125
2023-08-01T15:55:28.014582,0.9533841609954834,0.02986065484583378,-0.09917023777961731,0.28342923521995544,-0.53955078125,-0.12060546875,0.8671875
2023-08-01T15:55:28.015580,0.953471839427948,0.02928736060857773,-0.09945527464151382,0.2830941379070282,-0.53955078125,-0.12060546875,0.8671875
2023-08-01T15:55:28.026573,0.953471839427948,0.02928736060857773,-0.09945527464151382,0.2830941379070282,-0.53466796875,-0.1142578125,0.8681640625
2023-08-01T15:55:28.028080,0.9535160660743713,0.028754597529768944,-0.09988430887460709,0.282848596572876,-0.53466796875,-0.1142578125,0.8681640625
2023-08-01T15:55:28.070294,0.9535160660743713,0.028754597529768944,-0.09988430887460709,0.282848596572876,-0.54248046875,-0.11083984375,0.8671875
2023-08-01T15:55:28.070294,0.9535117745399475,0.028295405209064484,-0.10049224644899368,0.2826941907405853,-0.54248046875,-0.11083984375,0.8671875
2023-08-01T15:55:28.071146,0.9535117745399475,0.028295405209064484,-0.10049224644899368,0.2826941907405853,-0.54541015625,-0.10693359375,0.87744140625
2023-08-01T15:55:28.093352,0.9534661769866943,0.02790125086903572,-0.10125003755092621,0.28261664509773254,-0.54541015625,-0.10693359375,0.87744140625
2023-08-01T15:55:28.094349,0.9534661769866943,0.02790125086903572,-0.10125003755092621,0.28261664509773254,-0.529296875,-0.10400390625,0.888671875
2023-08-01T15:55:28.111416,0.9534212946891785,0.027662191540002823,-0.10209629684686661,0.2824869751930237,-0.529296875,-0.10400390625,0.888671875
2023-08-01T15:55:28.112413,0.9534212946891785,0.027662191540002823,-0.10209629684686661,0.2824869751930237,-0.50537109375,-0.10791015625,0.90478515625
2023-08-01T15:55:28.113411,0.9533571600914001,0.027548260986804962,-0.10287249833345413,0.28243327140808105,-0.50537109375,-0.10791015625,0.90478515625
2023-08-01T15:55:28.113411,0.9533571600914001,0.027548260986804962,-0.10287249833345413,0.28243327140808105,-0.48583984375,-0.109375,0.916015625
2023-08-01T15:55:28.114408,0.9533101320266724,0.027478182688355446,-0.10342821478843689,0.28239572048187256,-0.48583984375,-0.109375,0.916015625
2023-08-01T15:55:28.114408,0.9533101320266724,0.027478182688355446,-0.10342821478843689,0.28239572048187256,-0.47705078125,-0.109375,0.9189453125
2023-08-01T15:55:28.115406,0.9532806873321533,0.02748914808034897,-0.10374157875776291,0.282379150390625,-0.47705078125,-0.109375,0.9189453125
2023-08-01T15:55:28.116403,0.9532806873321533,0.02748914808034897,-0.10374157875776291,0.282379150390625,-0.4765625,-0.10546875,0.91943359375
2023-08-01T15:55:28.117910,0.9533074498176575,0.02749897725880146,-0.10373897105455399,0.2822888195514679,-0.4765625,-0.10546875,0.91943359375
2023-08-01T15:55:28.117910,0.9533074498176575,0.02749897725880146,-0.10373897105455399,0.2822888195514679,-0.4775390625,-0.1015625,0.91748046875
2023-08-01T15:55:28.119414,0.9533768892288208,0.027452019974589348,-0.10351873934268951,0.28213948011398315,-0.4775390625,-0.1015625,0.91748046875
2023-08-01T15:55:28.120414,0.9533768892288208,0.027452019974589348,-0.10351873934268951,0.28213948011398315,-0.48095703125,-0.0966796875,0.90771484375
2023-08-01T15:55:28.150433,0.9534891843795776,0.027355115860700607,-0.10310086607933044,0.2819227874279022,-0.48095703125,-0.0966796875,0.90771484375
2023-08-01T15:55:28.151430,0.9534891843795776,0.027355115860700607,-0.10310086607933044,0.2819227874279022,-0.484375,-0.09375,0.89404296875
2023-08-01T15:55:28.178185,0.9536362290382385,0.02718660980463028,-0.10264420509338379,0.28160783648490906,-0.484375,-0.09375,0.89404296875
2023-08-01T15:55:28.179186,0.9536362290382385,0.02718660980463028,-0.10264420509338379,0.28160783648490906,-0.49462890625,-0.09228515625,0.89501953125
2023-08-01T15:55:28.179186,0.9537843465805054,0.026991354301571846,-0.10227189213037491,0.28126031160354614,-0.49462890625,-0.09228515625,0.89501953125
2023-08-01T15:55:28.179186,0.9537843465805054,0.026991354301571846,-0.10227189213037491,0.28126031160354614,-0.525390625,-0.09619140625,0.90576171875
2023-08-01T15:55:28.180214,0.9539586901664734,0.026773229241371155,-0.10206498205661774,0.2807644009590149,-0.525390625,-0.09619140625,0.90576171875
2023-08-01T15:55:28.181210,0.9539586901664734,0.026773229241371155,-0.10206498205661774,0.2807644009590149,-0.53466796875,-0.09912109375,0.9130859375
2023-08-01T15:55:28.195297,0.9541425704956055,0.026647791266441345,-0.10198929905891418,0.2801782190799713,-0.53466796875,-0.09912109375,0.9130859375
2023-08-01T15:55:28.196294,0.9541425704956055,0.026647791266441345,-0.10198929905891418,0.2801782190799713,-0.525390625,-0.1025390625,0.92138671875
2023-08-01T15:55:28.196294,0.9543184638023376,0.02655322477221489,-0.10193175077438354,0.2796090245246887,-0.525390625,-0.1025390625,0.92138671875
2023-08-01T15:55:28.197294,0.9543184638023376,0.02655322477221489,-0.10193175077438354,0.2796090245246887,-0.513671875,-0.1044921875,0.92041015625
2023-08-01T15:55:28.197294,0.9544950127601624,0.02657599002122879,-0.10179067403078079,0.2790548801422119,-0.513671875,-0.1044921875,0.92041015625
2023-08-01T15:55:28.198290,0.9544950127601624,0.02657599002122879,-0.10179067403078079,0.2790548801422119,-0.498046875,-0.10302734375,0.90869140625
2023-08-01T15:55:28.198793,0.9546615481376648,0.026557644829154015,-0.1015382930636406,0.278578519821167,-0.498046875,-0.10302734375,0.90869140625
2023-08-01T15:55:28.198793,0.9546615481376648,0.026557644829154015,-0.1015382930636406,0.278578519821167,-0.50048828125,-0.10302734375,0.90478515625
2023-08-01T15:55:28.200068,0.9548397660255432,0.026552176102995872,-0.10114340484142303,0.2781115770339966,-0.50048828125,-0.10302734375,0.90478515625
2023-08-01T15:55:28.200068,0.9548397660255432,0.026552176102995872,-0.10114340484142303,0.2781115770339966,-0.51611328125,-0.1015625,0.8994140625
2023-08-01T15:55:28.201065,0.9549957513809204,0.026570966467261314,-0.1007302850484848,0.2777239978313446,-0.51611328125,-0.1015625,0.8994140625
2023-08-01T15:55:28.214626,0.9549957513809204,0.026570966467261314,-0.1007302850484848,0.2777239978313446,-0.5234375,-0.095703125,0.88818359375
2023-08-01T15:55:28.214626,0.9551546573638916,0.02659403719007969,-0.10035955160856247,0.27730894088745117,-0.5234375,-0.095703125,0.88818359375
2023-08-01T15:55:28.222136,0.9551546573638916,0.02659403719007969,-0.10035955160856247,0.27730894088745117,-0.5166015625,-0.091796875,0.88134765625
2023-08-01T15:55:28.223134,0.9553056955337524,0.02662917971611023,-0.10003431886434555,0.27690261602401733,-0.5166015625,-0.091796875,0.88134765625
2023-08-01T15:55:28.229194,0.9553056955337524,0.02662917971611023,-0.10003431886434555,0.27690261602401733,-0.52197265625,-0.091796875,0.88623046875
2023-08-01T15:55:28.230329,0.9554396867752075,0.02666926011443138,-0.0998111292719841,0.2765165865421295,-0.52197265625,-0.091796875,0.88623046875
2023-08-01T15:55:28.244440,0.9554396867752075,0.02666926011443138,-0.0998111292719841,0.2765165865421295,-0.53515625,-0.0947265625,0.890625
2023-08-01T15:55:28.245438,0.9555507302284241,0.0266715195029974,-0.09968595206737518,0.2761778235435486,-0.53515625,-0.0947265625,0.890625
2023-08-01T15:55:28.251439,0.9555507302284241,0.0266715195029974,-0.09968595206737518,0.2761778235435486,-0.541015625,-0.0927734375,0.89013671875
2023-08-01T15:55:28.252437,0.9556551575660706,0.026709219440817833,-0.09967586398124695,0.2758164405822754,-0.541015625,-0.0927734375,0.89013671875
2023-08-01T15:55:28.258934,0.9556551575660706,0.026709219440817833,-0.09967586398124695,0.2758164405822754,-0.53515625,-0.09130859375,0.89111328125
2023-08-01T15:55:28.261230,0.9557453393936157,0.02676813304424286,-0.09974680840969086,0.27547210454940796,-0.53515625,-0.09130859375,0.89111328125
2023-08-01T15:55:28.275214,0.9557453393936157,0.02676813304424286,-0.09974680840969086,0.27547210454940796,-0.5263671875,-0.09326171875,0.89453125
2023-08-01T15:55:28.275214,0.9558314681053162,0.02683376893401146,-0.09984304755926132,0.27513208985328674,-0.5263671875,-0.09326171875,0.89453125
2023-08-01T15:55:28.282016,0.9558314681053162,0.02683376893401146,-0.09984304755926132,0.27513208985328674,-0.517578125,-0.09375,0.8916015625
2023-08-01T15:55:28.283014,0.9559065699577332,0.026897167786955833,-0.09994527697563171,0.2748270630836487,-0.517578125,-0.09375,0.8916015625
2023-08-01T15:55:28.289008,0.9559065699577332,0.026897167786955833,-0.09994527697563171,0.2748270630836487,-0.513671875,-0.095703125,0.8876953125
2023-08-01T15:55:28.290258,0.955974280834198,0.026967668905854225,-0.10007812827825546,0.2745363116264343,-0.513671875,-0.095703125,0.8876953125
2023-08-01T15:55:28.310795,0.955974280834198,0.026967668905854225,-0.10007812827825546,0.2745363116264343,-0.5185546875,-0.09619140625,0.89404296875
2023-08-01T15:55:28.311794,0.9560382962226868,0.02705562859773636,-0.1002684235572815,0.2742353677749634,-0.5185546875,-0.09619140625,0.89404296875
2023-08-01T15:55:28.312793,0.9560382962226868,0.02705562859773636,-0.1002684235572815,0.2742353677749634,-0.5205078125,-0.09375,0.89306640625
2023-08-01T15:55:28.312793,0.9561136960983276,0.02701563946902752,-0.10053709149360657,0.2738777697086334,-0.5205078125,-0.09375,0.89306640625
2023-08-01T15:55:28.325284,0.9561136960983276,0.02701563946902752,-0.10053709149360657,0.2738777697086334,-0.50634765625,-0.08837890625,0.8955078125
2023-08-01T15:55:28.327277,0.9562159776687622,0.026983685791492462,-0.10079503804445267,0.27342846989631653,-0.50634765625,-0.08837890625,0.8955078125
2023-08-01T15:55:28.333986,0.9562159776687622,0.026983685791492462,-0.10079503804445267,0.27342846989631653,-0.50439453125,-0.09521484375,0.9130859375
2023-08-01T15:55:28.334984,0.9563093781471252,0.026896294206380844,-0.10095687210559845,0.27305057644844055,-0.50439453125,-0.09521484375,0.9130859375
2023-08-01T15:55:28.341432,0.9563093781471252,0.026896294206380844,-0.10095687210559845,0.27305057644844055,-0.51611328125,-0.1025390625,0.90966796875
2023-08-01T15:55:28.342429,0.9563965797424316,0.02679121494293213,-0.10098746418952942,0.2727442979812622,-0.51611328125,-0.1025390625,0.90966796875
2023-08-01T15:55:28.348925,0.9563965797424316,0.02679121494293213,-0.10098746418952942,0.2727442979812622,-0.50390625,-0.10205078125,0.9013671875
2023-08-01T15:55:28.350086,0.9564847350120544,0.026709623634815216,-0.1010713055729866,0.2724117338657379,-0.50390625,-0.10205078125,0.9013671875
2023-08-01T15:55:28.356920,0.9564847350120544,0.026709623634815216,-0.1010713055729866,0.2724117338657379,-0.49853515625,-0.1025390625,0.90478515625
2023-08-01T15:55:28.364064,0.9565753936767578,0.026626288890838623,-0.10109570622444153,0.27209237217903137,-0.49853515625,-0.1025390625,0.90478515625
2023-08-01T15:55:28.371279,0.9565753936767578,0.026626288890838623,-0.10109570622444153,0.27209237217903137,-0.50732421875,-0.10302734375,0.9013671875
2023-08-01T15:55:28.372276,0.9566892981529236,0.026456085965037346,-0.1011994481086731,0.2716692090034485,-0.50732421875,-0.10302734375,0.9013671875
2023-08-01T15:55:28.378765,0.9566892981529236,0.026456085965037346,-0.1011994481086731,0.2716692090034485,-0.50244140625,-0.10302734375,0.9052734375
2023-08-01T15:55:28.379934,0.9567969441413879,0.026323234662413597,-0.10123803466558456,0.27128851413726807,-0.50244140625,-0.10302734375,0.9052734375
2023-08-01T15:55:28.386848,0.9567969441413879,0.026323234662413597,-0.10123803466558456,0.27128851413726807,-0.5126953125,-0.10791015625,0.91455078125
2023-08-01T15:55:28.387845,0.9568871855735779,0.02621546760201454,-0.10119224339723587,0.2709977924823761,-0.5126953125,-0.10791015625,0.91455078125
2023-08-01T15:55:28.402130,0.9568871855735779,0.02621546760201454,-0.10119224339723587,0.2709977924823761,-0.52099609375,-0.1123046875,0.90673828125
2023-08-01T15:55:28.402130,0.9569534063339233,0.02616984024643898,-0.10114044696092606,0.27078762650489807,-0.52099609375,-0.1123046875,0.90673828125
2023-08-01T15:55:28.409653,0.9569534063339233,0.02616984024643898,-0.10114044696092606,0.27078762650489807,-0.51611328125,-0.11181640625,0.90625
2023-08-01T15:55:28.409653,0.9569990038871765,0.026186875998973846,-0.10113603621721268,0.2706264555454254,-0.51611328125,-0.11181640625,0.90625
2023-08-01T15:55:28.416643,0.9569990038871765,0.026186875998973846,-0.10113603621721268,0.2706264555454254,-0.51416015625,-0.11474609375,0.90966796875
2023-08-01T15:55:28.416643,0.9570338726043701,0.026180438697338104,-0.10107287019491196,0.27052736282348633,-0.51416015625,-0.11474609375,0.90966796875
2023-08-01T15:55:28.432307,0.9570338726043701,0.026180438697338104,-0.10107287019491196,0.27052736282348633,-0.51904296875,-0.11083984375,0.9072265625
2023-08-01T15:55:28.432307,0.9570444822311401,0.02615197002887726,-0.10097216069698334,0.270530104637146,-0.51904296875,-0.11083984375,0.9072265625
2023-08-01T15:55:28.438794,0.9570444822311401,0.02615197002887726,-0.10097216069698334,0.270530104637146,-0.52001953125,-0.1083984375,0.90234375
2023-08-01T15:55:28.440119,0.9570545554161072,0.026124924421310425,-0.10087648779153824,0.2705327272415161,-0.52001953125,-0.1083984375,0.90234375
2023-08-01T15:55:28.447100,0.9570545554161072,0.026124924421310425,-0.10087648779153824,0.2705327272415161,-0.51953125,-0.1123046875,0.89990234375
2023-08-01T15:55:28.447100,0.9570606350898743,0.026174109429121017,-0.10078102350234985,0.2705422043800354,-0.51953125,-0.1123046875,0.89990234375
2023-08-01T15:55:28.462469,0.9570606350898743,0.026174109429121017,-0.10078102350234985,0.2705422043800354,-0.52099609375,-0.11279296875,0.89208984375
2023-08-01T15:55:28.462469,0.9570661783218384,0.026225322857499123,-0.10068951547145844,0.2705516517162323,-0.52099609375,-0.11279296875,0.89208984375
2023-08-01T15:55:28.468965,0.9570661783218384,0.026225322857499123,-0.10068951547145844,0.2705516517162323,-0.51611328125,-0.10595703125,0.88427734375
2023-08-01T15:55:28.470302,0.9570661783218384,0.026225322857499123,-0.10068951547145844,0.2705516517162323,-0.51611328125,-0.10595703125,0.88427734375
2023-08-01T15:55:28.476288,0.9570661783218384,0.026225322857499123,-0.10068951547145844,0.2705516517162323,-0.5009765625,-0.103515625,0.88427734375
2023-08-01T15:55:28.477285,0.9570720195770264,0.026209669187664986,-0.1006341353058815,0.2705531716346741,-0.5009765625,-0.103515625,0.88427734375
2023-08-01T15:55:28.492176,0.9570720195770264,0.026209669187664986,-0.1006341353058815,0.2705531716346741,-0.4931640625,-0.10302734375,0.8857421875
2023-08-01T15:55:28.493173,0.9570813179016113,0.026263998821377754,-0.10049913078546524,0.2705652117729187,-0.4931640625,-0.10302734375,0.8857421875
2023-08-01T15:55:28.499176,0.9570813179016113,0.026263998821377754,-0.10049913078546524,0.2705652117729187,-0.50439453125,-0.10546875,0.88671875
2023-08-01T15:55:28.499176,0.9570943117141724,0.02630835771560669,-0.10032885521650314,0.27057820558547974,-0.50439453125,-0.10546875,0.88671875
2023-08-01T15:55:28.506357,0.9570943117141724,0.02630835771560669,-0.10032885521650314,0.27057820558547974,-0.517578125,-0.10205078125,0.8828125
2023-08-01T15:55:28.506357,0.957104504108429,0.026365546509623528,-0.10018058121204376,0.2705911695957184,-0.517578125,-0.10205078125,0.8828125
2023-08-01T15:55:28.521987,0.957104504108429,0.026365546509623528,-0.10018058121204376,0.2705911695957184,-0.525390625,-0.09765625,0.8828125
2023-08-01T15:55:28.521987,0.9571021795272827,0.02644961327314377,-0.10015681385993958,0.27059996128082275,-0.525390625,-0.09765625,0.8828125
2023-08-01T15:55:28.528976,0.9571021795272827,0.02644961327314377,-0.10015681385993958,0.27059996128082275,-0.52978515625,-0.09765625,0.892578125
2023-08-01T15:55:28.529980,0.9571008682250977,0.026500606909394264,-0.10014241188764572,0.27060532569885254,-0.52978515625,-0.09765625,0.892578125
2023-08-01T15:55:28.536963,0.9571008682250977,0.026500606909394264,-0.10014241188764572,0.27060532569885254,-0.529296875,-0.10302734375,0.89794921875
2023-08-01T15:55:28.537961,0.9570891857147217,0.026588143780827522,-0.10022107511758804,0.2706089913845062,-0.529296875,-0.10302734375,0.89794921875
2023-08-01T15:55:28.551549,0.9570891857147217,0.026588143780827522,-0.10022107511758804,0.2706089913845062,-0.5234375,-0.103515625,0.89990234375
2023-08-01T15:55:28.552546,0.9570812582969666,0.026609519496560097,-0.10029667615890503,0.2706069052219391,-0.5234375,-0.103515625,0.89990234375
2023-08-01T15:55:28.559044,0.9570812582969666,0.026609519496560097,-0.10029667615890503,0.2706069052219391,-0.51611328125,-0.103515625,0.89599609375
2023-08-01T15:55:28.560184,0.9570578336715698,0.0266202874481678,-0.10035885125398636,0.27066570520401,-0.51611328125,-0.103515625,0.89599609375
2023-08-01T15:55:28.567045,0.9570578336715698,0.0266202874481678,-0.10035885125398636,0.27066570520401,-0.51611328125,-0.1083984375,0.8984375
2023-08-01T15:55:28.568042,0.9570421576499939,0.02666538953781128,-0.10034599900245667,0.27072134613990784,-0.51611328125,-0.1083984375,0.8984375
2023-08-01T15:55:28.582058,0.9570421576499939,0.02666538953781128,-0.10034599900245667,0.27072134613990784,-0.52001953125,-0.11083984375,0.89599609375
2023-08-01T15:55:28.582058,0.957016110420227,0.026655765250325203,-0.10034853965044022,0.27081307768821716,-0.52001953125,-0.11083984375,0.89599609375
2023-08-01T15:55:28.589249,0.957016110420227,0.026655765250325203,-0.10034853965044022,0.27081307768821716,-0.5126953125,-0.10791015625,0.8857421875
2023-08-01T15:55:28.590594,0.9570021033287048,0.026650581508874893,-0.10034991800785065,0.27086251974105835,-0.5126953125,-0.10791015625,0.8857421875
2023-08-01T15:55:28.596577,0.9570021033287048,0.026650581508874893,-0.10034991800785065,0.27086251974105835,-0.5048828125,-0.10595703125,0.88720703125
2023-08-01T15:55:28.598084,0.9569790363311768,0.026642028242349625,-0.10035219043493271,0.27094408869743347,-0.5048828125,-0.10595703125,0.88720703125
2023-08-01T15:55:28.612430,0.9569790363311768,0.026642028242349625,-0.10035219043493271,0.27094408869743347,-0.50927734375,-0.1103515625,0.89208984375
2023-08-01T15:55:28.612430,0.9569419622421265,0.026679202914237976,-0.10034143924713135,0.2710753083229065,-0.50927734375,-0.1103515625,0.89208984375
2023-08-01T15:55:28.619429,0.9569419622421265,0.026679202914237976,-0.10034143924713135,0.2710753083229065,-0.5166015625,-0.10791015625,0.88818359375
2023-08-01T15:55:28.626413,0.9569162726402283,0.0266696959733963,-0.1003439649939537,0.27116596698760986,-0.5166015625,-0.10791015625,0.88818359375
2023-08-01T15:55:28.626413,0.9569162726402283,0.0266696959733963,-0.1003439649939537,0.27116596698760986,-0.5146484375,-0.099609375,0.88818359375
2023-08-01T15:55:28.627919,0.9568991661071777,0.02666335739195347,-0.10034564882516861,0.2712264060974121,-0.5146484375,-0.099609375,0.88818359375
2023-08-01T15:55:28.641330,0.9568991661071777,0.02666335739195347,-0.10034564882516861,0.2712264060974121,-0.51318359375,-0.1025390625,0.89404296875
2023-08-01T15:55:28.642328,0.9568777680397034,0.02665543369948864,-0.10034775733947754,0.2713019549846649,-0.51318359375,-0.1025390625,0.89404296875
2023-08-01T15:55:28.649821,0.9568777680397034,0.02665543369948864,-0.10034775733947754,0.2713019549846649,-0.5244140625,-0.10498046875,0.89697265625
2023-08-01T15:55:28.649924,0.9568606019020081,0.026649095118045807,-0.10034944117069244,0.27136239409446716,-0.5244140625,-0.10498046875,0.89697265625
2023-08-01T15:55:28.656805,0.9568606019020081,0.026649095118045807,-0.10034944117069244,0.27136239409446716,-0.5263671875,-0.1044921875,0.8955078125
2023-08-01T15:55:28.656805,0.9568505883216858,0.026676245033740997,-0.10044517368078232,0.27135974168777466,-0.5263671875,-0.1044921875,0.8955078125
2023-08-01T15:55:28.664884,0.9568505883216858,0.026676245033740997,-0.10044517368078232,0.27135974168777466,-0.51953125,-0.1015625,0.89453125
2023-08-01T15:55:28.671888,0.9568213224411011,0.026706503704190254,-0.10057419538497925,0.2714122533798218,-0.51953125,-0.1015625,0.89453125
2023-08-01T15:55:28.678935,0.9568213224411011,0.026706503704190254,-0.10057419538497925,0.2714122533798218,-0.51611328125,-0.1015625,0.89697265625
2023-08-01T15:55:28.680256,0.956806480884552,0.026746515184640884,-0.10071524977684021,0.2714083194732666,-0.51611328125,-0.1015625,0.89697265625
2023-08-01T15:55:28.687238,0.956806480884552,0.026746515184640884,-0.10071524977684021,0.2714083194732666,-0.5185546875,-0.103515625,0.89697265625
2023-08-01T15:55:28.694271,0.9567736387252808,0.026791226118803024,-0.10089296102523804,0.27145376801490784,-0.5185546875,-0.103515625,0.89697265625
2023-08-01T15:55:28.695267,0.9567736387252808,0.026791226118803024,-0.10089296102523804,0.27145376801490784,-0.51416015625,-0.1015625,0.8896484375
2023-08-01T15:55:28.695267,0.9567545056343079,0.026842674240469933,-0.10107430070638657,0.27144870162010193,-0.51416015625,-0.1015625,0.8896484375
2023-08-01T15:55:28.708957,0.9567545056343079,0.026842674240469933,-0.10107430070638657,0.27144870162010193,-0.501953125,-0.09912109375,0.884765625
2023-08-01T15:55:28.709854,0.9567363858222961,0.02689126506447792,-0.10124555975198746,0.2714439034461975,-0.501953125,-0.09912109375,0.884765625
2023-08-01T15:55:28.716847,0.9567363858222961,0.02689126506447792,-0.10124555975198746,0.2714439034461975,-0.50537109375,-0.10107421875,0.8984375
2023-08-01T15:55:28.716847,0.9567081928253174,0.02692309394478798,-0.1013779491186142,0.27149057388305664,-0.50537109375,-0.10107421875,0.8984375
2023-08-01T15:55:28.724407,0.9567081928253174,0.02692309394478798,-0.1013779491186142,0.27149057388305664,-0.5166015625,-0.103515625,0.9013671875
2023-08-01T15:55:28.724407,0.956695556640625,0.02700348198413849,-0.10146944969892502,0.27149292826652527,-0.5166015625,-0.103515625,0.9013671875
2023-08-01T15:55:28.738943,0.956695556640625,0.02700348198413849,-0.10146944969892502,0.27149292826652527,-0.515625,-0.1015625,0.9013671875
2023-08-01T15:55:28.739967,0.9566841125488281,0.027090681716799736,-0.1015438586473465,0.27149683237075806,-0.515625,-0.1015625,0.9013671875
2023-08-01T15:55:28.746950,0.9566841125488281,0.027090681716799736,-0.1015438586473465,0.27149683237075806,-0.5107421875,-0.09716796875,0.90478515625
2023-08-01T15:55:28.746950,0.9566841125488281,0.027090681716799736,-0.1015438586473465,0.27149683237075806,-0.5107421875,-0.09716796875,0.90478515625
2023-08-01T15:55:28.753949,0.9566841125488281,0.027090681716799736,-0.1015438586473465,0.27149683237075806,-0.50927734375,-0.09765625,0.90380859375
2023-08-01T15:55:28.754947,0.9566841125488281,0.027090681716799736,-0.1015438586473465,0.27149683237075806,-0.50927734375,-0.09765625,0.90380859375
2023-08-01T15:55:28.769475,0.9566841125488281,0.027090681716799736,-0.1015438586473465,0.27149683237075806,-0.51220703125,-0.09716796875,0.8974609375
2023-08-01T15:55:28.770476,0.956682562828064,0.027146082371473312,-0.10152813792228699,0.27150270342826843,-0.51220703125,-0.09716796875,0.8974609375
2023-08-01T15:55:28.776460,0.956682562828064,0.027146082371473312,-0.10152813792228699,0.27150270342826843,-0.5146484375,-0.09814453125,0.89501953125
2023-08-01T15:55:28.776460,0.9566811323165894,0.027196448296308517,-0.10151384770870209,0.27150803804397583,-0.5146484375,-0.09814453125,0.89501953125
2023-08-01T15:55:28.783981,0.9566811323165894,0.027196448296308517,-0.10151384770870209,0.27150803804397583,-0.51953125,-0.09814453125,0.89501953125
2023-08-01T15:55:28.784977,0.9566811323165894,0.027196448296308517,-0.10151384770870209,0.27150803804397583,-0.51953125,-0.09814453125,0.89501953125
2023-08-01T15:55:28.799145,0.9566811323165894,0.027196448296308517,-0.10151384770870209,0.27150803804397583,-0.5166015625,-0.0986328125,0.89453125
2023-08-01T15:55:28.800150,0.9566715955734253,0.02722170203924179,-0.10160282999277115,0.2715054750442505,-0.5166015625,-0.0986328125,0.89453125
2023-08-01T15:55:28.807134,0.9566715955734253,0.02722170203924179,-0.10160282999277115,0.2715054750442505,-0.51318359375,-0.0966796875,0.89404296875
2023-08-01T15:55:28.807134,0.9566656351089478,0.02723762020468712,-0.10165891796350479,0.27150386571884155,-0.51318359375,-0.0966796875,0.89404296875
2023-08-01T15:55:28.814578,0.9566656351089478,0.02723762020468712,-0.10165891796350479,0.27150386571884155,-0.5078125,-0.09765625,0.88916015625
2023-08-01T15:55:28.814578,0.9566582441329956,0.027257641777396202,-0.10172946751117706,0.27150189876556396,-0.5078125,-0.09765625,0.88916015625
2023-08-01T15:55:28.837240,0.9566582441329956,0.027257641777396202,-0.10172946751117706,0.27150189876556396,-0.50732421875,-0.10107421875,0.892578125
2023-08-01T15:55:28.837240,0.9566596746444702,0.02720729634165764,-0.10174375772476196,0.2714965343475342,-0.50732421875,-0.10107421875,0.892578125
2023-08-01T15:55:28.838238,0.9566596746444702,0.02720729634165764,-0.10174375772476196,0.2714965343475342,-0.51220703125,-0.10205078125,0.8935546875
2023-08-01T15:55:28.844334,0.9566596746444702,0.02720729634165764,-0.10174375772476196,0.2714965343475342,-0.51220703125,-0.10205078125,0.8935546875
2023-08-01T15:55:28.844334,0.9566596746444702,0.02720729634165764,-0.10174375772476196,0.2714965343475342,-0.51025390625,-0.099609375,0.8916015625
2023-08-01T15:55:28.845332,0.9566596746444702,0.02720729634165764,-0.10174375772476196,0.2714965343475342,-0.51025390625,-0.099609375,0.8916015625
2023-08-01T15:55:28.859985,0.9566596746444702,0.02720729634165764,-0.10174375772476196,0.2714965343475342,-0.4990234375,-0.0986328125,0.89501953125
2023-08-01T15:55:28.861834,0.9566596746444702,0.02720729634165764,-0.10174375772476196,0.2714965343475342,-0.4990234375,-0.0986328125,0.89501953125
2023-08-01T15:55:28.866821,0.9566596746444702,0.02720729634165764,-0.10174375772476196,0.2714965343475342,-0.4970703125,-0.10009765625,0.89794921875
2023-08-01T15:55:28.866821,0.9566686749458313,0.027183009311556816,-0.1016581729054451,0.2714989483356476,-0.4970703125,-0.10009765625,0.89794921875
2023-08-01T15:55:28.874247,0.9566686749458313,0.027183009311556816,-0.1016581729054451,0.2714989483356476,-0.5087890625,-0.10205078125,0.8984375
2023-08-01T15:55:28.875245,0.956680953502655,0.027150150388479233,-0.1015423908829689,0.27150222659111023,-0.5087890625,-0.10205078125,0.8984375
2023-08-01T15:55:28.889682,0.956680953502655,0.027150150388479233,-0.1015423908829689,0.27150222659111023,-0.515625,-0.09912109375,0.89990234375
2023-08-01T15:55:28.890303,0.9567152261734009,0.02712387964129448,-0.10141942650079727,0.2714301347732544,-0.515625,-0.09912109375,0.89990234375
2023-08-01T15:55:28.896666,0.9567152261734009,0.02712387964129448,-0.10141942650079727,0.2714301347732544,-0.515625,-0.099609375,0.90283203125
2023-08-01T15:55:28.896666,0.9567497968673706,0.02701793983578682,-0.10132449865341187,0.2713543474674225,-0.515625,-0.099609375,0.90283203125
2023-08-01T15:55:28.904666,0.9567497968673706,0.02701793983578682,-0.10132449865341187,0.2713543474674225,-0.5146484375,-0.10205078125,0.90234375
2023-08-01T15:55:28.904666,0.9567797183990479,0.026938967406749725,-0.10123278200626373,0.27129101753234863,-0.5146484375,-0.10205078125,0.90234375
2023-08-01T15:55:28.918917,0.9567797183990479,0.026938967406749725,-0.10123278200626373,0.27129101753234863,-0.51904296875,-0.103515625,0.89697265625
2023-08-01T15:55:28.919944,0.9567871689796448,0.026918986812233925,-0.10116231441497803,0.2712930142879486,-0.51904296875,-0.103515625,0.89697265625
2023-08-01T15:55:28.926926,0.9567871689796448,0.026918986812233925,-0.10116231441497803,0.2712930142879486,-0.51806640625,-0.1064453125,0.8916015625
2023-08-01T15:55:28.927923,0.9567871689796448,0.026918986812233925,-0.10116231441497803,0.2712930142879486,-0.51806640625,-0.1064453125,0.8916015625
2023-08-01T15:55:28.934109,0.9567871689796448,0.026918986812233925,-0.10116231441497803,0.2712930142879486,-0.50927734375,-0.10791015625,0.89111328125
2023-08-01T15:55:28.935107,0.9567871689796448,0.026918986812233925,-0.10116231441497803,0.2712930142879486,-0.50927734375,-0.10791015625,0.89111328125
2023-08-01T15:55:28.949390,0.9567871689796448,0.026918986812233925,-0.10116231441497803,0.2712930142879486,-0.51025390625,-0.10888671875,0.8994140625
2023-08-01T15:55:28.951388,0.9567871689796448,0.026918986812233925,-0.10116231441497803,0.2712930142879486,-0.51025390625,-0.10888671875,0.8994140625
2023-08-01T15:55:28.960444,0.9567871689796448,0.026918986812233925,-0.10116231441497803,0.2712930142879486,-0.51806640625,-0.10888671875,0.89794921875
2023-08-01T15:55:28.960444,0.9567871689796448,0.026918986812233925,-0.10116231441497803,0.2712930142879486,-0.51806640625,-0.10888671875,0.89794921875
2023-08-01T15:55:28.966435,0.9567871689796448,0.026918986812233925,-0.10116231441497803,0.2712930142879486,-0.51220703125,-0.10546875,0.8984375
2023-08-01T15:55:28.966435,0.9567871689796448,0.026918986812233925,-0.10116231441497803,0.2712930142879486,-0.51220703125,-0.10546875,0.8984375
2023-08-01T15:55:28.972002,0.9567871689796448,0.026918986812233925,-0.10116231441497803,0.2712930142879486,-0.50927734375,-0.10400390625,0.89892578125
2023-08-01T15:55:28.973000,0.9567962288856506,0.026894722133874893,-0.10107673704624176,0.271295428276062,-0.50927734375,-0.10400390625,0.89892578125
2023-08-01T15:55:28.987331,0.9567962288856506,0.026894722133874893,-0.10107673704624176,0.271295428276062,-0.51171875,-0.10595703125,0.8974609375
2023-08-01T15:55:28.987331,0.9568084478378296,0.0268618892878294,-0.10096094012260437,0.27129867672920227,-0.51171875,-0.10595703125,0.8974609375
2023-08-01T15:55:28.994154,0.9568084478378296,0.0268618892878294,-0.10096094012260437,0.27129867672920227,-0.517578125,-0.10546875,0.896484375
2023-08-01T15:55:28.995150,0.9568228125572205,0.026823343709111214,-0.1008249968290329,0.2713024914264679,-0.517578125,-0.10546875,0.896484375
2023-08-01T15:55:29.002177,0.9568228125572205,0.026823343709111214,-0.1008249968290329,0.2713024914264679,-0.52197265625,-0.10498046875,0.896484375
2023-08-01T15:55:29.002177,0.9568365812301636,0.02678622491657734,-0.10069409012794495,0.2713061571121216,-0.52197265625,-0.10498046875,0.896484375
2023-08-01T15:55:29.030469,0.9568365812301636,0.02678622491657734,-0.10069409012794495,0.2713061571121216,-0.515625,-0.10302734375,0.8896484375
2023-08-01T15:55:29.030469,0.9568446278572083,0.026764558628201485,-0.1006176769733429,0.2713083028793335,-0.515625,-0.10302734375,0.8896484375
2023-08-01T15:55:29.032464,0.9568446278572083,0.026764558628201485,-0.1006176769733429,0.2713083028793335,-0.50830078125,-0.10205078125,0.8916015625
2023-08-01T15:55:29.032464,0.9568589329719543,0.02672601118683815,-0.10048172622919083,0.2713121175765991,-0.50830078125,-0.10205078125,0.8916015625
2023-08-01T15:55:29.033461,0.9568589329719543,0.02672601118683815,-0.10048172622919083,0.2713121175765991,-0.5087890625,-0.10546875,0.8984375
2023-08-01T15:55:29.033461,0.9568794369697571,0.026670321822166443,-0.10028532147407532,0.27131757140159607,-0.5087890625,-0.10546875,0.8984375
2023-08-01T15:55:29.046954,0.9568794369697571,0.026670321822166443,-0.10028532147407532,0.27131757140159607,-0.515625,-0.10595703125,0.8935546875
2023-08-01T15:55:29.050633,0.9568994641304016,0.026616062968969345,-0.10009396821260452,0.27132290601730347,-0.515625,-0.10595703125,0.8935546875
2023-08-01T15:55:29.055627,0.9568994641304016,0.026616062968969345,-0.10009396821260452,0.27132290601730347,-0.52001953125,-0.1025390625,0.89111328125
2023-08-01T15:55:29.055627,0.956916332244873,0.0266215018928051,-0.09990200400352478,0.27133357524871826,-0.52001953125,-0.1025390625,0.89111328125
2023-08-01T15:55:29.062163,0.956916332244873,0.0266215018928051,-0.09990200400352478,0.27133357524871826,-0.517578125,-0.10205078125,0.888671875
2023-08-01T15:55:29.063159,0.9569312334060669,0.026581045240163803,-0.09975932538509369,0.2713375389575958,-0.517578125,-0.10205078125,0.888671875
2023-08-01T15:55:29.077148,0.9569312334060669,0.026581045240163803,-0.09975932538509369,0.2713375389575958,-0.517578125,-0.103515625,0.88720703125
2023-08-01T15:55:29.079155,0.9569427967071533,0.02654963545501232,-0.09964855015277863,0.27134060859680176,-0.517578125,-0.103515625,0.88720703125
2023-08-01T15:55:29.084159,0.9569427967071533,0.02654963545501232,-0.09964855015277863,0.27134060859680176,-0.52294921875,-0.1044921875,0.8916015625
2023-08-01T15:55:29.085157,0.9569411277770996,0.02661008946597576,-0.0996314063668251,0.27134689688682556,-0.52294921875,-0.1044921875,0.8916015625
2023-08-01T15:55:29.091783,0.9569411277770996,0.02661008946597576,-0.0996314063668251,0.27134689688682556,-0.52587890625,-0.10302734375,0.89453125
2023-08-01T15:55:29.092780,0.956939160823822,0.026680616661906242,-0.09961140900850296,0.27135422825813293,-0.52587890625,-0.10302734375,0.89453125
2023-08-01T15:55:29.106476,0.956939160823822,0.026680616661906242,-0.09961140900850296,0.27135422825813293,-0.5244140625,-0.10009765625,0.89453125
2023-08-01T15:55:29.108984,0.9569377303123474,0.026730995625257492,-0.09959712624549866,0.27135947346687317,-0.5244140625,-0.10009765625,0.89453125
2023-08-01T15:55:29.115478,0.9569377303123474,0.026730995625257492,-0.09959712624549866,0.27135947346687317,-0.517578125,-0.10009765625,0.896484375
2023-08-01T15:55:29.116475,0.9569272398948669,0.026759572327136993,-0.09969790279865265,0.2713566720485687,-0.517578125,-0.10009765625,0.896484375
2023-08-01T15:55:29.122500,0.9569272398948669,0.026759572327136993,-0.09969790279865265,0.2713566720485687,-0.51416015625,-0.1015625,0.89892578125
2023-08-01T15:55:29.124496,0.9569188356399536,0.026782436296343803,-0.09977853298187256,0.27135440707206726,-0.51416015625,-0.1015625,0.89892578125
2023-08-01T15:55:29.147999,0.9569188356399536,0.026782436296343803,-0.09977853298187256,0.27135440707206726,-0.51513671875,-0.103515625,0.8994140625
2023-08-01T15:55:29.149503,0.9569113850593567,0.026802681386470795,-0.09984993189573288,0.2713524103164673,-0.51513671875,-0.103515625,0.8994140625
2023-08-01T15:55:29.149503,0.9569113850593567,0.026802681386470795,-0.09984993189573288,0.2713524103164673,-0.5126953125,-0.10205078125,0.89892578125
2023-08-01T15:55:29.152499,0.9569056034088135,0.026818403974175453,-0.09990537166595459,0.2713508605957031,-0.5126953125,-0.10205078125,0.89892578125
2023-08-01T15:55:29.153496,0.9569056034088135,0.026818403974175453,-0.09990537166595459,0.2713508605957031,-0.51123046875,-0.1025390625,0.8994140625
2023-08-01T15:55:29.154493,0.9569056034088135,0.026818403974175453,-0.09990537166595459,0.2713508605957031,-0.51123046875,-0.1025390625,0.8994140625
2023-08-01T15:55:29.167071,0.9569056034088135,0.026818403974175453,-0.09990537166595459,0.2713508605957031,-0.51171875,-0.1015625,0.89599609375
2023-08-01T15:55:29.168070,0.9569040536880493,0.02687447890639305,-0.09988947212696075,0.2713567018508911,-0.51171875,-0.1015625,0.89599609375
2023-08-01T15:55:29.174279,0.9569040536880493,0.02687447890639305,-0.09988947212696075,0.2713567018508911,-0.513671875,-0.1005859375,0.8935546875
2023-08-01T15:55:29.175277,0.9569040536880493,0.02687447890639305,-0.09988947212696075,0.2713567018508911,-0.513671875,-0.1005859375,0.8935546875
2023-08-01T15:55:29.182256,0.9569040536880493,0.02687447890639305,-0.09988947212696075,0.2713567018508911,-0.5126953125,-0.099609375,0.892578125
2023-08-01T15:55:29.183254,0.9569040536880493,0.02687447890639305,-0.09988947212696075,0.2713567018508911,-0.5126953125,-0.099609375,0.892578125
2023-08-01T15:55:29.197198,0.9569040536880493,0.02687447890639305,-0.09988947212696075,0.2713567018508911,-0.513671875,-0.09814453125,0.8896484375
2023-08-01T15:55:29.197198,0.9569040536880493,0.02687447890639305,-0.09988947212696075,0.2713567018508911,-0.513671875,-0.09814453125,0.8896484375
2023-08-01T15:55:29.205353,0.9569040536880493,0.02687447890639305,-0.09988947212696075,0.2713567018508911,-0.52099609375,-0.1015625,0.89208984375
2023-08-01T15:55:29.205353,0.9569040536880493,0.02687447890639305,-0.09988947212696075,0.2713567018508911,-0.52099609375,-0.1015625,0.89208984375
2023-08-01T15:55:29.246080,0.9569040536880493,0.02687447890639305,-0.09988947212696075,0.2713567018508911,-0.52294921875,-0.099609375,0.89111328125
2023-08-01T15:55:29.247078,0.9569040536880493,0.02687447890639305,-0.09988947212696075,0.2713567018508911,-0.52294921875,-0.099609375,0.89111328125
2023-08-01T15:55:29.248076,0.9569040536880493,0.02687447890639305,-0.09988947212696075,0.2713567018508911,-0.51708984375,-0.09716796875,0.8896484375
2023-08-01T15:55:29.248076,0.9568977355957031,0.02689162828028202,-0.09994994848966599,0.271355003118515,-0.51708984375,-0.09716796875,0.8896484375
2023-08-01T15:55:29.249129,0.9568977355957031,0.02689162828028202,-0.09994994848966599,0.271355003118515,-0.515625,-0.099609375,0.89208984375
2023-08-01T15:55:29.249129,0.9568977355957031,0.02689162828028202,-0.09994994848966599,0.271355003118515,-0.515625,-0.099609375,0.89208984375
2023-08-01T15:55:29.250244,0.9568977355957031,0.02689162828028202,-0.09994994848966599,0.271355003118515,-0.513671875,-0.09814453125,0.8935546875
2023-08-01T15:55:29.251241,0.9568977355957031,0.02689162828028202,-0.09994994848966599,0.271355003118515,-0.513671875,-0.09814453125,0.8935546875
2023-08-01T15:55:29.251241,0.9568977355957031,0.02689162828028202,-0.09994994848966599,0.271355003118515,-0.5126953125,-0.09765625,0.89697265625
2023-08-01T15:55:29.257224,0.9568977355957031,0.02689162828028202,-0.09994994848966599,0.271355003118515,-0.5126953125,-0.09765625,0.89697265625
2023-08-01T15:55:29.263801,0.9568977355957031,0.02689162828028202,-0.09994994848966599,0.271355003118515,-0.50927734375,-0.099609375,0.89697265625
2023-08-01T15:55:29.264798,0.9568977355957031,0.02689162828028202,-0.09994994848966599,0.271355003118515,-0.50927734375,-0.099609375,0.89697265625
2023-08-01T15:55:29.272297,0.9568977355957031,0.02689162828028202,-0.09994994848966599,0.271355003118515,-0.50927734375,-0.0986328125,0.8974609375
2023-08-01T15:55:29.273295,0.9568977355957031,0.02689162828028202,-0.09994994848966599,0.271355003118515,-0.50927734375,-0.0986328125,0.8974609375
2023-08-01T15:55:29.279907,0.9568977355957031,0.02689162828028202,-0.09994994848966599,0.271355003118515,-0.5146484375,-0.1015625,0.8955078125
2023-08-01T15:55:29.281040,0.9569051861763,0.02687140367925167,-0.09987863153219223,0.271356999874115,-0.5146484375,-0.1015625,0.8955078125
2023-08-01T15:55:29.294204,0.9569051861763,0.02687140367925167,-0.09987863153219223,0.271356999874115,-0.521484375,-0.1025390625,0.89306640625
2023-08-01T15:55:29.295202,0.9569120407104492,0.026852846145629883,-0.09981319308280945,0.271358847618103,-0.521484375,-0.1025390625,0.89306640625
2023-08-01T15:55:29.302284,0.9569120407104492,0.026852846145629883,-0.09981319308280945,0.271358847618103,-0.52197265625,-0.10205078125,0.890625
2023-08-01T15:55:29.302284,0.9569120407104492,0.026852846145629883,-0.09981319308280945,0.271358847618103,-0.52197265625,-0.10205078125,0.890625
2023-08-01T15:55:29.309867,0.9569120407104492,0.026852846145629883,-0.09981319308280945,0.271358847618103,-0.51953125,-0.099609375,0.8896484375
2023-08-01T15:55:29.316851,0.9569120407104492,0.026852846145629883,-0.09981319308280945,0.271358847618103,-0.51953125,-0.099609375,0.8896484375
2023-08-01T15:55:29.324850,0.9569120407104492,0.026852846145629883,-0.09981319308280945,0.271358847618103,-0.52099609375,-0.10107421875,0.89208984375
2023-08-01T15:55:29.325847,0.9569120407104492,0.026852846145629883,-0.09981319308280945,0.271358847618103,-0.52099609375,-0.10107421875,0.89208984375
2023-08-01T15:55:29.331932,0.9569120407104492,0.026852846145629883,-0.09981319308280945,0.271358847618103,-0.52197265625,-0.09814453125,0.892578125
2023-08-01T15:55:29.331932,0.9569120407104492,0.026852846145629883,-0.09981319308280945,0.271358847618103,-0.52197265625,-0.09814453125,0.892578125
2023-08-01T15:55:29.338922,0.9569120407104492,0.026852846145629883,-0.09981319308280945,0.271358847618103,-0.51611328125,-0.09814453125,0.888671875
2023-08-01T15:55:29.343145,0.9569120407104492,0.026852846145629883,-0.09981319308280945,0.271358847618103,-0.51611328125,-0.09814453125,0.888671875
2023-08-01T15:55:29.355300,0.9569120407104492,0.026852846145629883,-0.09981319308280945,0.271358847618103,-0.515625,-0.09912109375,0.8896484375
2023-08-01T15:55:29.356297,0.9569120407104492,0.026852846145629883,-0.09981319308280945,0.271358847618103,-0.515625,-0.09912109375,0.8896484375
2023-08-01T15:55:29.361798,0.9569120407104492,0.026852846145629883,-0.09981319308280945,0.271358847618103,-0.5205078125,-0.0986328125,0.8935546875
2023-08-01T15:55:29.362796,0.9569120407104492,0.026852846145629883,-0.09981319308280945,0.271358847618103,-0.5205078125,-0.0986328125,0.8935546875
2023-08-01T15:55:29.370419,0.9569120407104492,0.026852846145629883,-0.09981319308280945,0.271358847618103,-0.51611328125,-0.09814453125,0.89501953125
2023-08-01T15:55:29.371418,0.9569120407104492,0.026852846145629883,-0.09981319308280945,0.271358847618103,-0.51611328125,-0.09814453125,0.89501953125
2023-08-01T15:55:29.387123,0.9569120407104492,0.026852846145629883,-0.09981319308280945,0.271358847618103,-0.5107421875,-0.09814453125,0.8935546875
2023-08-01T15:55:29.388120,0.9569134712219238,0.026802487671375275,-0.09982747584581375,0.2713536024093628,-0.5107421875,-0.09814453125,0.8935546875
2023-08-01T15:55:29.391213,0.9569134712219238,0.026802487671375275,-0.09982747584581375,0.2713536024093628,-0.51220703125,-0.0986328125,0.89404296875
2023-08-01T15:55:29.392211,0.9569134712219238,0.026802487671375275,-0.09982747584581375,0.2713536024093628,-0.51220703125,-0.0986328125,0.89404296875
2023-08-01T15:55:29.399200,0.9569134712219238,0.026802487671375275,-0.09982747584581375,0.2713536024093628,-0.517578125,-0.10205078125,0.8935546875
2023-08-01T15:55:29.406562,0.95691978931427,0.026785358786582947,-0.09976707398891449,0.2713553011417389,-0.517578125,-0.10205078125,0.8935546875
2023-08-01T15:55:29.414561,0.95691978931427,0.026785358786582947,-0.09976707398891449,0.2713553011417389,-0.52294921875,-0.1005859375,0.8955078125
2023-08-01T15:55:29.414561,0.95691978931427,0.026785358786582947,-0.09976707398891449,0.2713553011417389,-0.52294921875,-0.1005859375,0.8955078125
2023-08-01T15:55:29.421603,0.95691978931427,0.026785358786582947,-0.09976707398891449,0.2713553011417389,-0.51953125,-0.10107421875,0.89453125
2023-08-01T15:55:29.422600,0.95691978931427,0.026785358786582947,-0.09976707398891449,0.2713553011417389,-0.51953125,-0.10107421875,0.89453125
2023-08-01T15:55:29.429096,0.95691978931427,0.026785358786582947,-0.09976707398891449,0.2713553011417389,-0.5166015625,-0.10205078125,0.892578125
2023-08-01T15:55:29.434090,0.95691978931427,0.026785358786582947,-0.09976707398891449,0.2713553011417389,-0.5166015625,-0.10205078125,0.892578125
2023-08-01T15:55:29.445366,0.95691978931427,0.026785358786582947,-0.09976707398891449,0.2713553011417389,-0.5166015625,-0.1025390625,0.888671875
2023-08-01T15:55:29.445366,0.95691978931427,0.026785358786582947,-0.09976707398891449,0.2713553011417389,-0.5166015625,-0.1025390625,0.888671875
2023-08-01T15:55:29.452880,0.95691978931427,0.026785358786582947,-0.09976707398891449,0.2713553011417389,-0.5146484375,-0.1015625,0.89208984375
2023-08-01T15:55:29.453879,0.95691978931427,0.026785358786582947,-0.09976707398891449,0.2713553011417389,-0.5146484375,-0.1015625,0.89208984375
2023-08-01T15:55:29.458942,0.95691978931427,0.026785358786582947,-0.09976707398891449,0.2713553011417389,-0.5166015625,-0.1025390625,0.89306640625
2023-08-01T15:55:29.460148,0.95691978931427,0.026785358786582947,-0.09976707398891449,0.2713553011417389,-0.5166015625,-0.1025390625,0.89306640625
2023-08-01T15:55:29.474324,0.95691978931427,0.026785358786582947,-0.09976707398891449,0.2713553011417389,-0.5205078125,-0.1025390625,0.89404296875
2023-08-01T15:55:29.475322,0.95691978931427,0.026785358786582947,-0.09976707398891449,0.2713553011417389,-0.5205078125,-0.1025390625,0.89404296875
2023-08-01T15:55:29.481818,0.95691978931427,0.026785358786582947,-0.09976707398891449,0.2713553011417389,-0.51953125,-0.1005859375,0.8935546875
2023-08-01T15:55:29.482817,0.95691978931427,0.026785358786582947,-0.09976707398891449,0.2713553011417389,-0.51953125,-0.1005859375,0.8935546875
2023-08-01T15:55:29.490221,0.95691978931427,0.026785358786582947,-0.09976707398891449,0.2713553011417389,-0.51806640625,-0.099609375,0.8955078125
2023-08-01T15:55:29.490221,0.95691978931427,0.026785358786582947,-0.09976707398891449,0.2713553011417389,-0.51806640625,-0.099609375,0.8955078125
2023-08-01T15:55:29.497202,0.95691978931427,0.026785358786582947,-0.09976707398891449,0.2713553011417389,-0.513671875,-0.10009765625,0.892578125
2023-08-01T15:55:29.504254,0.9569145441055298,0.026799652725458145,-0.09981747716665268,0.27135390043258667,-0.513671875,-0.10009765625,0.892578125
2023-08-01T15:55:29.512250,0.9569145441055298,0.026799652725458145,-0.09981747716665268,0.27135390043258667,-0.5107421875,-0.1005859375,0.89697265625
2023-08-01T15:55:29.513249,0.9569145441055298,0.026799652725458145,-0.09981747716665268,0.27135390043258667,-0.5107421875,-0.1005859375,0.89697265625
2023-08-01T15:55:29.519005,0.9569145441055298,0.026799652725458145,-0.09981747716665268,0.27135390043258667,-0.51953125,-0.1025390625,0.89892578125
2023-08-01T15:55:29.520317,0.9569145441055298,0.026799652725458145,-0.09981747716665268,0.27135390043258667,-0.51953125,-0.1025390625,0.89892578125
2023-08-01T15:55:29.527298,0.9569145441055298,0.026799652725458145,-0.09981747716665268,0.27135390043258667,-0.51953125,-0.10205078125,0.8974609375
2023-08-01T15:55:29.543360,0.9569145441055298,0.026799652725458145,-0.09981747716665268,0.27135390043258667,-0.51953125,-0.10205078125,0.8974609375
2023-08-01T15:55:29.543360,0.9569145441055298,0.026799652725458145,-0.09981747716665268,0.27135390043258667,-0.5068359375,-0.10107421875,0.89599609375
2023-08-01T15:55:29.544359,0.9569145441055298,0.026799652725458145,-0.09981747716665268,0.27135390043258667,-0.5068359375,-0.10107421875,0.89599609375
2023-08-01T15:55:29.549876,0.9569145441055298,0.026799652725458145,-0.09981747716665268,0.27135390043258667,-0.51025390625,-0.103515625,0.89501953125
2023-08-01T15:55:29.549876,0.9569229483604431,0.026776809245347977,-0.09973692148923874,0.27135616540908813,-0.51025390625,-0.103515625,0.89501953125
2023-08-01T15:55:29.556857,0.9569229483604431,0.026776809245347977,-0.09973692148923874,0.27135616540908813,-0.51708984375,-0.10546875,0.89697265625
2023-08-01T15:55:29.559895,0.9569340944290161,0.026746466755867004,-0.09962992370128632,0.2713591456413269,-0.51708984375,-0.10546875,0.89697265625
2023-08-01T15:55:29.588773,0.9569340944290161,0.026746466755867004,-0.09962992370128632,0.2713591456413269,-0.52099609375,-0.099609375,0.89599609375
2023-08-01T15:55:29.588773,0.9569445848464966,0.026717910543084145,-0.0995292216539383,0.27136194705963135,-0.52099609375,-0.099609375,0.89599609375
2023-08-01T15:55:29.591795,0.9569445848464966,0.026717910543084145,-0.0995292216539383,0.27136194705963135,-0.51953125,-0.09912109375,0.89501953125
2023-08-01T15:55:29.592792,0.9569544196128845,0.026690779253840446,-0.0994335412979126,0.27136459946632385,-0.51953125,-0.09912109375,0.89501953125
2023-08-01T15:55:29.594787,0.9569544196128845,0.026690779253840446,-0.0994335412979126,0.27136459946632385,-0.52001953125,-0.10205078125,0.89404296875
2023-08-01T15:55:29.595784,0.9569622874259949,0.026669364422559738,-0.09935802221298218,0.2713667154312134,-0.52001953125,-0.10205078125,0.89404296875
2023-08-01T15:55:29.602122,0.9569622874259949,0.026669364422559738,-0.09935802221298218,0.2713667154312134,-0.5224609375,-0.1025390625,0.89306640625
2023-08-01T15:55:29.604116,0.9569622874259949,0.026669364422559738,-0.09935802221298218,0.2713667154312134,-0.5224609375,-0.1025390625,0.89306640625
2023-08-01T15:55:29.617292,0.9569622874259949,0.026669364422559738,-0.09935802221298218,0.2713667154312134,-0.52197265625,-0.10205078125,0.89306640625
2023-08-01T15:55:29.618793,0.9569622874259949,0.026669364422559738,-0.09935802221298218,0.2713667154312134,-0.52197265625,-0.10205078125,0.89306640625
2023-08-01T15:55:29.618793,0.9569622874259949,0.026669364422559738,-0.09935802221298218,0.2713667154312134,-0.5185546875,-0.10302734375,0.890625
2023-08-01T15:55:29.624791,0.9569622874259949,0.026669364422559738,-0.09935802221298218,0.2713667154312134,-0.5185546875,-0.10302734375,0.890625
2023-08-01T15:55:29.631816,0.9569622874259949,0.026669364422559738,-0.09935802221298218,0.2713667154312134,-0.51708984375,-0.103515625,0.88916015625
2023-08-01T15:55:29.632813,0.9569622874259949,0.026669364422559738,-0.09935802221298218,0.2713667154312134,-0.51708984375,-0.103515625,0.88916015625
2023-08-01T15:55:29.640000,0.9569622874259949,0.026669364422559738,-0.09935802221298218,0.2713667154312134,-0.515625,-0.1044921875,0.888671875
2023-08-01T15:55:29.640996,0.9569622874259949,0.026669364422559738,-0.09935802221298218,0.2713667154312134,-0.515625,-0.1044921875,0.888671875
2023-08-01T15:55:29.646981,0.9569622874259949,0.026669364422559738,-0.09935802221298218,0.2713667154312134,-0.51220703125,-0.10205078125,0.89208984375
2023-08-01T15:55:29.647978,0.9569622874259949,0.026669364422559738,-0.09935802221298218,0.2713667154312134,-0.51220703125,-0.10205078125,0.89208984375
2023-08-01T15:55:29.662519,0.9569622874259949,0.026669364422559738,-0.09935802221298218,0.2713667154312134,-0.517578125,-0.1025390625,0.89404296875
2023-08-01T15:55:29.662519,0.9569622874259949,0.026669364422559738,-0.09935802221298218,0.2713667154312134,-0.517578125,-0.1025390625,0.89404296875
2023-08-01T15:55:29.670050,0.9569622874259949,0.026669364422559738,-0.09935802221298218,0.2713667154312134,-0.5166015625,-0.1015625,0.89404296875
2023-08-01T15:55:29.671047,0.9569622874259949,0.026669364422559738,-0.09935802221298218,0.2713667154312134,-0.5166015625,-0.1015625,0.89404296875
2023-08-01T15:55:29.678029,0.9569622874259949,0.026669364422559738,-0.09935802221298218,0.2713667154312134,-0.51611328125,-0.09765625,0.8955078125
2023-08-01T15:55:29.678029,0.9569622874259949,0.026669364422559738,-0.09935802221298218,0.2713667154312134,-0.51611328125,-0.09765625,0.8955078125
2023-08-01T15:55:29.692246,0.9569622874259949,0.026669364422559738,-0.09935802221298218,0.2713667154312134,-0.52099609375,-0.10107421875,0.89404296875
2023-08-01T15:55:29.692246,0.9569622874259949,0.026669364422559738,-0.09935802221298218,0.2713667154312134,-0.52099609375,-0.10107421875,0.89404296875
2023-08-01T15:55:29.699262,0.9569622874259949,0.026669364422559738,-0.09935802221298218,0.2713667154312134,-0.52294921875,-0.10205078125,0.89208984375
2023-08-01T15:55:29.700747,0.9569543600082397,0.026691056787967682,-0.0994345173239708,0.27136456966400146,-0.52294921875,-0.10205078125,0.89208984375
2023-08-01T15:55:29.711020,0.9569543600082397,0.026691056787967682,-0.0994345173239708,0.27136456966400146,-0.5205078125,-0.10205078125,0.89599609375
2023-08-01T15:55:29.712018,0.9569485783576965,0.02670677937567234,-0.0994899645447731,0.2713630199432373,-0.5205078125,-0.10205078125,0.89599609375
2023-08-01T15:55:29.722298,0.9569485783576965,0.02670677937567234,-0.0994899645447731,0.2713630199432373,-0.515625,-0.1025390625,0.89892578125
2023-08-01T15:55:29.723296,0.9569427371025085,0.02672269009053707,-0.09954606741666794,0.27136144042015076,-0.515625,-0.1025390625,0.89892578125
2023-08-01T15:55:29.730017,0.9569427371025085,0.02672269009053707,-0.09954606741666794,0.27136144042015076,-0.51220703125,-0.1044921875,0.896484375
2023-08-01T15:55:29.730017,0.9569427371025085,0.02672269009053707,-0.09954606741666794,0.27136144042015076,-0.51220703125,-0.1044921875,0.896484375
2023-08-01T15:55:29.737002,0.9569427371025085,0.02672269009053707,-0.09954606741666794,0.27136144042015076,-0.51708984375,-0.103515625,0.89501953125
2023-08-01T15:55:29.737998,0.9569427371025085,0.02672269009053707,-0.09954606741666794,0.27136144042015076,-0.51708984375,-0.103515625,0.89501953125
2023-08-01T15:55:29.752176,0.9569427371025085,0.02672269009053707,-0.09954606741666794,0.27136144042015076,-0.5166015625,-0.1025390625,0.89306640625
2023-08-01T15:55:29.753173,0.9569427371025085,0.02672269009053707,-0.09954606741666794,0.27136144042015076,-0.5166015625,-0.1025390625,0.89306640625
2023-08-01T15:55:29.759903,0.9569427371025085,0.02672269009053707,-0.09954606741666794,0.27136144042015076,-0.5146484375,-0.10205078125,0.89013671875
2023-08-01T15:55:29.766888,0.9569427371025085,0.02672269009053707,-0.09954606741666794,0.27136144042015076,-0.5146484375,-0.10205078125,0.89013671875
2023-08-01T15:55:29.766888,0.9569427371025085,0.02672269009053707,-0.09954606741666794,0.27136144042015076,-0.51416015625,-0.1025390625,0.8896484375
2023-08-01T15:55:29.767884,0.9569427371025085,0.02672269009053707,-0.09954606741666794,0.27136144042015076,-0.51416015625,-0.1025390625,0.8896484375
2023-08-01T15:55:29.782127,0.9569427371025085,0.02672269009053707,-0.09954606741666794,0.27136144042015076,-0.51953125,-0.10205078125,0.89111328125
2023-08-01T15:55:29.782127,0.9569427371025085,0.02672269009053707,-0.09954606741666794,0.27136144042015076,-0.51953125,-0.10205078125,0.89111328125
2023-08-01T15:55:29.789253,0.9569427371025085,0.02672269009053707,-0.09954606741666794,0.27136144042015076,-0.51708984375,-0.1005859375,0.8916015625
2023-08-01T15:55:29.789253,0.9569427371025085,0.02672269009053707,-0.09954606741666794,0.27136144042015076,-0.51708984375,-0.1005859375,0.8916015625
2023-08-01T15:55:29.796534,0.9569427371025085,0.02672269009053707,-0.09954606741666794,0.27136144042015076,-0.515625,-0.09912109375,0.892578125
2023-08-01T15:55:29.804045,0.9569427371025085,0.02672269009053707,-0.09954606741666794,0.27136144042015076,-0.515625,-0.09912109375,0.892578125
2023-08-01T15:55:29.805043,0.9569427371025085,0.02672269009053707,-0.09954606741666794,0.27136144042015076,-0.515625,-0.10009765625,0.89404296875
2023-08-01T15:55:29.805043,0.9569427371025085,0.02672269009053707,-0.09954606741666794,0.27136144042015076,-0.515625,-0.10009765625,0.89404296875
2023-08-01T15:55:29.819243,0.9569427371025085,0.02672269009053707,-0.09954606741666794,0.27136144042015076,-0.515625,-0.09912109375,0.89501953125
2023-08-01T15:55:29.820422,0.9569427371025085,0.02672269009053707,-0.09954606741666794,0.27136144042015076,-0.515625,-0.09912109375,0.89501953125
2023-08-01T15:55:29.826736,0.9569427371025085,0.02672269009053707,-0.09954606741666794,0.27136144042015076,-0.51953125,-0.0986328125,0.89453125
2023-08-01T15:55:29.826736,0.9569427371025085,0.02672269009053707,-0.09954606741666794,0.27136144042015076,-0.51953125,-0.0986328125,0.89453125
2023-08-01T15:55:29.834738,0.9569427371025085,0.02672269009053707,-0.09954606741666794,0.27136144042015076,-0.515625,-0.0986328125,0.8935546875
2023-08-01T15:55:29.834738,0.9569427371025085,0.02672269009053707,-0.09954606741666794,0.27136144042015076,-0.515625,-0.0986328125,0.8935546875
2023-08-01T15:55:29.849907,0.9569427371025085,0.02672269009053707,-0.09954606741666794,0.27136144042015076,-0.5166015625,-0.099609375,0.89404296875
2023-08-01T15:55:29.849907,0.9569427371025085,0.02672269009053707,-0.09954606741666794,0.27136144042015076,-0.5166015625,-0.099609375,0.89404296875
2023-08-01T15:55:29.856888,0.9569427371025085,0.02672269009053707,-0.09954606741666794,0.27136144042015076,-0.521484375,-0.1005859375,0.896484375
2023-08-01T15:55:29.857885,0.9569427371025085,0.02672269009053707,-0.09954606741666794,0.27136144042015076,-0.521484375,-0.1005859375,0.896484375
2023-08-01T15:55:29.864631,0.9569427371025085,0.02672269009053707,-0.09954606741666794,0.27136144042015076,-0.5205078125,-0.099609375,0.89501953125
2023-08-01T15:55:29.864631,0.9569427371025085,0.02672269009053707,-0.09954606741666794,0.27136144042015076,-0.5205078125,-0.099609375,0.89501953125
2023-08-01T15:55:29.880202,0.9569427371025085,0.02672269009053707,-0.09954606741666794,0.27136144042015076,-0.51904296875,-0.09912109375,0.89453125
2023-08-01T15:55:29.880202,0.9569427371025085,0.02672269009053707,-0.09954606741666794,0.27136144042015076,-0.51904296875,-0.09912109375,0.89453125
2023-08-01T15:55:29.887136,0.9569427371025085,0.02672269009053707,-0.09954606741666794,0.27136144042015076,-0.51513671875,-0.09716796875,0.892578125
2023-08-01T15:55:29.887136,0.9569427371025085,0.02672269009053707,-0.09954606741666794,0.27136144042015076,-0.51513671875,-0.09716796875,0.892578125
2023-08-01T15:55:29.894220,0.9569427371025085,0.02672269009053707,-0.09954606741666794,0.27136144042015076,-0.5126953125,-0.09814453125,0.89208984375
2023-08-01T15:55:29.902057,0.9569427371025085,0.02672269009053707,-0.09954606741666794,0.27136144042015076,-0.5126953125,-0.09814453125,0.89208984375
2023-08-01T15:55:29.908779,0.9569427371025085,0.02672269009053707,-0.09954606741666794,0.27136144042015076,-0.51708984375,-0.099609375,0.89501953125
2023-08-01T15:55:29.910198,0.9569427371025085,0.02672269009053707,-0.09954606741666794,0.27136144042015076,-0.51708984375,-0.099609375,0.89501953125
2023-08-01T15:55:29.917183,0.9569427371025085,0.02672269009053707,-0.09954606741666794,0.27136144042015076,-0.5185546875,-0.09814453125,0.89453125
2023-08-01T15:55:29.917183,0.9569427371025085,0.02672269009053707,-0.09954606741666794,0.27136144042015076,-0.5185546875,-0.09814453125,0.89453125
2023-08-01T15:55:29.924244,0.9569427371025085,0.02672269009053707,-0.09954606741666794,0.27136144042015076,-0.5166015625,-0.09814453125,0.89208984375
2023-08-01T15:55:29.924244,0.9569427371025085,0.02672269009053707,-0.09954606741666794,0.27136144042015076,-0.5166015625,-0.09814453125,0.89208984375
2023-08-01T15:55:29.939759,0.9569427371025085,0.02672269009053707,-0.09954606741666794,0.27136144042015076,-0.51416015625,-0.0986328125,0.89013671875
2023-08-01T15:55:29.939759,0.9569427371025085,0.02672269009053707,-0.09954606741666794,0.27136144042015076,-0.51416015625,-0.0986328125,0.89013671875
2023-08-01T15:55:29.947278,0.9569427371025085,0.02672269009053707,-0.09954606741666794,0.27136144042015076,-0.5166015625,-0.1015625,0.89208984375
2023-08-01T15:55:29.947278,0.9569427371025085,0.02672269009053707,-0.09954606741666794,0.27136144042015076,-0.5166015625,-0.1015625,0.89208984375
2023-08-01T15:55:29.954327,0.9569427371025085,0.02672269009053707,-0.09954606741666794,0.27136144042015076,-0.51904296875,-0.10107421875,0.8916015625
2023-08-01T15:55:29.955325,0.9569427371025085,0.02672269009053707,-0.09954606741666794,0.27136144042015076,-0.51904296875,-0.10107421875,0.8916015625
2023-08-01T15:55:29.969219,0.9569427371025085,0.02672269009053707,-0.09954606741666794,0.27136144042015076,-0.51904296875,-0.10107421875,0.89013671875
2023-08-01T15:55:29.969219,0.9569427371025085,0.02672269009053707,-0.09954606741666794,0.27136144042015076,-0.51904296875,-0.10107421875,0.89013671875
2023-08-01T15:55:29.976363,0.9569427371025085,0.02672269009053707,-0.09954606741666794,0.27136144042015076,-0.51611328125,-0.10009765625,0.88916015625
2023-08-01T15:55:29.976363,0.9569427371025085,0.02672269009053707,-0.09954606741666794,0.27136144042015076,-0.51611328125,-0.10009765625,0.88916015625
2023-08-01T15:55:29.984150,0.9569427371025085,0.02672269009053707,-0.09954606741666794,0.27136144042015076,-0.517578125,-0.10400390625,0.8916015625
2023-08-01T15:55:29.991286,0.9569427371025085,0.02672269009053707,-0.09954606741666794,0.27136144042015076,-0.517578125,-0.10400390625,0.8916015625
2023-08-01T15:55:29.998770,0.9569427371025085,0.02672269009053707,-0.09954606741666794,0.27136144042015076,-0.5234375,-0.10205078125,0.89013671875
2023-08-01T15:55:30.000407,0.9569427371025085,0.02672269009053707,-0.09954606741666794,0.27136144042015076,-0.5234375,-0.10205078125,0.89013671875
2023-08-01T15:55:30.006427,0.9569427371025085,0.02672269009053707,-0.09954606741666794,0.27136144042015076,-0.521484375,-0.1005859375,0.890625
2023-08-01T15:55:30.014094,0.9569427371025085,0.02672269009053707,-0.09954606741666794,0.27136144042015076,-0.521484375,-0.1005859375,0.890625
2023-08-01T15:55:30.015092,0.9569427371025085,0.02672269009053707,-0.09954606741666794,0.27136144042015076,-0.51513671875,-0.1005859375,0.89208984375
2023-08-01T15:55:30.015092,0.9569427371025085,0.02672269009053707,-0.09954606741666794,0.27136144042015076,-0.51513671875,-0.1005859375,0.89208984375
2023-08-01T15:55:30.029213,0.9569427371025085,0.02672269009053707,-0.09954606741666794,0.27136144042015076,-0.51708984375,-0.10205078125,0.89013671875
2023-08-01T15:55:30.029213,0.9569427371025085,0.02672269009053707,-0.09954606741666794,0.27136144042015076,-0.51708984375,-0.10205078125,0.89013671875
2023-08-01T15:55:30.036564,0.9569427371025085,0.02672269009053707,-0.09954606741666794,0.27136144042015076,-0.52099609375,-0.10205078125,0.89208984375
2023-08-01T15:55:30.036564,0.9569427371025085,0.02672269009053707,-0.09954606741666794,0.27136144042015076,-0.52099609375,-0.10205078125,0.89208984375
2023-08-01T15:55:30.044226,0.9569427371025085,0.02672269009053707,-0.09954606741666794,0.27136144042015076,-0.51904296875,-0.099609375,0.89501953125
2023-08-01T15:55:30.045213,0.9569427371025085,0.02672269009053707,-0.09954606741666794,0.27136144042015076,-0.51904296875,-0.099609375,0.89501953125
2023-08-01T15:55:30.067088,0.9569427371025085,0.02672269009053707,-0.09954606741666794,0.27136144042015076,-0.51611328125,-0.099609375,0.89306640625
2023-08-01T15:55:30.067088,0.9569427371025085,0.02672269009053707,-0.09954606741666794,0.27136144042015076,-0.51611328125,-0.099609375,0.89306640625
2023-08-01T15:55:30.068083,0.9569427371025085,0.02672269009053707,-0.09954606741666794,0.27136144042015076,-0.5185546875,-0.1015625,0.890625
2023-08-01T15:55:30.074176,0.9569427371025085,0.02672269009053707,-0.09954606741666794,0.27136144042015076,-0.5185546875,-0.1015625,0.890625
2023-08-01T15:55:30.082176,0.9569427371025085,0.02672269009053707,-0.09954606741666794,0.27136144042015076,-0.52001953125,-0.1005859375,0.89208984375
2023-08-01T15:55:30.082176,0.9569427371025085,0.02672269009053707,-0.09954606741666794,0.27136144042015076,-0.52001953125,-0.1005859375,0.89208984375
2023-08-01T15:55:30.083173,0.9569427371025085,0.02672269009053707,-0.09954606741666794,0.27136144042015076,-0.51806640625,-0.0986328125,0.89306640625
2023-08-01T15:55:30.089211,0.9569427371025085,0.02672269009053707,-0.09954606741666794,0.27136144042015076,-0.51806640625,-0.0986328125,0.89306640625
2023-08-01T15:55:30.096884,0.9569427371025085,0.02672269009053707,-0.09954606741666794,0.27136144042015076,-0.51611328125,-0.1005859375,0.8955078125
2023-08-01T15:55:30.097881,0.9569427371025085,0.02672269009053707,-0.09954606741666794,0.27136144042015076,-0.51611328125,-0.1005859375,0.8955078125
2023-08-01T15:55:30.105225,0.9569427371025085,0.02672269009053707,-0.09954606741666794,0.27136144042015076,-0.5185546875,-0.099609375,0.89697265625
2023-08-01T15:55:30.105225,0.9569427371025085,0.02672269009053707,-0.09954606741666794,0.27136144042015076,-0.5185546875,-0.099609375,0.89697265625
2023-08-01T15:55:30.112247,0.9569427371025085,0.02672269009053707,-0.09954606741666794,0.27136144042015076,-0.51708984375,-0.09765625,0.8955078125
2023-08-01T15:55:30.112247,0.9569427371025085,0.02672269009053707,-0.09954606741666794,0.27136144042015076,-0.51708984375,-0.09765625,0.8955078125
2023-08-01T15:55:30.127223,0.9569427371025085,0.02672269009053707,-0.09954606741666794,0.27136144042015076,-0.51708984375,-0.1015625,0.89501953125
2023-08-01T15:55:30.127223,0.9569427371025085,0.02672269009053707,-0.09954606741666794,0.27136144042015076,-0.51708984375,-0.1015625,0.89501953125
2023-08-01T15:55:30.134221,0.9569427371025085,0.02672269009053707,-0.09954606741666794,0.27136144042015076,-0.5166015625,-0.1025390625,0.89453125
2023-08-01T15:55:30.135218,0.9569427371025085,0.02672269009053707,-0.09954606741666794,0.27136144042015076,-0.5166015625,-0.1025390625,0.89453125
2023-08-01T15:55:30.142219,0.9569427371025085,0.02672269009053707,-0.09954606741666794,0.27136144042015076,-0.51513671875,-0.10205078125,0.8935546875
2023-08-01T15:55:30.142219,0.9569427371025085,0.02672269009053707,-0.09954606741666794,0.27136144042015076,-0.51513671875,-0.10205078125,0.8935546875
2023-08-01T15:55:30.157194,0.9569427371025085,0.02672269009053707,-0.09954606741666794,0.27136144042015076,-0.5146484375,-0.1015625,0.89501953125
2023-08-01T15:55:30.157194,0.9569479823112488,0.026708416640758514,-0.09949573129415512,0.271362841129303,-0.5146484375,-0.1015625,0.89501953125
2023-08-01T15:55:30.164193,0.9569479823112488,0.026708416640758514,-0.09949573129415512,0.271362841129303,-0.51708984375,-0.10205078125,0.89501953125
2023-08-01T15:55:30.165191,0.9569479823112488,0.026708416640758514,-0.09949573129415512,0.271362841129303,-0.51708984375,-0.10205078125,0.89501953125
2023-08-01T15:55:30.172121,0.9569479823112488,0.026708416640758514,-0.09949573129415512,0.271362841129303,-0.52099609375,-0.1015625,0.89404296875
2023-08-01T15:55:30.172121,0.9569538235664368,0.026692528277635574,-0.09943970292806625,0.27136439085006714,-0.52099609375,-0.1015625,0.89404296875
2023-08-01T15:55:30.187102,0.9569538235664368,0.026692528277635574,-0.09943970292806625,0.27136439085006714,-0.5205078125,-0.1015625,0.89208984375
2023-08-01T15:55:30.188099,0.9569538235664368,0.026692528277635574,-0.09943970292806625,0.27136439085006714,-0.5205078125,-0.1015625,0.89208984375
2023-08-01T15:55:30.194283,0.9569538235664368,0.026692528277635574,-0.09943970292806625,0.27136439085006714,-0.51806640625,-0.09912109375,0.892578125
2023-08-01T15:55:30.195282,0.9569538235664368,0.026692528277635574,-0.09943970292806625,0.27136439085006714,-0.51806640625,-0.09912109375,0.892578125
2023-08-01T15:55:30.202224,0.9569538235664368,0.026692528277635574,-0.09943970292806625,0.27136439085006714,-0.51708984375,-0.1015625,0.89208984375
2023-08-01T15:55:30.203220,0.9569538235664368,0.026692528277635574,-0.09943970292806625,0.27136439085006714,-0.51708984375,-0.1015625,0.89208984375
2023-08-01T15:55:30.217973,0.9569538235664368,0.026692528277635574,-0.09943970292806625,0.27136439085006714,-0.51806640625,-0.1044921875,0.89453125
2023-08-01T15:55:30.218973,0.9569538235664368,0.026692528277635574,-0.09943970292806625,0.27136439085006714,-0.51806640625,-0.1044921875,0.89453125
2023-08-01T15:55:30.224139,0.9569538235664368,0.026692528277635574,-0.09943970292806625,0.27136439085006714,-0.51708984375,-0.1005859375,0.89404296875
2023-08-01T15:55:30.225138,0.9569538235664368,0.026692528277635574,-0.09943970292806625,0.27136439085006714,-0.51708984375,-0.1005859375,0.89404296875
2023-08-01T15:55:30.233080,0.9569538235664368,0.026692528277635574,-0.09943970292806625,0.27136439085006714,-0.5146484375,-0.09912109375,0.892578125
2023-08-01T15:55:30.234078,0.9569538235664368,0.026692528277635574,-0.09943970292806625,0.27136439085006714,-0.5146484375,-0.09912109375,0.892578125
2023-08-01T15:55:30.246541,0.9569538235664368,0.026692528277635574,-0.09943970292806625,0.27136439085006714,-0.51416015625,-0.1005859375,0.892578125
2023-08-01T15:55:30.246541,0.9569538235664368,0.026692528277635574,-0.09943970292806625,0.27136439085006714,-0.51416015625,-0.1005859375,0.892578125
2023-08-01T15:55:30.254077,0.9569538235664368,0.026692528277635574,-0.09943970292806625,0.27136439085006714,-0.51953125,-0.1025390625,0.89208984375
2023-08-01T15:55:30.255074,0.9569538235664368,0.026692528277635574,-0.09943970292806625,0.27136439085006714,-0.51953125,-0.1025390625,0.89208984375
2023-08-01T15:55:30.262266,0.9569538235664368,0.026692528277635574,-0.09943970292806625,0.27136439085006714,-0.52392578125,-0.09912109375,0.89111328125
2023-08-01T15:55:30.263262,0.9569538235664368,0.026692528277635574,-0.09943970292806625,0.27136439085006714,-0.52392578125,-0.09912109375,0.89111328125
2023-08-01T15:55:30.277314,0.9569538235664368,0.026692528277635574,-0.09943970292806625,0.27136439085006714,-0.5205078125,-0.099609375,0.89208984375
2023-08-01T15:55:30.278817,0.9569538235664368,0.026692528277635574,-0.09943970292806625,0.27136439085006714,-0.5205078125,-0.099609375,0.89208984375
2023-08-01T15:55:30.284282,0.9569538235664368,0.026692528277635574,-0.09943970292806625,0.27136439085006714,-0.515625,-0.1015625,0.89404296875
2023-08-01T15:55:30.285282,0.9569476842880249,0.026709361001849174,-0.09949906170368195,0.2713627219200134,-0.515625,-0.1015625,0.89404296875
2023-08-01T15:55:30.291923,0.9569476842880249,0.026709361001849174,-0.09949906170368195,0.2713627219200134,-0.515625,-0.1025390625,0.89404296875
2023-08-01T15:55:30.292919,0.9569424390792847,0.026723654940724373,-0.09954947233200073,0.2713613212108612,-0.515625,-0.1025390625,0.89404296875
2023-08-01T15:55:30.307260,0.9569424390792847,0.026723654940724373,-0.09954947233200073,0.2713613212108612,-0.5185546875,-0.103515625,0.89453125
2023-08-01T15:55:30.307260,0.9569424390792847,0.026723654940724373,-0.09954947233200073,0.2713613212108612,-0.5185546875,-0.103515625,0.89453125
2023-08-01T15:55:30.314315,0.9569424390792847,0.026723654940724373,-0.09954947233200073,0.2713613212108612,-0.51708984375,-0.1025390625,0.89404296875
2023-08-01T15:55:30.315312,0.9569424390792847,0.026723654940724373,-0.09954947233200073,0.2713613212108612,-0.51708984375,-0.1025390625,0.89404296875
2023-08-01T15:55:30.322255,0.9569424390792847,0.026723654940724373,-0.09954947233200073,0.2713613212108612,-0.515625,-0.10205078125,0.8916015625
2023-08-01T15:55:30.323251,0.9569424390792847,0.026723654940724373,-0.09954947233200073,0.2713613212108612,-0.515625,-0.10205078125,0.8916015625
2023-08-01T15:55:30.337343,0.9569424390792847,0.026723654940724373,-0.09954947233200073,0.2713613212108612,-0.51708984375,-0.1015625,0.8916015625
2023-08-01T15:55:30.337343,0.9569424390792847,0.026723654940724373,-0.09954947233200073,0.2713613212108612,-0.51708984375,-0.1015625,0.8916015625
2023-08-01T15:55:30.343944,0.9569424390792847,0.026723654940724373,-0.09954947233200073,0.2713613212108612,-0.51953125,-0.1025390625,0.89013671875
2023-08-01T15:55:30.344942,0.9569424390792847,0.026723654940724373,-0.09954947233200073,0.2713613212108612,-0.51953125,-0.1025390625,0.89013671875
2023-08-01T15:55:30.351495,0.9569424390792847,0.026723654940724373,-0.09954947233200073,0.2713613212108612,-0.51708984375,-0.1005859375,0.8935546875
2023-08-01T15:55:30.352492,0.9569424390792847,0.026723654940724373,-0.09954947233200073,0.2713613212108612,-0.51708984375,-0.1005859375,0.8935546875
2023-08-01T15:55:30.359000,0.9569424390792847,0.026723654940724373,-0.09954947233200073,0.2713613212108612,-0.5126953125,-0.099609375,0.8935546875
2023-08-01T15:55:30.367038,0.9569424390792847,0.026723654940724373,-0.09954947233200073,0.2713613212108612,-0.5126953125,-0.099609375,0.8935546875
2023-08-01T15:55:30.374315,0.9569424390792847,0.026723654940724373,-0.09954947233200073,0.2713613212108612,-0.51513671875,-0.099609375,0.89501953125
2023-08-01T15:55:30.375310,0.9569424390792847,0.026723654940724373,-0.09954947233200073,0.2713613212108612,-0.51513671875,-0.099609375,0.89501953125
2023-08-01T15:55:30.381807,0.9569424390792847,0.026723654940724373,-0.09954947233200073,0.2713613212108612,-0.5185546875,-0.099609375,0.89404296875
2023-08-01T15:55:30.382804,0.9569424390792847,0.026723654940724373,-0.09954947233200073,0.2713613212108612,-0.5185546875,-0.099609375,0.89404296875
2023-08-01T15:55:30.388808,0.9569424390792847,0.026723654940724373,-0.09954947233200073,0.2713613212108612,-0.51806640625,-0.10009765625,0.89599609375
2023-08-01T15:55:30.389942,0.9569424390792847,0.026723654940724373,-0.09954947233200073,0.2713613212108612,-0.51806640625,-0.10009765625,0.89599609375
2023-08-01T15:55:30.404502,0.9569424390792847,0.026723654940724373,-0.09954947233200073,0.2713613212108612,-0.513671875,-0.0986328125,0.89599609375
2023-08-01T15:55:30.405493,0.9569424390792847,0.026723654940724373,-0.09954947233200073,0.2713613212108612,-0.513671875,-0.0986328125,0.89599609375
2023-08-01T15:55:30.412183,0.9569424390792847,0.026723654940724373,-0.09954947233200073,0.2713613212108612,-0.51611328125,-0.09716796875,0.8935546875
2023-08-01T15:55:30.412183,0.9569424390792847,0.026723654940724373,-0.09954947233200073,0.2713613212108612,-0.51611328125,-0.09716796875,0.8935546875
2023-08-01T15:55:30.419671,0.9569424390792847,0.026723654940724373,-0.09954947233200073,0.2713613212108612,-0.5205078125,-0.09912109375,0.89306640625
2023-08-01T15:55:30.420054,0.9569424390792847,0.026723654940724373,-0.09954947233200073,0.2713613212108612,-0.5205078125,-0.09912109375,0.89306640625
2023-08-01T15:55:30.434546,0.9569424390792847,0.026723654940724373,-0.09954947233200073,0.2713613212108612,-0.51708984375,-0.09912109375,0.89208984375
2023-08-01T15:55:30.434546,0.9569424390792847,0.026723654940724373,-0.09954947233200073,0.2713613212108612,-0.51708984375,-0.09912109375,0.89208984375
2023-08-01T15:55:30.442049,0.9569424390792847,0.026723654940724373,-0.09954947233200073,0.2713613212108612,-0.5146484375,-0.099609375,0.8935546875
2023-08-01T15:55:30.442049,0.9569424390792847,0.026723654940724373,-0.09954947233200073,0.2713613212108612,-0.5146484375,-0.099609375,0.8935546875
2023-08-01T15:55:30.450046,0.9569424390792847,0.026723654940724373,-0.09954947233200073,0.2713613212108612,-0.51708984375,-0.099609375,0.89404296875
2023-08-01T15:55:30.457035,0.9569424390792847,0.026723654940724373,-0.09954947233200073,0.2713613212108612,-0.51708984375,-0.099609375,0.89404296875
2023-08-01T15:55:30.464428,0.9569424390792847,0.026723654940724373,-0.09954947233200073,0.2713613212108612,-0.51806640625,-0.0986328125,0.89208984375
2023-08-01T15:55:30.465429,0.9569424390792847,0.026723654940724373,-0.09954947233200073,0.2713613212108612,-0.51806640625,-0.0986328125,0.89208984375
2023-08-01T15:55:30.472134,0.9569424390792847,0.026723654940724373,-0.09954947233200073,0.2713613212108612,-0.51513671875,-0.09716796875,0.89306640625
2023-08-01T15:55:30.472134,0.9569424390792847,0.026723654940724373,-0.09954947233200073,0.2713613212108612,-0.51513671875,-0.09716796875,0.89306640625
2023-08-01T15:55:30.479071,0.9569424390792847,0.026723654940724373,-0.09954947233200073,0.2713613212108612,-0.51806640625,-0.099609375,0.89453125
2023-08-01T15:55:30.480244,0.9569424390792847,0.026723654940724373,-0.09954947233200073,0.2713613212108612,-0.51806640625,-0.099609375,0.89453125
2023-08-01T15:55:30.494209,0.9569424390792847,0.026723654940724373,-0.09954947233200073,0.2713613212108612,-0.52294921875,-0.10009765625,0.890625
2023-08-01T15:55:30.495207,0.9569424390792847,0.026723654940724373,-0.09954947233200073,0.2713613212108612,-0.52294921875,-0.10009765625,0.890625
2023-08-01T15:55:30.501267,0.9569424390792847,0.026723654940724373,-0.09954947233200073,0.2713613212108612,-0.52001953125,-0.09814453125,0.89404296875
2023-08-01T15:55:30.502264,0.9569424390792847,0.026723654940724373,-0.09954947233200073,0.2713613212108612,-0.52001953125,-0.09814453125,0.89404296875
2023-08-01T15:55:30.509152,0.9569424390792847,0.026723654940724373,-0.09954947233200073,0.2713613212108612,-0.5166015625,-0.10009765625,0.8974609375
2023-08-01T15:55:30.510293,0.9569424390792847,0.026723654940724373,-0.09954947233200073,0.2713613212108612,-0.5166015625,-0.10009765625,0.8974609375
2023-08-01T15:55:30.524525,0.9569424390792847,0.026723654940724373,-0.09954947233200073,0.2713613212108612,-0.5166015625,-0.1005859375,0.89501953125
2023-08-01T15:55:30.532040,0.9569424390792847,0.026723654940724373,-0.09954947233200073,0.2713613212108612,-0.5166015625,-0.1005859375,0.89501953125
2023-08-01T15:55:30.533038,0.9569424390792847,0.026723654940724373,-0.09954947233200073,0.2713613212108612,-0.51806640625,-0.099609375,0.89404296875
2023-08-01T15:55:30.533038,0.9569424390792847,0.026723654940724373,-0.09954947233200073,0.2713613212108612,-0.51806640625,-0.099609375,0.89404296875
2023-08-01T15:55:30.539039,0.9569424390792847,0.026723654940724373,-0.09954947233200073,0.2713613212108612,-0.51806640625,-0.09765625,0.89453125
2023-08-01T15:55:30.539039,0.9569439888000488,0.026668256148695946,-0.09956517815589905,0.2713555693626404,-0.51806640625,-0.09765625,0.89453125
2023-08-01T15:55:30.554022,0.9569439888000488,0.026668256148695946,-0.09956517815589905,0.2713555693626404,-0.51708984375,-0.1025390625,0.892578125
2023-08-01T15:55:30.555021,0.9569439888000488,0.026668256148695946,-0.09956517815589905,0.2713555693626404,-0.51708984375,-0.1025390625,0.892578125
2023-08-01T15:55:30.561730,0.9569439888000488,0.026668256148695946,-0.09956517815589905,0.2713555693626404,-0.51513671875,-0.10107421875,0.8916015625
2023-08-01T15:55:30.562726,0.9569439888000488,0.026668256148695946,-0.09956517815589905,0.2713555693626404,-0.51513671875,-0.10107421875,0.8916015625
2023-08-01T15:55:30.569223,0.9569439888000488,0.026668256148695946,-0.09956517815589905,0.2713555693626404,-0.517578125,-0.10009765625,0.89111328125
2023-08-01T15:55:30.577236,0.9569439888000488,0.026668256148695946,-0.09956517815589905,0.2713555693626404,-0.517578125,-0.10009765625,0.89111328125
2023-08-01T15:55:30.584245,0.9569439888000488,0.026668256148695946,-0.09956517815589905,0.2713555693626404,-0.51806640625,-0.1025390625,0.892578125
2023-08-01T15:55:30.585243,0.9569439888000488,0.026668256148695946,-0.09956517815589905,0.2713555693626404,-0.51806640625,-0.1025390625,0.892578125
2023-08-01T15:55:30.592214,0.9569439888000488,0.026668256148695946,-0.09956517815589905,0.2713555693626404,-0.517578125,-0.1025390625,0.89111328125
2023-08-01T15:55:30.592214,0.9569439888000488,0.026668256148695946,-0.09956517815589905,0.2713555693626404,-0.517578125,-0.1025390625,0.89111328125
2023-08-01T15:55:30.599216,0.9569439888000488,0.026668256148695946,-0.09956517815589905,0.2713555693626404,-0.51708984375,-0.1005859375,0.8916015625
2023-08-01T15:55:30.600227,0.9569439888000488,0.026668256148695946,-0.09956517815589905,0.2713555693626404,-0.51708984375,-0.1005859375,0.8916015625
2023-08-01T15:55:30.614217,0.9569439888000488,0.026668256148695946,-0.09956517815589905,0.2713555693626404,-0.5234375,-0.1015625,0.89453125
2023-08-01T15:55:30.615214,0.9569382071495056,0.026683978736400604,-0.09962062537670135,0.2713540196418762,-0.5234375,-0.1015625,0.89453125
2023-08-01T15:55:30.622214,0.9569382071495056,0.026683978736400604,-0.09962062537670135,0.2713540196418762,-0.52001953125,-0.1015625,0.89453125
2023-08-01T15:55:30.622214,0.9569324254989624,0.026699701324105263,-0.09967606514692307,0.27135246992111206,-0.52001953125,-0.1015625,0.89453125
2023-08-01T15:55:30.629203,0.9569324254989624,0.026699701324105263,-0.09967606514692307,0.27135246992111206,-0.5146484375,-0.1015625,0.89453125
2023-08-01T15:55:30.630400,0.9569324254989624,0.026699701324105263,-0.09967606514692307,0.27135246992111206,-0.5146484375,-0.1015625,0.89453125
2023-08-01T15:55:30.637192,0.9569324254989624,0.026699701324105263,-0.09967606514692307,0.27135246992111206,-0.51611328125,-0.10302734375,0.89599609375
2023-08-01T15:55:30.644093,0.956925094127655,0.026719707995653152,-0.09974662214517593,0.2713505029678345,-0.51611328125,-0.10302734375,0.89599609375
2023-08-01T15:55:30.652225,0.956925094127655,0.026719707995653152,-0.09974662214517593,0.2713505029678345,-0.51953125,-0.1015625,0.8955078125
2023-08-01T15:55:30.652225,0.9569193124771118,0.026735428720712662,-0.09980206191539764,0.2713489532470703,-0.51953125,-0.1015625,0.8955078125
2023-08-01T15:55:30.658810,0.9569193124771118,0.026735428720712662,-0.09980206191539764,0.2713489532470703,-0.51806640625,-0.10009765625,0.89501953125
2023-08-01T15:55:30.660281,0.9569113254547119,0.026757119223475456,-0.09987855702638626,0.2713468074798584,-0.51806640625,-0.10009765625,0.89501953125
2023-08-01T15:55:30.667266,0.9569113254547119,0.026757119223475456,-0.09987855702638626,0.2713468074798584,-0.513671875,-0.10009765625,0.8974609375
2023-08-01T15:55:30.673857,0.9569023847579956,0.026781409978866577,-0.0999642163515091,0.2713444232940674,-0.513671875,-0.10009765625,0.8974609375
2023-08-01T15:55:30.681418,0.9569023847579956,0.026781409978866577,-0.0999642163515091,0.2713444232940674,-0.513671875,-0.1005859375,0.89794921875
2023-08-01T15:55:30.682415,0.9568960666656494,0.026798559352755547,-0.10002469271421432,0.2713427245616913,-0.513671875,-0.1005859375,0.89794921875
2023-08-01T15:55:30.688911,0.9568960666656494,0.026798559352755547,-0.10002469271421432,0.2713427245616913,-0.517578125,-0.1005859375,0.8974609375
2023-08-01T15:55:30.689925,0.9568902850151062,0.026814280077815056,-0.10008013248443604,0.2713411748409271,-0.517578125,-0.1005859375,0.8974609375
2023-08-01T15:55:30.696906,0.9568902850151062,0.026814280077815056,-0.10008013248443604,0.2713411748409271,-0.51416015625,-0.09765625,0.89453125
2023-08-01T15:55:30.696906,0.9568823575973511,0.026835713535547256,-0.10015571862459183,0.2713390588760376,-0.51416015625,-0.09765625,0.89453125
2023-08-01T15:55:30.711382,0.9568823575973511,0.026835713535547256,-0.10015571862459183,0.2713390588760376,-0.5107421875,-0.09716796875,0.89306640625
2023-08-01T15:55:30.712382,0.9568823575973511,0.026835713535547256,-0.10015571862459183,0.2713390588760376,-0.5107421875,-0.09716796875,0.89306640625
2023-08-01T15:55:30.719985,0.9568823575973511,0.026835713535547256,-0.10015571862459183,0.2713390588760376,-0.5146484375,-0.1005859375,0.896484375
2023-08-01T15:55:30.720292,0.9568760395050049,0.026852862909436226,-0.10021619498729706,0.2713373601436615,-0.5146484375,-0.1005859375,0.896484375
2023-08-01T15:55:30.726967,0.9568760395050049,0.026852862909436226,-0.10021619498729706,0.2713373601436615,-0.51513671875,-0.10205078125,0.896484375
2023-08-01T15:55:30.734980,0.9568760395050049,0.026852862909436226,-0.10021619498729706,0.2713373601436615,-0.51513671875,-0.10205078125,0.896484375
2023-08-01T15:55:30.742101,0.9568760395050049,0.026852862909436226,-0.10021619498729706,0.2713373601436615,-0.51318359375,-0.099609375,0.8955078125
2023-08-01T15:55:30.742101,0.9568760395050049,0.026852862909436226,-0.10021619498729706,0.2713373601436615,-0.51318359375,-0.099609375,0.8955078125
2023-08-01T15:55:30.749094,0.9568760395050049,0.026852862909436226,-0.10021619498729706,0.2713373601436615,-0.51513671875,-0.10009765625,0.89599609375
2023-08-01T15:55:30.750246,0.9568760395050049,0.026852862909436226,-0.10021619498729706,0.2713373601436615,-0.51513671875,-0.10009765625,0.89599609375
2023-08-01T15:55:30.757227,0.9568760395050049,0.026852862909436226,-0.10021619498729706,0.2713373601436615,-0.52001953125,-0.1015625,0.89794921875
2023-08-01T15:55:30.757227,0.9568760395050049,0.026852862909436226,-0.10021619498729706,0.2713373601436615,-0.52001953125,-0.1015625,0.89794921875
2023-08-01T15:55:30.771382,0.9568760395050049,0.026852862909436226,-0.10021619498729706,0.2713373601436615,-0.5205078125,-0.10302734375,0.89697265625
2023-08-01T15:55:30.772380,0.9568760395050049,0.026852862909436226,-0.10021619498729706,0.2713373601436615,-0.5205078125,-0.10302734375,0.89697265625
2023-08-01T15:55:30.779382,0.9568760395050049,0.026852862909436226,-0.10021619498729706,0.2713373601436615,-0.51953125,-0.1015625,0.8935546875
2023-08-01T15:55:30.787376,0.9568760395050049,0.026852862909436226,-0.10021619498729706,0.2713373601436615,-0.51953125,-0.1015625,0.8935546875
2023-08-01T15:55:30.787376,0.9568760395050049,0.026852862909436226,-0.10021619498729706,0.2713373601436615,-0.51904296875,-0.1005859375,0.8916015625
2023-08-01T15:55:30.788373,0.9568760395050049,0.026852862909436226,-0.10021619498729706,0.2713373601436615,-0.51904296875,-0.1005859375,0.8916015625
2023-08-01T15:55:30.802033,0.9568760395050049,0.026852862909436226,-0.10021619498729706,0.2713373601436615,-0.517578125,-0.10302734375,0.89501953125
2023-08-01T15:55:30.802033,0.9568760395050049,0.026852862909436226,-0.10021619498729706,0.2713373601436615,-0.517578125,-0.10302734375,0.89501953125
2023-08-01T15:55:30.809034,0.9568760395050049,0.026852862909436226,-0.10021619498729706,0.2713373601436615,-0.51611328125,-0.1015625,0.89208984375
2023-08-01T15:55:30.810059,0.9568760395050049,0.026852862909436226,-0.10021619498729706,0.2713373601436615,-0.51611328125,-0.1015625,0.89208984375
2023-08-01T15:55:30.817208,0.9568760395050049,0.026852862909436226,-0.10021619498729706,0.2713373601436615,-0.51220703125,-0.1005859375,0.89208984375
2023-08-01T15:55:30.817208,0.9568760395050049,0.026852862909436226,-0.10021619498729706,0.2713373601436615,-0.51220703125,-0.1005859375,0.89208984375
2023-08-01T15:55:30.831797,0.9568760395050049,0.026852862909436226,-0.10021619498729706,0.2713373601436615,-0.5087890625,-0.1015625,0.89501953125
2023-08-01T15:55:30.832796,0.9568760395050049,0.026852862909436226,-0.10021619498729706,0.2713373601436615,-0.5087890625,-0.1015625,0.89501953125
2023-08-01T15:55:30.838811,0.9568760395050049,0.026852862909436226,-0.10021619498729706,0.2713373601436615,-0.51513671875,-0.10205078125,0.89501953125
2023-08-01T15:55:30.846464,0.9568760395050049,0.026852862909436226,-0.10021619498729706,0.2713373601436615,-0.51513671875,-0.10205078125,0.89501953125
2023-08-01T15:55:30.847970,0.9568760395050049,0.026852862909436226,-0.10021619498729706,0.2713373601436615,-0.51806640625,-0.1005859375,0.89404296875
2023-08-01T15:55:30.848023,0.9568760395050049,0.026852862909436226,-0.10021619498729706,0.2713373601436615,-0.51806640625,-0.1005859375,0.89404296875
2023-08-01T15:55:30.862057,0.9568760395050049,0.026852862909436226,-0.10021619498729706,0.2713373601436615,-0.51513671875,-0.09814453125,0.89453125
2023-08-01T15:55:30.862057,0.9568760395050049,0.026852862909436226,-0.10021619498729706,0.2713373601436615,-0.51513671875,-0.09814453125,0.89453125
2023-08-01T15:55:30.869255,0.9568760395050049,0.026852862909436226,-0.10021619498729706,0.2713373601436615,-0.515625,-0.099609375,0.89599609375
2023-08-01T15:55:30.870436,0.9568760395050049,0.026852862909436226,-0.10021619498729706,0.2713373601436615,-0.515625,-0.099609375,0.89599609375
2023-08-01T15:55:30.876421,0.9568760395050049,0.026852862909436226,-0.10021619498729706,0.2713373601436615,-0.52001953125,-0.1005859375,0.8935546875
2023-08-01T15:55:30.876421,0.9568760395050049,0.026852862909436226,-0.10021619498729706,0.2713373601436615,-0.52001953125,-0.1005859375,0.8935546875
2023-08-01T15:55:30.891501,0.9568760395050049,0.026852862909436226,-0.10021619498729706,0.2713373601436615,-0.51904296875,-0.1005859375,0.8935546875
2023-08-01T15:55:30.892499,0.9568711519241333,0.026819655671715736,-0.10029095411300659,0.2713303864002228,-0.51904296875,-0.1005859375,0.8935546875
2023-08-01T15:55:30.899498,0.9568711519241333,0.026819655671715736,-0.10029095411300659,0.2713303864002228,-0.5146484375,-0.10107421875,0.8955078125
2023-08-01T15:55:30.899498,0.9568648338317871,0.026836805045604706,-0.10035143047571182,0.2713286876678467,-0.5146484375,-0.10107421875,0.8955078125
2023-08-01T15:55:30.906482,0.9568648338317871,0.026836805045604706,-0.10035143047571182,0.2713286876678467,-0.51220703125,-0.1025390625,0.89697265625
2023-08-01T15:55:30.907989,0.9568648338317871,0.026836805045604706,-0.10035143047571182,0.2713286876678467,-0.51220703125,-0.1025390625,0.89697265625
2023-08-01T15:55:30.923449,0.9568648338317871,0.026836805045604706,-0.10035143047571182,0.2713286876678467,-0.513671875,-0.103515625,0.89599609375
2023-08-01T15:55:30.930455,0.9568573236465454,0.026856806129217148,-0.1004219651222229,0.2713266909122467,-0.513671875,-0.103515625,0.89599609375
2023-08-01T15:55:30.936439,0.9568573236465454,0.026856806129217148,-0.1004219651222229,0.2713266909122467,-0.51806640625,-0.1025390625,0.89501953125
2023-08-01T15:55:30.939455,0.9568520188331604,0.026871098205447197,-0.10047236829996109,0.2713252902030945,-0.51806640625,-0.1025390625,0.89501953125
2023-08-01T15:55:30.942452,0.9568520188331604,0.026871098205447197,-0.10047236829996109,0.2713252902030945,-0.5126953125,-0.1025390625,0.8955078125
2023-08-01T15:55:30.945444,0.9568520188331604,0.026871098205447197,-0.10047236829996109,0.2713252902030945,-0.5126953125,-0.1025390625,0.8955078125
2023-08-01T15:55:30.946441,0.9568520188331604,0.026871098205447197,-0.10047236829996109,0.2713252902030945,-0.51171875,-0.1025390625,0.89453125
2023-08-01T15:55:30.946441,0.9568520188331604,0.026871098205447197,-0.10047236829996109,0.2713252902030945,-0.51171875,-0.1025390625,0.89453125
2023-08-01T15:55:30.960468,0.9568520188331604,0.026871098205447197,-0.10047236829996109,0.2713252902030945,-0.515625,-0.1025390625,0.89404296875
2023-08-01T15:55:30.961465,0.9568520188331604,0.026871098205447197,-0.10047236829996109,0.2713252902030945,-0.515625,-0.1025390625,0.89404296875
2023-08-01T15:55:30.966452,0.9568520188331604,0.026871098205447197,-0.10047236829996109,0.2713252902030945,-0.51416015625,-0.10009765625,0.8955078125
2023-08-01T15:55:30.967960,0.9568520188331604,0.026871098205447197,-0.10047236829996109,0.2713252902030945,-0.51416015625,-0.10009765625,0.8955078125
2023-08-01T15:55:30.975454,0.9568520188331604,0.026871098205447197,-0.10047236829996109,0.2713252902030945,-0.51123046875,-0.10009765625,0.892578125
2023-08-01T15:55:30.975454,0.9568520188331604,0.026871098205447197,-0.10047236829996109,0.2713252902030945,-0.51123046875,-0.10009765625,0.892578125
2023-08-01T15:55:30.989471,0.9568520188331604,0.026871098205447197,-0.10047236829996109,0.2713252902030945,-0.51611328125,-0.09814453125,0.892578125
2023-08-01T15:55:30.990471,0.9568520188331604,0.026871098205447197,-0.10047236829996109,0.2713252902030945,-0.51611328125,-0.09814453125,0.892578125
2023-08-01T15:55:30.996455,0.9568520188331604,0.026871098205447197,-0.10047236829996109,0.2713252902030945,-0.517578125,-0.10009765625,0.89404296875
2023-08-01T15:55:30.997962,0.9568520188331604,0.026871098205447197,-0.10047236829996109,0.2713252902030945,-0.517578125,-0.10009765625,0.89404296875
2023-08-01T15:55:31.004456,0.9568520188331604,0.026871098205447197,-0.10047236829996109,0.2713252902030945,-0.5146484375,-0.0986328125,0.892578125
2023-08-01T15:55:31.005454,0.9568520188331604,0.026871098205447197,-0.10047236829996109,0.2713252902030945,-0.5146484375,-0.0986328125,0.892578125
2023-08-01T15:55:31.019892,0.9568520188331604,0.026871098205447197,-0.10047236829996109,0.2713252902030945,-0.513671875,-0.0966796875,0.89111328125
2023-08-01T15:55:31.020039,0.9568520188331604,0.026871098205447197,-0.10047236829996109,0.2713252902030945,-0.513671875,-0.0966796875,0.89111328125
2023-08-01T15:55:31.026876,0.9568520188331604,0.026871098205447197,-0.10047236829996109,0.2713252902030945,-0.51611328125,-0.0986328125,0.89501953125
2023-08-01T15:55:31.027874,0.9568520188331604,0.026871098205447197,-0.10047236829996109,0.2713252902030945,-0.51611328125,-0.0986328125,0.89501953125
2023-08-01T15:55:31.034885,0.9568520188331604,0.026871098205447197,-0.10047236829996109,0.2713252902030945,-0.5185546875,-0.099609375,0.8974609375
2023-08-01T15:55:31.035880,0.9568520188331604,0.026871098205447197,-0.10047236829996109,0.2713252902030945,-0.5185546875,-0.099609375,0.8974609375
2023-08-01T15:55:31.048890,0.9568520188331604,0.026871098205447197,-0.10047236829996109,0.2713252902030945,-0.51416015625,-0.09765625,0.89453125
2023-08-01T15:55:31.050094,0.9568520188331604,0.026871098205447197,-0.10047236829996109,0.2713252902030945,-0.51416015625,-0.09765625,0.89453125
2023-08-01T15:55:31.056979,0.9568520188331604,0.026871098205447197,-0.10047236829996109,0.2713252902030945,-0.51025390625,-0.09912109375,0.89697265625
2023-08-01T15:55:31.057976,0.9568520188331604,0.026871098205447197,-0.10047236829996109,0.2713252902030945,-0.51025390625,-0.09912109375,0.89697265625
2023-08-01T15:55:31.064172,0.9568520188331604,0.026871098205447197,-0.10047236829996109,0.2713252902030945,-0.51318359375,-0.10009765625,0.8974609375
2023-08-01T15:55:31.065170,0.9568520188331604,0.026871098205447197,-0.10047236829996109,0.2713252902030945,-0.51318359375,-0.10009765625,0.8974609375
2023-08-01T15:55:31.079378,0.9568520188331604,0.026871098205447197,-0.10047236829996109,0.2713252902030945,-0.51708984375,-0.099609375,0.8974609375
2023-08-01T15:55:31.086372,0.9568520188331604,0.026871098205447197,-0.10047236829996109,0.2713252902030945,-0.51708984375,-0.099609375,0.8974609375
2023-08-01T15:55:31.087879,0.9568520188331604,0.026871098205447197,-0.10047236829996109,0.2713252902030945,-0.51513671875,-0.09912109375,0.8974609375
2023-08-01T15:55:31.087879,0.9568520188331604,0.026871098205447197,-0.10047236829996109,0.2713252902030945,-0.51513671875,-0.09912109375,0.8974609375
2023-08-01T15:55:31.094372,0.9568520188331604,0.026871098205447197,-0.10047236829996109,0.2713252902030945,-0.51220703125,-0.09814453125,0.89208984375
2023-08-01T15:55:31.094372,0.9568520188331604,0.026871098205447197,-0.10047236829996109,0.2713252902030945,-0.51220703125,-0.09814453125,0.89208984375
2023-08-01T15:55:31.108929,0.9568520188331604,0.026871098205447197,-0.10047236829996109,0.2713252902030945,-0.51513671875,-0.099609375,0.892578125
