Timestamp,w,x,y,z,ax,ay,az
2023-08-01T17:18:16.481306,0.8850712180137634,0.11480443179607391,0.16561231017112732,0.4195728600025177,-0.28076171875,0.865234375,0.4033203125
2023-08-01T17:18:16.534627,0.8850809931755066,0.11472900211811066,0.16557654738426208,0.41958698630332947,-0.28076171875,0.865234375,0.4033203125
2023-08-01T17:18:16.535624,0.8850809931755066,0.11472900211811066,0.16557654738426208,0.41958698630332947,-0.2763671875,0.865234375,0.40234375
2023-08-01T17:18:16.548817,0.8850946426391602,0.11462383717298508,0.16552668809890747,0.41960665583610535,-0.2763671875,0.865234375,0.40234375
2023-08-01T17:18:16.551811,0.8850946426391602,0.11462383717298508,0.16552668809890747,0.41960665583610535,-0.27978515625,0.86376953125,0.404296875
2023-08-01T17:18:16.563951,0.885103702545166,0.11455395817756653,0.16549356281757355,0.41961973905563354,-0.27978515625,0.86376953125,0.404296875
2023-08-01T17:18:16.564948,0.885103702545166,0.11455395817756653,0.16549356281757355,0.41961973905563354,-0.2861328125,0.8642578125,0.40576171875
2023-08-01T17:18:16.579418,0.8850895762443542,0.11451821029186249,0.16556896269321442,0.4196294844150543,-0.2861328125,0.8642578125,0.40576171875
2023-08-01T17:18:16.579418,0.8850895762443542,0.11451821029186249,0.16556896269321442,0.4196294844150543,-0.28759765625,0.8642578125,0.41015625
2023-08-01T17:18:16.593810,0.8850733041763306,0.11447703838348389,0.16565580666065216,0.4196407198905945,-0.28759765625,0.8642578125,0.41015625
2023-08-01T17:18:16.605781,0.8850733041763306,0.11447703838348389,0.16565580666065216,0.4196407198905945,-0.2890625,0.8662109375,0.41552734375
2023-08-01T17:18:16.623936,0.8850550055503845,0.11443066596984863,0.16575360298156738,0.41965335607528687,-0.2890625,0.8662109375,0.41552734375
2023-08-01T17:18:16.624934,0.8850550055503845,0.11443066596984863,0.16575360298156738,0.41965335607528687,-0.28857421875,0.86572265625,0.4140625
2023-08-01T17:18:16.636247,0.8850550055503845,0.11443066596984863,0.16575360298156738,0.41965335607528687,-0.28466796875,0.85791015625,0.404296875
2023-08-01T17:18:16.636247,0.8850550055503845,0.11443066596984863,0.16575360298156738,0.41965335607528687,-0.2841796875,0.86181640625,0.39990234375
2023-08-01T17:18:16.647220,0.8850550055503845,0.11443066596984863,0.16575360298156738,0.41965335607528687,-0.27783203125,0.8623046875,0.40478515625
2023-08-01T17:18:16.647220,0.8847858905792236,0.11408431828022003,0.1664288192987442,0.42004773020744324,-0.27783203125,0.8623046875,0.40478515625
2023-08-01T17:18:16.654212,0.8847858905792236,0.11408431828022003,0.1664288192987442,0.42004773020744324,-0.27392578125,0.86181640625,0.40673828125
2023-08-01T17:18:16.655202,0.8847858905792236,0.11408431828022003,0.1664288192987442,0.42004773020744324,-0.27685546875,0.86572265625,0.40869140625
2023-08-01T17:18:16.656199,0.8847184181213379,0.11391410231590271,0.16678735613822937,0.42009395360946655,-0.27685546875,0.86572265625,0.40869140625
2023-08-01T17:18:16.661261,0.8847184181213379,0.11391410231590271,0.16678735613822937,0.42009395360946655,-0.28076171875,0.8671875,0.4111328125
2023-08-01T17:18:16.662258,0.8847184181213379,0.11391410231590271,0.16678735613822937,0.42009395360946655,-0.28515625,0.86669921875,0.4169921875
2023-08-01T17:18:16.662258,0.8847184181213379,0.11391410231590271,0.16678735613822937,0.42009395360946655,-0.29052734375,0.86865234375,0.4150390625
2023-08-01T17:18:16.669247,0.8847184181213379,0.11391410231590271,0.16678735613822937,0.42009395360946655,-0.5732421875,1.70947265625,0.77001953125
2023-08-01T17:18:16.669247,0.8847184181213379,0.11391410231590271,0.16678735613822937,0.42009395360946655,-0.5771484375,1.73193359375,0.7646484375
2023-08-01T17:18:16.671780,0.9999993443489075,0.0004203938296996057,0.0007297064876183867,0.0007334740366786718,-0.5771484375,1.73193359375,0.7646484375
2023-08-01T17:18:16.676769,0.9999993443489075,0.0004203938296996057,0.0007297064876183867,0.0007334740366786718,-0.5556640625,1.7216796875,0.7587890625
2023-08-01T17:18:16.683959,0.9999993443489075,0.0004203938296996057,0.0007297064876183867,0.0007334740366786718,-0.5361328125,1.720703125,0.75048828125
2023-08-01T17:18:16.684959,0.9999993443489075,0.0004203938296996057,0.0007297064876183867,0.0007334740366786718,-0.27490234375,0.8544921875,0.38671875
2023-08-01T17:18:16.684959,0.9999977350234985,0.0011082855053246021,0.0010050904238596559,0.0015276663471013308,-0.27490234375,0.8544921875,0.38671875
2023-08-01T17:18:16.690941,0.9999977350234985,0.0011082855053246021,0.0010050904238596559,0.0015276663471013308,-0.263671875,0.86572265625,0.39111328125
2023-08-01T17:18:16.691939,0.9999970197677612,0.0012946996139362454,0.0011382917873561382,0.0017140532145276666,-0.263671875,0.86572265625,0.39111328125
2023-08-01T17:18:16.721867,0.9999970197677612,0.0012946996139362454,0.0011382917873561382,0.0017140532145276666,-0.26318359375,0.86572265625,0.38134765625
2023-08-01T17:18:16.730847,0.9999966025352478,0.0014634720282629132,0.0010593628976494074,0.0018874588422477245,-0.26318359375,0.86572265625,0.38134765625
2023-08-01T17:18:16.730847,0.9999966025352478,0.0014634720282629132,0.0010593628976494074,0.0018874588422477245,-0.2587890625,0.86865234375,0.3779296875
2023-08-01T17:18:16.730847,0.9999964237213135,0.0015586933586746454,0.0008856034255586565,0.0020239586010575294,-0.2587890625,0.86865234375,0.3779296875
2023-08-01T17:18:16.759484,0.9999964237213135,0.0015586933586746454,0.0008856034255586565,0.0020239586010575294,-0.25537109375,0.87158203125,0.37841796875
2023-08-01T17:18:16.760481,0.9999963045120239,0.0015591040719300508,0.0007170059834606946,0.002102650236338377,-0.25537109375,0.87158203125,0.37841796875
2023-08-01T17:18:16.761657,0.9999963045120239,0.0015591040719300508,0.0007170059834606946,0.002102650236338377,-0.24755859375,0.8671875,0.373046875
2023-08-01T17:18:16.789193,0.9999963045120239,0.0015591040719300508,0.0007170059834606946,0.002102650236338377,-0.24755859375,0.8671875,0.373046875
2023-08-01T17:18:16.796325,0.9999963045120239,0.0015591040719300508,0.0007170059834606946,0.002102650236338377,-0.248046875,0.86767578125,0.37353515625
2023-08-01T17:18:16.802309,0.9999962449073792,0.001558927120640874,0.0008011856698431075,0.0021027815528213978,-0.248046875,0.86767578125,0.37353515625
2023-08-01T17:18:16.803307,0.9999962449073792,0.001558927120640874,0.0008011856698431075,0.0021027815528213978,-0.26025390625,0.86572265625,0.37451171875
2023-08-01T17:18:16.829242,0.9999962449073792,0.0015585155924782157,0.0009749372838996351,0.0020451524760574102,-0.26025390625,0.86572265625,0.37451171875
2023-08-01T17:18:16.830239,0.9999962449073792,0.0015585155924782157,0.0009749372838996351,0.0020451524760574102,-0.27197265625,0.86865234375,0.3779296875
2023-08-01T17:18:16.860422,0.9999961853027344,0.0015581208281219006,0.0011401105439290404,0.0019868183881044388,-0.27197265625,0.86865234375,0.3779296875
2023-08-01T17:18:16.877113,0.9999961853027344,0.0015581208281219006,0.0011401105439290404,0.0019868183881044388,-0.28125,0.86962890625,0.3828125
2023-08-01T17:18:16.884098,0.9999963045120239,0.0014683986082673073,0.0012294662883505225,0.0019291599746793509,-0.28125,0.86962890625,0.3828125
2023-08-01T17:18:16.888088,0.9999963045120239,0.0014683986082673073,0.0012294662883505225,0.0019291599746793509,-0.28125,0.86669921875,0.3876953125
2023-08-01T17:18:16.892082,0.9999966025352478,0.001399864675477147,0.0012294657062739134,0.0018397625535726547,-0.28125,0.86669921875,0.3876953125
2023-08-01T17:18:16.939202,0.9999966025352478,0.001399864675477147,0.0012294657062739134,0.0018397625535726547,-0.279296875,0.8662109375,0.3916015625
2023-08-01T17:18:16.950178,0.9999969005584717,0.001315539819188416,0.0012294360203668475,0.00175038434099406,-0.279296875,0.8662109375,0.3916015625
2023-08-01T17:18:16.952175,0.9999969005584717,0.001315539819188416,0.0012294360203668475,0.00175038434099406,-0.2783203125,0.86962890625,0.3935546875
2023-08-01T17:18:16.958160,0.9999971985816956,0.0012629516422748566,0.0011557048419490457,0.001681924914009869,-0.2783203125,0.86962890625,0.3935546875
2023-08-01T17:18:16.958160,0.9999971985816956,0.0012629516422748566,0.0011557048419490457,0.001681924914009869,-0.27734375,0.87158203125,0.39501953125
2023-08-01T17:18:16.959157,0.9999974966049194,0.0011629757937043905,0.0010871641570702195,0.001608263235539198,-0.27734375,0.87158203125,0.39501953125
2023-08-01T17:18:16.961391,0.9999974966049194,0.0011629757937043905,0.0010871641570702195,0.001608263235539198,-0.27490234375,0.8701171875,0.39306640625
2023-08-01T17:18:16.978936,0.9999978542327881,0.0010576709173619747,0.0010344487382099032,0.00149778020568192,-0.27490234375,0.8701171875,0.39306640625
2023-08-01T17:18:16.997929,0.9999978542327881,0.0010576709173619747,0.0010344487382099032,0.00149778020568192,-0.27294921875,0.869140625,0.38818359375
2023-08-01T17:18:17.071742,0.9999980926513672,0.0009510562522336841,0.0010343792382627726,0.0014126666355878115,-0.27294921875,0.869140625,0.38818359375
2023-08-01T17:18:17.072741,0.9999980926513672,0.0009510562522336841,0.0010343792382627726,0.0014126666355878115,-0.27685546875,0.8671875,0.3876953125
2023-08-01T17:18:17.073738,0.9999980926513672,0.0009510562522336841,0.0010343792382627726,0.0014126666355878115,-0.2763671875,0.865234375,0.41015625
2023-08-01T17:18:17.081717,0.9999979734420776,0.0006653058808296919,0.0013677439419552684,0.0012816597009077668,-0.2763671875,0.865234375,0.41015625
2023-08-01T17:18:17.094686,0.9999979734420776,0.0006653058808296919,0.0013677439419552684,0.0012816597009077668,-0.28125,0.86572265625,0.41162109375
2023-08-01T17:18:17.158698,0.9999977946281433,0.0006082627805881202,0.001538116717711091,0.0012818508548662066,-0.28125,0.86572265625,0.41162109375
2023-08-01T17:18:17.159696,0.9999977946281433,0.0006082627805881202,0.001538116717711091,0.0012818508548662066,-0.29296875,0.86865234375,0.40380859375
2023-08-01T17:18:17.159696,0.999997079372406,0.0005497790407389402,0.001995901810005307,0.0012822048738598824,-0.29296875,0.86865234375,0.40380859375
2023-08-01T17:18:17.160693,0.999997079372406,0.0005497790407389402,0.001995901810005307,0.0012822048738598824,-0.2919921875,0.86767578125,0.404296875
2023-08-01T17:18:17.160693,0.999997079372406,0.0005497790407389402,0.001995901810005307,0.0012822048738598824,-0.28515625,0.87060546875,0.4091796875
2023-08-01T17:18:17.162951,0.999997079372406,0.0005497790407389402,0.001995901810005307,0.0012822048738598824,-0.26953125,0.8671875,0.408203125
2023-08-01T17:18:17.163948,0.999997079372406,0.0007122775423340499,0.0018605851801112294,0.0013449882389977574,-0.26953125,0.8671875,0.408203125
2023-08-01T17:18:17.165942,0.999997079372406,0.0007122775423340499,0.0018605851801112294,0.0013449882389977574,-0.26708984375,0.869140625,0.40576171875
2023-08-01T17:18:17.166943,0.999997079372406,0.0007122775423340499,0.0018605851801112294,0.0013449882389977574,-0.28466796875,0.86669921875,0.38427734375
2023-08-01T17:18:17.167937,0.9999960660934448,0.0009501621243543923,0.002098547760397196,0.0015929003711789846,-0.28466796875,0.86669921875,0.38427734375
2023-08-01T17:18:17.167937,0.9999960660934448,0.0009501621243543923,0.002098547760397196,0.0015929003711789846,-0.28662109375,0.86767578125,0.3798828125
2023-08-01T17:18:17.169931,0.9999960660934448,0.0009501621243543923,0.002098547760397196,0.0015929003711789846,-0.2705078125,0.86328125,0.3818359375
2023-08-01T17:18:17.174036,0.9999961853027344,0.0009510103845968843,0.001850875560194254,0.001808473840355873,-0.2705078125,0.86328125,0.3818359375
2023-08-01T17:18:17.175026,0.9999961853027344,0.0009510103845968843,0.001850875560194254,0.001808473840355873,-0.26611328125,0.86328125,0.376953125
2023-08-01T17:18:17.190991,0.9999959468841553,0.0009507534559816122,0.001992955105379224,0.0018086089985445142,-0.26611328125,0.86328125,0.376953125
2023-08-01T17:18:17.212999,0.9999959468841553,0.0009507534559816122,0.001992955105379224,0.0018086089985445142,-0.27099609375,0.86376953125,0.400390625
2023-08-01T17:18:17.213996,0.9999959468841553,0.0009507534559816122,0.001992955105379224,0.0018086089985445142,-0.27099609375,0.86376953125,0.400390625
2023-08-01T17:18:17.214993,0.9999959468841553,0.0009507534559816122,0.001992955105379224,0.0018086089985445142,-0.267578125,0.8662109375,0.40087890625
2023-08-01T17:18:17.232102,0.9999959468841553,0.0009507534559816122,0.001992955105379224,0.0018086089985445142,-0.28173828125,0.87158203125,0.40283203125
2023-08-01T17:18:17.232102,0.9999959468841553,0.0009507534559816122,0.001992955105379224,0.0018086089985445142,-0.28369140625,0.869140625,0.396484375
2023-08-01T17:18:17.254452,0.9999959468841553,0.0009507534559816122,0.001992955105379224,0.0018086089985445142,-0.2734375,0.86962890625,0.3974609375
2023-08-01T17:18:17.255450,0.9999959468841553,0.0009507534559816122,0.001992955105379224,0.0018086089985445142,-0.2763671875,0.869140625,0.404296875
2023-08-01T17:18:17.314096,0.9999959468841553,0.0009507534559816122,0.001992955105379224,0.0018086089985445142,-0.27685546875,0.86767578125,0.39306640625
2023-08-01T17:18:17.315103,0.999997615814209,0.0008315806044265628,0.0009846779284998775,0.0018027452751994133,-0.27685546875,0.86767578125,0.39306640625
2023-08-01T17:18:17.316090,0.999997615814209,0.0008315806044265628,0.0009846779284998775,0.0018027452751994133,-0.263671875,0.8623046875,0.39013671875
2023-08-01T17:18:17.316090,0.9999977350234985,0.000831513199955225,0.0009847348555922508,0.0017343180952593684,-0.263671875,0.8623046875,0.39013671875
2023-08-01T17:18:17.340664,0.9999977350234985,0.000831513199955225,0.0009847348555922508,0.0017343180952593684,-0.2744140625,0.86669921875,0.3935546875
2023-08-01T17:18:17.340664,0.9999979138374329,0.000831611396279186,0.0008952629286795855,0.0016763437306508422,-0.2744140625,0.86669921875,0.3935546875
2023-08-01T17:18:17.361613,0.9999979138374329,0.000831611396279186,0.0008952629286795855,0.0016763437306508422,-0.283203125,0.86572265625,0.4052734375
2023-08-01T17:18:17.361613,0.9999979734420776,0.0008319730986841023,0.0006794155924580991,0.0016761639853939414,-0.283203125,0.86572265625,0.4052734375
2023-08-01T17:18:17.363610,0.9999979734420776,0.0008319730986841023,0.0006794155924580991,0.0016761639853939414,-0.27978515625,0.8662109375,0.4111328125
2023-08-01T17:18:17.368597,0.999998152256012,0.0008323437068611383,0.00045830465387552977,0.0016759800491854548,-0.27978515625,0.8662109375,0.4111328125
2023-08-01T17:18:17.369594,0.999998152256012,0.0008323437068611383,0.00045830465387552977,0.0016759800491854548,-0.27734375,0.865234375,0.4072265625
2023-08-01T17:18:17.369594,0.9999983310699463,0.000832707853987813,0.00022671022452414036,0.0016231508925557137,-0.27734375,0.865234375,0.4072265625
2023-08-01T17:18:17.388596,0.9999983310699463,0.000832707853987813,0.00022671022452414036,0.0016231508925557137,-0.27783203125,0.8642578125,0.39892578125
2023-08-01T17:18:17.389594,0.9999983906745911,0.0008331056451424956,-1.8346996512264013e-05,0.001622946816496551,-0.27783203125,0.8642578125,0.39892578125
2023-08-01T17:18:17.389594,0.9999983906745911,0.0008331056451424956,-1.8346996512264013e-05,0.001622946816496551,-0.279296875,0.86474609375,0.39697265625
2023-08-01T17:18:17.390590,0.9999983906745911,0.0008331056451424956,-1.8346996512264013e-05,0.001622946816496551,-0.28515625,0.86865234375,0.39599609375
2023-08-01T17:18:17.390590,0.9999980926513672,0.0008341990760527551,-0.0006922072498127818,0.0016223849961534142,-0.28515625,0.86865234375,0.39599609375
2023-08-01T17:18:17.391742,0.9999980926513672,0.0008341990760527551,-0.0006922072498127818,0.0016223849961534142,-0.28564453125,0.86767578125,0.3955078125
2023-08-01T17:18:17.444471,0.9999979138374329,0.0008346090326085687,-0.0009448999771848321,0.0016221741680055857,-0.28564453125,0.86767578125,0.3955078125
2023-08-01T17:18:17.445469,0.9999979138374329,0.0008346090326085687,-0.0009448999771848321,0.0016221741680055857,-0.28076171875,0.87109375,0.39208984375
2023-08-01T17:18:17.465999,0.9999979138374329,0.0008346090326085687,-0.0009448999771848321,0.0016221741680055857,-0.2841796875,0.8720703125,0.404296875
2023-08-01T17:18:17.466996,0.9999958872795105,0.0008366559632122517,-0.002207209123298526,0.00162111921235919,-0.2841796875,0.8720703125,0.404296875
2023-08-01T17:18:17.484022,0.9999958872795105,0.0008366559632122517,-0.002207209123298526,0.00162111921235919,-0.27099609375,0.86669921875,0.38818359375
2023-08-01T17:18:17.484022,0.9999958872795105,0.0008366559632122517,-0.002207209123298526,0.00162111921235919,-0.28076171875,0.86767578125,0.39111328125
2023-08-01T17:18:17.485018,0.9999931454658508,0.0008383322274312377,-0.003241433762013912,0.0016202533151954412,-0.28076171875,0.86767578125,0.39111328125
2023-08-01T17:18:17.485018,0.9999931454658508,0.0008383322274312377,-0.003241433762013912,0.0016202533151954412,-0.2763671875,0.8642578125,0.400390625
2023-08-01T17:18:17.486015,0.9999924898147583,0.0008386051049456,-0.0034099069889634848,0.0016201118705794215,-0.2763671875,0.8642578125,0.400390625
2023-08-01T17:18:17.486015,0.9999924898147583,0.0008386051049456,-0.0034099069889634848,0.0016201118705794215,-0.2724609375,0.8642578125,0.39892578125
2023-08-01T17:18:17.487013,0.9999924898147583,0.0008386051049456,-0.0034099069889634848,0.0016201118705794215,-0.275390625,0.86328125,0.39599609375
2023-08-01T17:18:17.487013,0.999989926815033,0.000787140685133636,-0.004131220281124115,0.0016193039482459426,-0.275390625,0.86328125,0.39599609375
2023-08-01T17:18:17.488010,0.999989926815033,0.000787140685133636,-0.004131220281124115,0.0016193039482459426,-0.27783203125,0.8603515625,0.40576171875
2023-08-01T17:18:17.488010,0.999988853931427,0.000787558383308351,-0.004389174748212099,0.0016191009199246764,-0.27783203125,0.8603515625,0.40576171875
2023-08-01T17:18:17.490390,0.999988853931427,0.000787558383308351,-0.004389174748212099,0.0016191009199246764,-0.27783203125,0.85986328125,0.41357421875
2023-08-01T17:18:17.490390,0.9999879598617554,0.0007875919109210372,-0.004554374609142542,0.0016722350846976042,-0.27783203125,0.85986328125,0.41357421875
2023-08-01T17:18:17.515282,0.9999879598617554,0.0007875919109210372,-0.004554374609142542,0.0016722350846976042,-0.27978515625,0.865234375,0.41357421875
2023-08-01T17:18:17.516280,0.9999874830245972,0.0007877734024077654,-0.004662900231778622,0.0016721496358513832,-0.27978515625,0.865234375,0.41357421875
2023-08-01T17:18:17.542804,0.9999874830245972,0.0007877734024077654,-0.004662900231778622,0.0016721496358513832,-0.28369140625,0.869140625,0.4052734375
2023-08-01T17:18:17.543802,0.9999865293502808,0.0007881079218350351,-0.0048629543744027615,0.0016719920095056295,-0.28369140625,0.869140625,0.4052734375
2023-08-01T17:18:17.544798,0.9999865293502808,0.0007881079218350351,-0.0048629543744027615,0.0016719920095056295,-0.275390625,0.86865234375,0.40478515625
2023-08-01T17:18:17.545795,0.9999856948852539,0.0007883984362706542,-0.00503669073805213,0.001671855105087161,-0.275390625,0.86865234375,0.40478515625
2023-08-01T17:18:17.545795,0.9999856948852539,0.0007883984362706542,-0.00503669073805213,0.001671855105087161,-0.27197265625,0.86767578125,0.40478515625
2023-08-01T17:18:17.560790,0.9999856948852539,0.0007883984362706542,-0.00503669073805213,0.001671855105087161,-0.27587890625,0.8701171875,0.39794921875
2023-08-01T17:18:17.562035,0.99998539686203,0.0007884952938184142,-0.005094628315418959,0.001671809470281005,-0.27587890625,0.8701171875,0.39794921875
2023-08-01T17:18:17.562035,0.99998539686203,0.0007884952938184142,-0.005094628315418959,0.001671809470281005,-0.2763671875,0.8701171875,0.3994140625
2023-08-01T17:18:17.563032,0.9999846816062927,0.0007887269021011889,-0.0052331541664898396,0.0016717002727091312,-0.2763671875,0.8701171875,0.3994140625
2023-08-01T17:18:17.564029,0.9999846816062927,0.0007887269021011889,-0.0052331541664898396,0.0016717002727091312,-0.27490234375,0.869140625,0.40087890625
2023-08-01T17:18:17.564029,0.9999832510948181,0.0007891760324127972,-0.005501828622072935,0.0016714883968234062,-0.27490234375,0.869140625,0.40087890625
2023-08-01T17:18:17.565027,0.9999832510948181,0.0007891760324127972,-0.005501828622072935,0.0016714883968234062,-0.2744140625,0.86767578125,0.4013671875
2023-08-01T17:18:17.565027,0.9999815225601196,0.0007896656752564013,-0.0057948194444179535,0.0016712569631636143,-0.2744140625,0.86767578125,0.4013671875
2023-08-01T17:18:17.566024,0.9999815225601196,0.0007896656752564013,-0.0057948194444179535,0.0016712569631636143,-0.2744140625,0.869140625,0.39794921875
2023-08-01T17:18:17.566024,0.9999803304672241,0.0007900088094174862,-0.006000136025249958,0.0016710947966203094,-0.2744140625,0.869140625,0.39794921875
2023-08-01T17:18:17.569523,0.9999803304672241,0.0007900088094174862,-0.006000136025249958,0.0016710947966203094,-0.2724609375,0.8701171875,0.39990234375
2023-08-01T17:18:17.570524,0.999979555606842,0.0007902199868112803,-0.006126499269157648,0.0016709949122741818,-0.2724609375,0.8701171875,0.39990234375
2023-08-01T17:18:17.571521,0.999979555606842,0.0007902199868112803,-0.006126499269157648,0.0016709949122741818,-0.26806640625,0.8662109375,0.404296875
2023-08-01T17:18:17.584258,0.999979555606842,0.0007902199868112803,-0.006126499269157648,0.0016709949122741818,-0.26806640625,0.8662109375,0.404296875
2023-08-01T17:18:17.585256,0.999979555606842,0.0007902199868112803,-0.006126499269157648,0.0016709949122741818,-0.27294921875,0.8671875,0.4072265625
2023-08-01T17:18:17.585256,0.999979555606842,0.0007902199868112803,-0.006126499269157648,0.0016709949122741818,-0.27294921875,0.8671875,0.4072265625
2023-08-01T17:18:17.614333,0.999979555606842,0.0007902199868112803,-0.006126499269157648,0.0016709949122741818,-0.27490234375,0.86669921875,0.40234375
2023-08-01T17:18:17.614333,0.9999796748161316,0.0007906314567662776,-0.006126446183770895,0.0016038360772654414,-0.27490234375,0.86669921875,0.40234375
2023-08-01T17:18:17.621825,0.9999796748161316,0.0007906314567662776,-0.006126446183770895,0.0016038360772654414,-0.2763671875,0.865234375,0.40185546875
2023-08-01T17:18:17.621825,0.9999792575836182,0.0008433713810518384,-0.006189562845975161,0.0016041086055338383,-0.2763671875,0.865234375,0.40185546875
2023-08-01T17:18:17.622824,0.9999792575836182,0.0008433713810518384,-0.006189562845975161,0.0016041086055338383,-0.283203125,0.86669921875,0.40380859375
2023-08-01T17:18:17.628806,0.9999781250953674,0.0008436362259089947,-0.006354718469083309,0.0016039690235629678,-0.283203125,0.86669921875,0.40380859375
2023-08-01T17:18:17.629805,0.9999781250953674,0.0008436362259089947,-0.006354718469083309,0.0016039690235629678,-0.27783203125,0.86474609375,0.39990234375
2023-08-01T17:18:17.630857,0.9999772310256958,0.0008438557852059603,-0.006491608452051878,0.0016038535395637155,-0.27783203125,0.86474609375,0.39990234375
2023-08-01T17:18:17.645018,0.9999772310256958,0.0008438557852059603,-0.006491608452051878,0.0016038535395637155,-0.2685546875,0.86767578125,0.39306640625
2023-08-01T17:18:17.651057,0.9999766945838928,0.0008439909433946013,-0.006575863342732191,0.0016037824098020792,-0.2685546875,0.86767578125,0.39306640625
2023-08-01T17:18:17.652054,0.9999766945838928,0.0008439909433946013,-0.006575863342732191,0.0016037824098020792,-0.271484375,0.86865234375,0.39501953125
2023-08-01T17:18:17.653051,0.9999766945838928,0.0008439909433946013,-0.006575863342732191,0.0016037824098020792,-0.271484375,0.86865234375,0.39501953125
2023-08-01T17:18:17.659034,0.9999766945838928,0.0008439909433946013,-0.006575863342732191,0.0016037824098020792,-0.27783203125,0.8642578125,0.39697265625
2023-08-01T17:18:17.659034,0.999977171421051,0.0008438728400506079,-0.00650221249088645,0.0016038445755839348,-0.27783203125,0.8642578125,0.39697265625
2023-08-01T17:18:17.660535,0.999977171421051,0.0008438728400506079,-0.00650221249088645,0.0016038445755839348,-0.27783203125,0.86572265625,0.3974609375
2023-08-01T17:18:17.687037,0.999977707862854,0.0008437378564849496,-0.0064180344343185425,0.0016039155889302492,-0.27783203125,0.86572265625,0.3974609375
2023-08-01T17:18:17.687037,0.999977707862854,0.0008437378564849496,-0.0064180344343185425,0.0016039155889302492,-0.27734375,0.86669921875,0.39794921875
2023-08-01T17:18:17.688034,0.999977707862854,0.0008437378564849496,-0.0064180344343185425,0.0016039155889302492,-0.27734375,0.86669921875,0.39794921875
2023-08-01T17:18:17.689032,0.999977707862854,0.0008437378564849496,-0.0064180344343185425,0.0016039155889302492,-0.28466796875,0.869140625,0.3974609375
2023-08-01T17:18:17.691377,0.999977707862854,0.0008437378564849496,-0.0064180344343185425,0.0016039155889302492,-0.28466796875,0.869140625,0.3974609375
2023-08-01T17:18:17.691377,0.999977707862854,0.0008437378564849496,-0.0064180344343185425,0.0016039155889302492,-0.2861328125,0.8701171875,0.400390625
2023-08-01T17:18:17.703853,0.999977707862854,0.0008437378564849496,-0.0064180344343185425,0.0016039155889302492,-0.2861328125,0.8701171875,0.400390625
2023-08-01T17:18:17.704851,0.999977707862854,0.0008437378564849496,-0.0064180344343185425,0.0016039155889302492,-0.279296875,0.86669921875,0.3974609375
2023-08-01T17:18:17.704851,0.999977707862854,0.0008437378564849496,-0.0064180344343185425,0.0016039155889302492,-0.279296875,0.86669921875,0.3974609375
2023-08-01T17:18:17.711417,0.999977707862854,0.0008437378564849496,-0.0064180344343185425,0.0016039155889302492,-0.275390625,0.869140625,0.3984375
2023-08-01T17:18:17.712415,0.9999783039093018,0.0008436113712377846,-0.006339120678603649,0.0016039824113249779,-0.275390625,0.869140625,0.3984375
2023-08-01T17:18:17.726603,0.9999783039093018,0.0008436113712377846,-0.006339120678603649,0.0016039824113249779,-0.27685546875,0.86767578125,0.3984375
2023-08-01T17:18:17.726603,0.9999786615371704,0.000843527028337121,-0.006286523770540953,0.001604026765562594,-0.27685546875,0.86767578125,0.3984375
2023-08-01T17:18:17.727601,0.9999786615371704,0.000843527028337121,-0.006286523770540953,0.001604026765562594,-0.279296875,0.8671875,0.39697265625
2023-08-01T17:18:17.734088,0.9999786615371704,0.000843527028337121,-0.006286523770540953,0.001604026765562594,-0.279296875,0.8671875,0.39697265625
2023-08-01T17:18:17.736083,0.9999786615371704,0.000843527028337121,-0.006286523770540953,0.001604026765562594,-0.28076171875,0.869140625,0.39990234375
2023-08-01T17:18:17.736083,0.9999783039093018,0.0008436125353910029,-0.00633982615545392,0.0016039818292483687,-0.28076171875,0.869140625,0.39990234375
2023-08-01T17:18:17.740583,0.9999783039093018,0.0008436125353910029,-0.00633982615545392,0.0016039818292483687,-0.275390625,0.8662109375,0.39990234375
2023-08-01T17:18:17.741889,0.9999783039093018,0.0008436125353910029,-0.00633982615545392,0.0016039818292483687,-0.275390625,0.8662109375,0.39990234375
2023-08-01T17:18:17.742887,0.9999783039093018,0.0008436125353910029,-0.00633982615545392,0.0016039818292483687,-0.27490234375,0.8662109375,0.39892578125
2023-08-01T17:18:17.763887,0.99997878074646,0.0008434943738393486,-0.006266174837946892,0.0016040439950302243,-0.27490234375,0.8662109375,0.39892578125
2023-08-01T17:18:17.763887,0.99997878074646,0.0008434943738393486,-0.006266174837946892,0.0016040439950302243,-0.26953125,0.8662109375,0.3994140625
2023-08-01T17:18:17.764883,0.9999794960021973,0.0008433064795099199,-0.006149033084511757,0.0016041428316384554,-0.26953125,0.8662109375,0.3994140625
2023-08-01T17:18:17.771373,0.9999794960021973,0.0008433064795099199,-0.006149033084511757,0.0016041428316384554,-0.26806640625,0.86572265625,0.3974609375
2023-08-01T17:18:17.771373,0.999980092048645,0.0007863503997214139,-0.006066504865884781,0.001603863202035427,-0.26806640625,0.86572265625,0.3974609375
2023-08-01T17:18:17.772383,0.999980092048645,0.0007863503997214139,-0.006066504865884781,0.001603863202035427,-0.27685546875,0.8642578125,0.4013671875
2023-08-01T17:18:17.786894,0.9999800324440002,0.0007284546154551208,-0.0060665966011583805,0.0016035117441788316,-0.27685546875,0.8642578125,0.4013671875
2023-08-01T17:18:17.786894,0.9999800324440002,0.0007284546154551208,-0.0060665966011583805,0.0016035117441788316,-0.27978515625,0.8642578125,0.4033203125
2023-08-01T17:18:17.787893,0.9999800324440002,0.0007284546154551208,-0.0060665966011583805,0.0016035117441788316,-0.27978515625,0.8642578125,0.4033203125
2023-08-01T17:18:17.793620,0.9999800324440002,0.0007284546154551208,-0.0060665966011583805,0.0016035117441788316,-0.2763671875,0.86767578125,0.40185546875
2023-08-01T17:18:17.794617,0.9999803304672241,0.0007283692830242217,-0.006013371516019106,0.001603550510481,-0.2763671875,0.86767578125,0.40185546875
2023-08-01T17:18:17.794617,0.9999803304672241,0.0007283692830242217,-0.006013371516019106,0.001603550510481,-0.2763671875,0.86474609375,0.4033203125
2023-08-01T17:18:17.809165,0.9999809265136719,0.000728208979126066,-0.005913402419537306,0.0016036232700571418,-0.2763671875,0.86474609375,0.4033203125
2023-08-01T17:18:17.809165,0.9999809265136719,0.000728208979126066,-0.005913402419537306,0.0016036232700571418,-0.27587890625,0.86572265625,0.40576171875
2023-08-01T17:18:17.817172,0.9999816417694092,0.0007280149147845805,-0.005792379379272461,0.0016037113964557648,-0.27587890625,0.86572265625,0.40576171875
2023-08-01T17:18:17.817172,0.9999816417694092,0.0007280149147845805,-0.005792379379272461,0.0016037113964557648,-0.2744140625,0.86328125,0.40576171875
2023-08-01T17:18:17.818169,0.9999827146530151,0.0007277110707946122,-0.00560292974114418,0.0016038493486121297,-0.2744140625,0.86328125,0.40576171875
2023-08-01T17:18:17.831853,0.9999827146530151,0.0007277110707946122,-0.00560292974114418,0.0016038493486121297,-0.27880859375,0.86376953125,0.4052734375
2023-08-01T17:18:17.839006,0.9999840259552002,0.0007273312658071518,-0.005366107914596796,0.0016040216432884336,-0.27880859375,0.86376953125,0.4052734375
2023-08-01T17:18:17.839006,0.9999840259552002,0.0007273312658071518,-0.005366107914596796,0.0016040216432884336,-0.28564453125,0.8671875,0.40185546875
2023-08-01T17:18:17.847067,0.999984860420227,0.0007270750356838107,-0.0052063544280827045,0.0016041378257796168,-0.28564453125,0.8671875,0.40185546875
2023-08-01T17:18:17.847067,0.999984860420227,0.0007270750356838107,-0.0052063544280827045,0.0016041378257796168,-0.2890625,0.8681640625,0.40380859375
2023-08-01T17:18:17.848084,0.9999852180480957,0.0007266031461767852,-0.005113447550684214,0.0016661986010149121,-0.2890625,0.8681640625,0.40380859375
2023-08-01T17:18:17.868393,0.9999852180480957,0.0007266031461767852,-0.005113447550684214,0.0016661986010149121,-0.27978515625,0.8681640625,0.4033203125
2023-08-01T17:18:17.876787,0.9999856352806091,0.0007264612358994782,-0.005028263665735722,0.001666260533966124,-0.27978515625,0.8681640625,0.4033203125
2023-08-01T17:18:17.876787,0.9999856352806091,0.0007264612358994782,-0.005028263665735722,0.001666260533966124,-0.27294921875,0.87060546875,0.4033203125
2023-08-01T17:18:17.877784,0.9999862909317017,0.000726250815205276,-0.004901976324617863,0.0016663522692397237,-0.27294921875,0.87060546875,0.4033203125
2023-08-01T17:18:17.898535,0.9999862909317017,0.000726250815205276,-0.004901976324617863,0.0016663522692397237,-0.26953125,0.86962890625,0.40283203125
2023-08-01T17:18:17.899536,0.999987006187439,0.0007838902529329062,-0.004744010977447033,0.0016667507588863373,-0.26953125,0.86962890625,0.40283203125
2023-08-01T17:18:17.914223,0.999987006187439,0.0007838902529329062,-0.004744010977447033,0.0016667507588863373,-0.26953125,0.8720703125,0.396484375
2023-08-01T17:18:17.914223,0.9999873042106628,0.0007837850134819746,-0.004680886399000883,0.0016668002353981137,-0.26953125,0.8720703125,0.396484375
2023-08-01T17:18:17.915221,0.9999873042106628,0.0007837850134819746,-0.004680886399000883,0.0016668002353981137,-0.27294921875,0.87255859375,0.3955078125
2023-08-01T17:18:17.929461,0.9999872446060181,0.0007835386204533279,-0.0046809278428554535,0.0017194360261783004,-0.27294921875,0.87255859375,0.3955078125
2023-08-01T17:18:17.929461,0.9999872446060181,0.0007835386204533279,-0.0046809278428554535,0.0017194360261783004,-0.27734375,0.875,0.3994140625
2023-08-01T17:18:17.930544,0.9999872446060181,0.0007835386204533279,-0.0046809278428554535,0.0017194360261783004,-0.27734375,0.875,0.3994140625
2023-08-01T17:18:17.951329,0.9999872446060181,0.0007835386204533279,-0.0046809278428554535,0.0017194360261783004,-0.27978515625,0.8740234375,0.400390625
2023-08-01T17:18:17.952326,0.999987006187439,0.0007836291915737092,-0.004733602050691843,0.0017193946987390518,-0.27978515625,0.8740234375,0.400390625
2023-08-01T17:18:17.952326,0.999987006187439,0.0007836291915737092,-0.004733602050691843,0.0017193946987390518,-0.26708984375,0.8701171875,0.400390625
2023-08-01T17:18:17.959060,0.999987006187439,0.0007836291915737092,-0.004733602050691843,0.0017193946987390518,-0.26708984375,0.8701171875,0.400390625
2023-08-01T17:18:17.960133,0.999987006187439,0.0007836291915737092,-0.004733602050691843,0.0017193946987390518,-0.26611328125,0.86962890625,0.39697265625
2023-08-01T17:18:17.960133,0.9999874830245972,0.0007834552670828998,-0.004632438533008099,0.001719473977573216,-0.26611328125,0.86962890625,0.39697265625
2023-08-01T17:18:17.966456,0.9999874830245972,0.0007834552670828998,-0.004632438533008099,0.001719473977573216,-0.2724609375,0.8671875,0.390625
2023-08-01T17:18:17.966456,0.9999883770942688,0.0007831294788047671,-0.004442987963557243,0.0017196224071085453,-0.2724609375,0.8671875,0.390625
2023-08-01T17:18:17.967455,0.9999883770942688,0.0007831294788047671,-0.004442987963557243,0.0017196224071085453,-0.2724609375,0.86376953125,0.39013671875
2023-08-01T17:18:17.981873,0.9999894499778748,0.0007827221998013556,-0.0042061652056872845,0.0017198078567162156,-0.2724609375,0.86376953125,0.39013671875
2023-08-01T17:18:17.981873,0.9999894499778748,0.0007827221998013556,-0.0042061652056872845,0.0017198078567162156,-0.271484375,0.86279296875,0.39111328125
2023-08-01T17:18:17.982871,0.9999905824661255,0.0007822515326552093,-0.003932496998459101,0.0017200220609083772,-0.271484375,0.86279296875,0.39111328125
2023-08-01T17:18:17.988364,0.9999905824661255,0.0007822515326552093,-0.003932496998459101,0.0017200220609083772,-0.279296875,0.86572265625,0.3916015625
2023-08-01T17:18:17.989871,0.9999911189079285,0.0007819617749191821,-0.003764099907130003,0.0017201536102220416,-0.279296875,0.86572265625,0.3916015625
2023-08-01T17:18:17.995958,0.9999911189079285,0.0007819617749191821,-0.003764099907130003,0.0017201536102220416,-0.2744140625,0.8671875,0.3896484375
2023-08-01T17:18:17.996954,0.9999911189079285,0.0007819617749191821,-0.003764099907130003,0.0017201536102220416,-0.2744140625,0.8671875,0.3896484375
2023-08-01T17:18:17.997951,0.9999911189079285,0.0007819617749191821,-0.003764099907130003,0.0017201536102220416,-0.26708984375,0.8642578125,0.390625
2023-08-01T17:18:18.011939,0.9999911189079285,0.0007819617749191821,-0.003764099907130003,0.0017201536102220416,-0.26708984375,0.8642578125,0.390625
2023-08-01T17:18:18.012936,0.9999911189079285,0.0007819617749191821,-0.003764099907130003,0.0017201536102220416,-0.2744140625,0.86474609375,0.39111328125
2023-08-01T17:18:18.012936,0.9999911785125732,0.0007030109991319478,-0.003764235647395253,0.0017198564019054174,-0.2744140625,0.86474609375,0.39111328125
2023-08-01T17:18:18.025914,0.9999911785125732,0.0007030109991319478,-0.003764235647395253,0.0017198564019054174,-0.27978515625,0.86376953125,0.39306640625
2023-08-01T17:18:18.026910,0.9999915361404419,0.0006397243705578148,-0.00369069236330688,0.0017196704866364598,-0.27978515625,0.86376953125,0.39306640625
2023-08-01T17:18:18.027909,0.9999915361404419,0.0006397243705578148,-0.00369069236330688,0.0017196704866364598,-0.27880859375,0.8662109375,0.3916015625
2023-08-01T17:18:18.056663,0.9999920129776001,0.0005710925906896591,-0.0035697855055332184,0.0017194953979924321,-0.27880859375,0.8662109375,0.3916015625
2023-08-01T17:18:18.056663,0.9999920129776001,0.0005710925906896591,-0.0035697855055332184,0.0017194953979924321,-0.2822265625,0.86767578125,0.3896484375
2023-08-01T17:18:18.057662,0.9999925494194031,0.00047612475464120507,-0.003438396845012903,0.0017192322993651032,-0.2822265625,0.86767578125,0.3896484375
2023-08-01T17:18:18.093568,0.9999925494194031,0.00047612475464120507,-0.003438396845012903,0.0017192322993651032,-0.28271484375,0.873046875,0.39013671875
2023-08-01T17:18:18.094567,0.9999929070472717,0.00037070203688926995,-0.00334913469851017,0.001718912972137332,-0.28271484375,0.873046875,0.39013671875
2023-08-01T17:18:18.094567,0.9999929070472717,0.00037070203688926995,-0.00334913469851017,0.001718912972137332,-0.2861328125,0.875,0.39111328125
2023-08-01T17:18:18.101546,0.9999932646751404,0.00023733323905617,-0.0032268932554870844,0.0017185121541842818,-0.2861328125,0.875,0.39111328125
2023-08-01T17:18:18.101546,0.9999932646751404,0.00023733323905617,-0.0032268932554870844,0.0017185121541842818,-0.28125,0.87255859375,0.3955078125
2023-08-01T17:18:18.102589,0.9999938011169434,9.758445230545476e-05,-0.003072186606004834,0.0017180988797917962,-0.28125,0.87255859375,0.3955078125
2023-08-01T17:18:18.131047,0.9999938011169434,9.758445230545476e-05,-0.003072186606004834,0.0017180988797917962,-0.2763671875,0.873046875,0.40283203125
2023-08-01T17:18:18.131047,0.9999944567680359,-4.488250124268234e-05,-0.0028671883046627045,0.0017176823457702994,-0.2763671875,0.873046875,0.40283203125
2023-08-01T17:18:18.132430,0.9999944567680359,-4.488250124268234e-05,-0.0028671883046627045,0.0017176823457702994,-0.2783203125,0.87158203125,0.40869140625
2023-08-01T17:18:18.154008,0.9999951720237732,-0.00018748505681287497,-0.0025832352694123983,0.0017172618536278605,-0.2783203125,0.87158203125,0.40869140625
2023-08-01T17:18:18.155022,0.9999951720237732,-0.00018748505681287497,-0.0025832352694123983,0.0017172618536278605,-0.27783203125,0.8720703125,0.40673828125
2023-08-01T17:18:18.155022,0.9999957084655762,-0.00033523375168442726,-0.0023677183780819178,0.0017168407794088125,-0.27783203125,0.8720703125,0.40673828125
2023-08-01T17:18:18.168883,0.9999957084655762,-0.00033523375168442726,-0.0023677183780819178,0.0017168407794088125,-0.27392578125,0.86962890625,0.404296875
2023-08-01T17:18:18.169881,0.9999958872795105,-0.00043542907224036753,-0.0022573922760784626,0.0017165669705718756,-0.27392578125,0.86962890625,0.404296875
2023-08-01T17:18:18.169881,0.9999958872795105,-0.00043542907224036753,-0.0022573922760784626,0.0017165669705718756,-0.28076171875,0.8720703125,0.408203125
2023-08-01T17:18:18.183364,0.9999957084655762,-0.0005633815308101475,-0.002257588319480419,0.0017695431597530842,-0.28076171875,0.8720703125,0.408203125
2023-08-01T17:18:18.184870,0.9999957084655762,-0.0005633815308101475,-0.002257588319480419,0.0017695431597530842,-0.2919921875,0.87109375,0.408203125
2023-08-01T17:18:18.185870,0.9999954104423523,-0.0006667289999313653,-0.0023146041203290224,0.0018261695513501763,-0.2919921875,0.87109375,0.408203125
2023-08-01T17:18:18.198853,0.9999954104423523,-0.0006667289999313653,-0.0023146041203290224,0.0018261695513501763,-0.2861328125,0.8701171875,0.40966796875
2023-08-01T17:18:18.199851,0.999995231628418,-0.0007840438047423959,-0.0023147789761424065,0.0018844895530492067,-0.2861328125,0.8701171875,0.40966796875
2023-08-01T17:18:18.199851,0.999995231628418,-0.0007840438047423959,-0.0023147789761424065,0.0018844895530492067,-0.275390625,0.86865234375,0.4072265625
2023-08-01T17:18:18.221822,0.9999952912330627,-0.0008578402921557426,-0.00225705630145967,0.0018842736026272178,-0.275390625,0.86865234375,0.4072265625
2023-08-01T17:18:18.221822,0.9999952912330627,-0.0008578402921557426,-0.00225705630145967,0.0018842736026272178,-0.275390625,0.86572265625,0.41064453125
2023-08-01T17:18:18.222862,0.9999955892562866,-0.000916024437174201,-0.0021045587491244078,0.0018840119009837508,-0.275390625,0.86572265625,0.41064453125
2023-08-01T17:18:18.229357,0.9999955892562866,-0.000916024437174201,-0.0021045587491244078,0.0018840119009837508,-0.267578125,0.8642578125,0.4111328125
2023-08-01T17:18:18.229357,0.999995768070221,-0.0009688854333944619,-0.00198363303206861,0.0018837902462109923,-0.267578125,0.8642578125,0.4111328125
2023-08-01T17:18:18.230418,0.999995768070221,-0.0009688854333944619,-0.00198363303206861,0.0018837902462109923,-0.27490234375,0.86376953125,0.40869140625
2023-08-01T17:18:18.236352,0.9999956488609314,-0.0009689898579381406,-0.00198358204215765,0.0019364265026524663,-0.27490234375,0.86376953125,0.40869140625
2023-08-01T17:18:18.237352,0.9999956488609314,-0.0009689898579381406,-0.00198358204215765,0.0019364265026524663,-0.275390625,0.86083984375,0.40625
2023-08-01T17:18:18.237352,0.9999948740005493,-0.001021421980112791,-0.002215240616351366,0.002062869258224964,-0.275390625,0.86083984375,0.40625
2023-08-01T17:18:18.243845,0.9999948740005493,-0.001021421980112791,-0.002215240616351366,0.002062869258224964,-0.2724609375,0.86181640625,0.4072265625
2023-08-01T17:18:18.244841,0.9999948740005493,-0.001021421980112791,-0.002215240616351366,0.002062869258224964,-0.26953125,0.86376953125,0.4052734375
2023-08-01T17:18:18.244841,0.9999947547912598,-0.0010212900815531611,-0.002279197098687291,0.002062934683635831,-0.26953125,0.86376953125,0.4052734375
2023-08-01T17:18:18.251026,0.9999947547912598,-0.0010212900815531611,-0.002279197098687291,0.002062934683635831,-0.26953125,0.8662109375,0.39794921875
2023-08-01T17:18:18.252100,0.9999947547912598,-0.0010212900815531611,-0.002279197098687291,0.002062934683635831,-0.2734375,0.8681640625,0.39697265625
2023-08-01T17:18:18.252100,0.999994695186615,-0.001100241090171039,-0.002279360080137849,0.0020627547055482864,-0.2734375,0.8681640625,0.39697265625
2023-08-01T17:18:18.266970,0.999994695186615,-0.001100241090171039,-0.002279360080137849,0.0020627547055482864,-0.2734375,0.86669921875,0.3984375
2023-08-01T17:18:18.266970,0.9999943971633911,-0.0011906230356544256,-0.002359482692554593,0.0020626364275813103,-0.2734375,0.86669921875,0.3984375
2023-08-01T17:18:18.267970,0.9999943971633911,-0.0011906230356544256,-0.002359482692554593,0.0020626364275813103,-0.2734375,0.8671875,0.39599609375
2023-08-01T17:18:18.281605,0.9999943375587463,-0.0012523728655651212,-0.0024113773833960295,0.002005724236369133,-0.2734375,0.8671875,0.39599609375
2023-08-01T17:18:18.281605,0.9999943375587463,-0.0012523728655651212,-0.0024113773833960295,0.002005724236369133,-0.27587890625,0.86767578125,0.39990234375
2023-08-01T17:18:18.289646,0.9999942779541016,-0.0013047500979155302,-0.0024694933090358973,0.0019477702444419265,-0.27587890625,0.86767578125,0.39990234375
2023-08-01T17:18:18.289646,0.9999942779541016,-0.0013047500979155302,-0.0024694933090358973,0.0019477702444419265,-0.27294921875,0.8623046875,0.40576171875
2023-08-01T17:18:18.290704,0.9999942779541016,-0.0013047500979155302,-0.0024694933090358973,0.0019477702444419265,-0.2734375,0.8662109375,0.4091796875
2023-08-01T17:18:18.304282,0.9999940991401672,-0.0013041433412581682,-0.0026126771699637175,0.0018157376907765865,-0.2734375,0.8662109375,0.4091796875
2023-08-01T17:18:18.304282,0.9999940991401672,-0.0013041433412581682,-0.0026126771699637175,0.0018157376907765865,-0.28125,0.87109375,0.4052734375
2023-08-01T17:18:18.305280,0.9999938607215881,-0.0013564284890890121,-0.0027286792173981667,0.0017631151713430882,-0.28125,0.87109375,0.4052734375
2023-08-01T17:18:18.348596,0.9999938607215881,-0.0013564284890890121,-0.0027286792173981667,0.0017631151713430882,-0.28662109375,0.8701171875,0.4033203125
2023-08-01T17:18:18.350646,0.999993622303009,-0.0013563354732468724,-0.002781353425234556,0.0017631864175200462,-0.28662109375,0.8701171875,0.4033203125
2023-08-01T17:18:18.351645,0.999993622303009,-0.0013563354732468724,-0.002781353425234556,0.0017631864175200462,-0.28466796875,0.869140625,0.4033203125
2023-08-01T17:18:18.372697,0.9999934434890747,-0.0013562332605943084,-0.0028392914682626724,0.0017632649978622794,-0.28466796875,0.869140625,0.4033203125
2023-08-01T17:18:18.372697,0.9999934434890747,-0.0013562332605943084,-0.0028392914682626724,0.0017632649978622794,-0.28662109375,0.86669921875,0.40478515625
2023-08-01T17:18:18.373702,0.9999932646751404,-0.00135612185113132,-0.0029024931136518717,0.001763350679539144,-0.28662109375,0.86669921875,0.40478515625
2023-08-01T17:18:18.386085,0.9999932646751404,-0.00135612185113132,-0.0029024931136518717,0.001763350679539144,-0.28125,0.86572265625,0.40087890625
2023-08-01T17:18:18.387083,0.999993085861206,-0.0013560011284425855,-0.002970958361402154,0.001763443578965962,-0.28125,0.86572265625,0.40087890625
2023-08-01T17:18:18.388589,0.999993085861206,-0.0013560011284425855,-0.002970958361402154,0.001763443578965962,-0.2802734375,0.8642578125,0.3955078125
2023-08-01T17:18:18.416401,0.999993085861206,-0.0013560011284425855,-0.002970958361402154,0.001763443578965962,-0.2802734375,0.8642578125,0.3955078125
2023-08-01T17:18:18.417400,0.999993085861206,-0.0013560011284425855,-0.002970958361402154,0.001763443578965962,-0.28076171875,0.86572265625,0.40234375
2023-08-01T17:18:18.418396,0.999993085861206,-0.0013560011284425855,-0.002970958361402154,0.001763443578965962,-0.28076171875,0.86572265625,0.40234375
2023-08-01T17:18:18.427452,0.999993085861206,-0.0013560011284425855,-0.002970958361402154,0.001763443578965962,-0.28076171875,0.86572265625,0.41259765625
2023-08-01T17:18:18.428449,0.9999932646751404,-0.001356104388833046,-0.002912406111136079,0.001763364183716476,-0.28076171875,0.86572265625,0.41259765625
2023-08-01T17:18:18.429951,0.9999932646751404,-0.001356104388833046,-0.002912406111136079,0.001763364183716476,-0.28076171875,0.8642578125,0.4140625
2023-08-01T17:18:18.438492,0.9999932646751404,-0.001356104388833046,-0.002912406111136079,0.001763364183716476,-0.28076171875,0.8642578125,0.4140625
2023-08-01T17:18:18.440064,0.9999932646751404,-0.001356104388833046,-0.002912406111136079,0.001763364183716476,-0.27734375,0.86572265625,0.41162109375
2023-08-01T17:18:18.440064,0.9999932646751404,-0.001356104388833046,-0.002912406111136079,0.001763364183716476,-0.27734375,0.86572265625,0.41162109375
2023-08-01T17:18:18.477582,0.9999932646751404,-0.001356104388833046,-0.002912406111136079,0.001763364183716476,-0.2783203125,0.8671875,0.40625
2023-08-01T17:18:18.478580,0.999992847442627,-0.001355841290205717,-0.0030615858267992735,0.0017635665135458112,-0.2783203125,0.8671875,0.40625
2023-08-01T17:18:18.478580,0.999992847442627,-0.001355841290205717,-0.0030615858267992735,0.0017635665135458112,-0.2763671875,0.869140625,0.39990234375
2023-08-01T17:18:18.504179,0.999992311000824,-0.0013555405894294381,-0.0032321058679372072,0.0017637977143749595,-0.2763671875,0.869140625,0.39990234375
2023-08-01T17:18:18.505177,0.999992311000824,-0.0013555405894294381,-0.0032321058679372072,0.0017637977143749595,-0.27294921875,0.869140625,0.3994140625
2023-08-01T17:18:18.505177,0.9999919533729553,-0.0013553432654589415,-0.003344000317156315,0.0017639494035393,-0.27294921875,0.869140625,0.3994140625
2023-08-01T17:18:18.589619,0.9999919533729553,-0.0013553432654589415,-0.003344000317156315,0.0017639494035393,-0.26953125,0.8671875,0.39306640625
2023-08-01T17:18:18.590696,0.9999919533729553,-0.0013553432654589415,-0.003344000317156315,0.0017639494035393,-0.267578125,0.86474609375,0.39111328125
2023-08-01T17:18:18.592115,0.999991774559021,-0.0012288154102861881,-0.0034543899819254875,0.001764523214660585,-0.267578125,0.86474609375,0.39111328125
2023-08-01T17:18:18.593116,0.999991774559021,-0.0012288154102861881,-0.0034543899819254875,0.001764523214660585,-0.27197265625,0.86962890625,0.39794921875
2023-08-01T17:18:18.593116,0.999991774559021,-0.0012288154102861881,-0.0034543899819254875,0.001764523214660585,-0.27392578125,0.86572265625,0.40380859375
2023-08-01T17:18:18.594622,0.9999911189079285,-0.0012284974800422788,-0.0036345606204122305,0.001764744520187378,-0.27392578125,0.86572265625,0.40380859375
2023-08-01T17:18:18.594622,0.9999911189079285,-0.0012284974800422788,-0.0036345606204122305,0.001764744520187378,-0.27099609375,0.86328125,0.41015625
2023-08-01T17:18:18.594622,0.9999911189079285,-0.0012284974800422788,-0.0036345606204122305,0.001764744520187378,-0.2783203125,0.8671875,0.4052734375
2023-08-01T17:18:18.595623,0.999989926815033,-0.001227968605235219,-0.003934173844754696,0.0017651122761890292,-0.2783203125,0.8671875,0.4052734375
2023-08-01T17:18:18.597617,0.999989926815033,-0.001227968605235219,-0.003934173844754696,0.0017651122761890292,-0.27685546875,0.8662109375,0.40087890625
2023-08-01T17:18:18.598614,0.9999897480010986,-0.0012276106281206012,-0.004007973708212376,0.001707303337752819,-0.27685546875,0.8662109375,0.40087890625
2023-08-01T17:18:18.598614,0.9999897480010986,-0.0012276106281206012,-0.004007973708212376,0.001707303337752819,-0.2861328125,0.86474609375,0.40087890625
2023-08-01T17:18:18.599612,0.9999897480010986,-0.0012276106281206012,-0.004007973708212376,0.001707303337752819,-0.2861328125,0.86474609375,0.40087890625
2023-08-01T17:18:18.600686,0.9999897480010986,-0.0012276106281206012,-0.004007973708212376,0.001707303337752819,-0.2822265625,0.86376953125,0.3994140625
2023-08-01T17:18:18.611878,0.9999897480010986,-0.0012276106281206012,-0.004007973708212376,0.001707303337752819,-0.2822265625,0.86376953125,0.3994140625
2023-08-01T17:18:18.613383,0.9999897480010986,-0.0012276106281206012,-0.004007973708212376,0.001707303337752819,-0.28076171875,0.86767578125,0.3994140625
2023-08-01T17:18:18.649363,0.9999882578849792,-0.001226972322911024,-0.0043818033300340176,0.0017077622469514608,-0.28076171875,0.86767578125,0.3994140625
2023-08-01T17:18:18.650423,0.9999882578849792,-0.001226972322911024,-0.0043818033300340176,0.0017077622469514608,-0.27734375,0.8671875,0.4033203125
2023-08-01T17:18:18.650423,0.9999882578849792,-0.001226972322911024,-0.0043818033300340176,0.0017077622469514608,-0.27734375,0.8671875,0.4033203125
2023-08-01T17:18:18.656972,0.9999882578849792,-0.001226972322911024,-0.0043818033300340176,0.0017077622469514608,-0.27099609375,0.86474609375,0.40185546875
2023-08-01T17:18:18.656972,0.9999884963035583,-0.0012270711595192552,-0.004323942121118307,0.0017076912336051464,-0.27099609375,0.86474609375,0.40185546875
2023-08-01T17:18:18.656972,0.9999884963035583,-0.0012270711595192552,-0.004323942121118307,0.0017076912336051464,-0.26806640625,0.86669921875,0.39794921875
2023-08-01T17:18:18.679249,0.9999891519546509,-0.0012269591679796576,-0.004203008487820625,0.0016338524874299765,-0.26806640625,0.86669921875,0.39794921875
2023-08-01T17:18:18.686848,0.9999891519546509,-0.0012269591679796576,-0.004203008487820625,0.0016338524874299765,-0.2783203125,0.8642578125,0.4013671875
2023-08-01T17:18:18.687846,0.9999891519546509,-0.0012269591679796576,-0.004203008487820625,0.0016338524874299765,-0.2802734375,0.86669921875,0.400390625
2023-08-01T17:18:18.687846,0.9999873638153076,-0.001226078369654715,-0.004620118532329798,0.0015817279927432537,-0.2802734375,0.86669921875,0.400390625
2023-08-01T17:18:18.701222,0.9999873638153076,-0.001226078369654715,-0.004620118532329798,0.0015817279927432537,-0.28125,0.8681640625,0.4013671875
2023-08-01T17:18:18.702220,0.999987006187439,-0.0012259617215022445,-0.004693847149610519,0.0015818184474483132,-0.28125,0.8681640625,0.4013671875
2023-08-01T17:18:18.702220,0.999987006187439,-0.0012259617215022445,-0.004693847149610519,0.0015818184474483132,-0.279296875,0.8681640625,0.40673828125
2023-08-01T17:18:18.717859,0.999987006187439,-0.0012259617215022445,-0.004693847149610519,0.0015818184474483132,-0.279296875,0.8681640625,0.40673828125
2023-08-01T17:18:18.717859,0.999987006187439,-0.0012259617215022445,-0.004693847149610519,0.0015818184474483132,-0.27978515625,0.86865234375,0.4091796875
2023-08-01T17:18:18.725043,0.9999873638153076,-0.0012260796502232552,-0.004619315732270479,0.001581727061420679,-0.27978515625,0.86865234375,0.4091796875
2023-08-01T17:18:18.726042,0.9999873638153076,-0.0012260796502232552,-0.004619315732270479,0.001581727061420679,-0.28564453125,0.8681640625,0.41064453125
2023-08-01T17:18:18.727038,0.9999877214431763,-0.0012262044474482536,-0.004540400579571724,0.001581630320288241,-0.28564453125,0.8681640625,0.41064453125
2023-08-01T17:18:18.732599,0.9999877214431763,-0.0012262044474482536,-0.004540400579571724,0.001581630320288241,-0.2861328125,0.86669921875,0.408203125
2023-08-01T17:18:18.733597,0.9999877214431763,-0.0012262044474482536,-0.004540400579571724,0.001581630320288241,-0.2861328125,0.86669921875,0.408203125
2023-08-01T17:18:18.734594,0.9999877214431763,-0.0012262044474482536,-0.004540400579571724,0.001581630320288241,-0.28076171875,0.865234375,0.408203125
2023-08-01T17:18:18.741661,0.9999877214431763,-0.0012262044474482536,-0.004540400579571724,0.001581630320288241,-0.287109375,0.8642578125,0.408203125
2023-08-01T17:18:18.742660,0.9999876022338867,-0.001226682448759675,-0.004540271125733852,0.0016869019018486142,-0.287109375,0.8642578125,0.408203125
2023-08-01T17:18:18.743656,0.9999876022338867,-0.001226682448759675,-0.004540271125733852,0.0016869019018486142,-0.2822265625,0.86572265625,0.40478515625
2023-08-01T17:18:18.754332,0.9999876022338867,-0.001226682448759675,-0.004540271125733852,0.0016869019018486142,-0.2822265625,0.86572265625,0.40478515625
2023-08-01T17:18:18.755328,0.9999876022338867,-0.001226682448759675,-0.004540271125733852,0.0016869019018486142,-0.28125,0.86767578125,0.4013671875
2023-08-01T17:18:18.761816,0.9999875426292419,-0.0011743302457034588,-0.0045401048846542835,0.0017503038980066776,-0.28125,0.86767578125,0.4013671875
2023-08-01T17:18:18.768321,0.9999875426292419,-0.0011743302457034588,-0.0045401048846542835,0.0017503038980066776,-0.28076171875,0.8642578125,0.40234375
2023-08-01T17:18:18.769318,0.9999877214431763,-0.0011220701271668077,-0.004487341269850731,0.001813644077628851,-0.28076171875,0.8642578125,0.40234375
2023-08-01T17:18:18.771582,0.9999877214431763,-0.0011220701271668077,-0.004487341269850731,0.001813644077628851,-0.26806640625,0.861328125,0.39892578125
2023-08-01T17:18:18.778647,0.9999881982803345,-0.0011222704779356718,-0.0043768445029854774,0.0018135200953111053,-0.26806640625,0.861328125,0.39892578125
2023-08-01T17:18:18.778647,0.9999881982803345,-0.0011222704779356718,-0.0043768445029854774,0.0018135200953111053,-0.2734375,0.86279296875,0.39990234375
2023-08-01T17:18:18.779646,0.9999881982803345,-0.0011222704779356718,-0.0043768445029854774,0.0018135200953111053,-0.27978515625,0.861328125,0.3994140625
2023-08-01T17:18:18.799287,0.9999887347221375,-0.0010638792300596833,-0.004264921881258488,0.0018136510625481606,-0.27978515625,0.861328125,0.3994140625
2023-08-01T17:18:18.799287,0.9999887347221375,-0.0010638792300596833,-0.004264921881258488,0.0018136510625481606,-0.27197265625,0.86572265625,0.39794921875
2023-08-01T17:18:18.800285,0.999988317489624,-0.001063707284629345,-0.0043597049079835415,0.0018137518782168627,-0.27197265625,0.86572265625,0.39794921875
2023-08-01T17:18:18.806860,0.999988317489624,-0.001063707284629345,-0.0043597049079835415,0.0018137518782168627,-0.27294921875,0.869140625,0.400390625
2023-08-01T17:18:18.806860,0.9999879002571106,-0.0010635257931426167,-0.004459751304239035,0.0018138582818210125,-0.27294921875,0.869140625,0.400390625
2023-08-01T17:18:18.807860,0.9999879002571106,-0.0010635257931426167,-0.004459751304239035,0.0018138582818210125,-0.27197265625,0.87109375,0.400390625
2023-08-01T17:18:18.853797,0.9999876618385315,-0.001063420670107007,-0.004517688881605864,0.001813919865526259,-0.27197265625,0.87109375,0.400390625
2023-08-01T17:18:18.854794,0.9999876618385315,-0.001063420670107007,-0.004517688881605864,0.001813919865526259,-0.2685546875,0.87158203125,0.3994140625
2023-08-01T17:18:18.855792,0.9999876618385315,-0.001063420670107007,-0.004517688881605864,0.001813919865526259,-0.2685546875,0.87158203125,0.3994140625
2023-08-01T17:18:18.859310,0.9999876618385315,-0.001063420670107007,-0.004517688881605864,0.001813919865526259,-0.267578125,0.86767578125,0.40234375
2023-08-01T17:18:18.860307,0.9999876618385315,-0.001063420670107007,-0.004517688881605864,0.001813919865526259,-0.267578125,0.86767578125,0.40234375
2023-08-01T17:18:18.860307,0.9999876618385315,-0.001063420670107007,-0.004517688881605864,0.001813919865526259,-0.26953125,0.86572265625,0.40576171875
2023-08-01T17:18:18.867292,0.9999880194664001,-0.0010636040242388844,-0.004416524898260832,0.0018138120649382472,-0.26953125,0.86572265625,0.40576171875
2023-08-01T17:18:18.868793,0.9999880194664001,-0.0010636040242388844,-0.004416524898260832,0.0018138120649382472,-0.2763671875,0.8671875,0.40478515625
2023-08-01T17:18:18.869794,0.9999885559082031,-0.0010635529179126024,-0.004316611215472221,0.0017610699869692326,-0.2763671875,0.8671875,0.40478515625
2023-08-01T17:18:18.874309,0.9999885559082031,-0.0010635529179126024,-0.004316611215472221,0.0017610699869692326,-0.28076171875,0.8701171875,0.40234375
2023-08-01T17:18:18.875306,0.9999886751174927,-0.0010633256752043962,-0.004316667094826698,0.001708434196189046,-0.28076171875,0.8701171875,0.40234375
2023-08-01T17:18:18.876303,0.9999886751174927,-0.0010633256752043962,-0.004316667094826698,0.001708434196189046,-0.28271484375,0.8671875,0.4013671875
2023-08-01T17:18:18.887091,0.9999887943267822,-0.001063095754943788,-0.00431672390550375,0.0016551698790863156,-0.28271484375,0.8671875,0.4013671875
2023-08-01T17:18:18.906078,0.9999887943267822,-0.001063095754943788,-0.00431672390550375,0.0016551698790863156,-0.28173828125,0.86279296875,0.404296875
2023-08-01T17:18:18.907080,0.9999887943267822,-0.001063095754943788,-0.00431672390550375,0.0016551698790863156,-0.28173828125,0.86279296875,0.404296875
2023-08-01T17:18:18.908072,0.9999887943267822,-0.001063095754943788,-0.00431672390550375,0.0016551698790863156,-0.2783203125,0.86181640625,0.40380859375
2023-08-01T17:18:18.909581,0.999988853931427,-0.0010104567045345902,-0.004316636826843023,0.0016553971217945218,-0.2783203125,0.86181640625,0.40380859375
2023-08-01T17:18:18.920085,0.999988853931427,-0.0010104567045345902,-0.004316636826843023,0.0016553971217945218,-0.27734375,0.861328125,0.4013671875
2023-08-01T17:18:18.920085,0.999988853931427,-0.0010104567045345902,-0.004316636826843023,0.0016553971217945218,-0.27734375,0.861328125,0.4013671875
2023-08-01T17:18:18.925094,0.999988853931427,-0.0010104567045345902,-0.004316636826843023,0.0016553971217945218,-0.2763671875,0.86279296875,0.3994140625
2023-08-01T17:18:18.926092,0.9999890923500061,-0.0010105448309332132,-0.004263411276042461,0.0016553433379158378,-0.2763671875,0.86279296875,0.3994140625
2023-08-01T17:18:18.928087,0.9999890923500061,-0.0010105448309332132,-0.004263411276042461,0.0016553433379158378,-0.27978515625,0.8623046875,0.39990234375
2023-08-01T17:18:18.929084,0.9999890923500061,-0.0010105448309332132,-0.004263411276042461,0.0016553433379158378,-0.28125,0.86083984375,0.400390625
2023-08-01T17:18:18.929084,0.9999893307685852,-0.0010106329573318362,-0.0042101857252418995,0.0016552895540371537,-0.28125,0.86083984375,0.400390625
2023-08-01T17:18:18.930081,0.9999893307685852,-0.0010106329573318362,-0.0042101857252418995,0.0016552895540371537,-0.2744140625,0.861328125,0.39404296875
2023-08-01T17:18:18.930586,0.9999893307685852,-0.0010106329573318362,-0.0042101857252418995,0.0016552895540371537,-0.2744140625,0.861328125,0.39404296875
2023-08-01T17:18:18.933582,0.9999893307685852,-0.0010106329573318362,-0.0042101857252418995,0.0016552895540371537,-0.27783203125,0.86474609375,0.3935546875
2023-08-01T17:18:18.950560,0.9999896287918091,-0.0010107563575729728,-0.004135654307901859,0.0016552142333239317,-0.27783203125,0.86474609375,0.3935546875
2023-08-01T17:18:18.950560,0.9999896287918091,-0.0010107563575729728,-0.004135654307901859,0.0016552142333239317,-0.28564453125,0.86669921875,0.39697265625
2023-08-01T17:18:18.952577,0.9999899864196777,-0.001010910258628428,-0.004042701795697212,0.0016551202861592174,-0.28564453125,0.86669921875,0.39697265625
2023-08-01T17:18:18.957563,0.9999899864196777,-0.001010910258628428,-0.004042701795697212,0.0016551202861592174,-0.283203125,0.8642578125,0.400390625
2023-08-01T17:18:18.990392,0.9999902248382568,-0.0010696124518290162,-0.003973593469709158,0.0016548134153708816,-0.283203125,0.8642578125,0.400390625
2023-08-01T17:18:18.990392,0.9999902248382568,-0.0010696124518290162,-0.003973593469709158,0.0016548134153708816,-0.279296875,0.86376953125,0.40234375
2023-08-01T17:18:18.992910,0.9999903440475464,-0.0011539311381056905,-0.003910608123987913,0.0016544112004339695,-0.279296875,0.86376953125,0.40234375
2023-08-01T17:18:18.995902,0.9999903440475464,-0.0011539311381056905,-0.003910608123987913,0.0016544112004339695,-0.283203125,0.86474609375,0.39990234375
2023-08-01T17:18:18.995902,0.9999902248382568,-0.0012444774620234966,-0.003910758066922426,0.001654057065024972,-0.283203125,0.86474609375,0.39990234375
2023-08-01T17:18:19.010794,0.9999902248382568,-0.0012444774620234966,-0.003910758066922426,0.001654057065024972,-0.2783203125,0.86279296875,0.4033203125
2023-08-01T17:18:19.011794,0.9999901652336121,-0.0013064678059890866,-0.003910860512405634,0.0016538146883249283,-0.2783203125,0.86279296875,0.4033203125
2023-08-01T17:18:19.013296,0.9999901652336121,-0.0013064678059890866,-0.003910860512405634,0.0016538146883249283,-0.275390625,0.865234375,0.40673828125
2023-08-01T17:18:19.046254,0.9999900460243225,-0.001385418465360999,-0.00391099089756608,0.0016535059548914433,-0.275390625,0.865234375,0.40673828125
2023-08-01T17:18:19.047250,0.9999900460243225,-0.001385418465360999,-0.00391099089756608,0.0016535059548914433,-0.2822265625,0.86181640625,0.41064453125
2023-08-01T17:18:19.048249,0.9999902248382568,-0.0014644908951595426,-0.0038374692667275667,0.001653095125220716,-0.2822265625,0.86181640625,0.41064453125
2023-08-01T17:18:19.076102,0.9999902248382568,-0.0014644908951595426,-0.0038374692667275667,0.001653095125220716,-0.28369140625,0.8623046875,0.4111328125
2023-08-01T17:18:19.098757,0.999990701675415,-0.0015170436818152666,-0.0037271592300385237,0.0015843046130612493,-0.28369140625,0.8623046875,0.4111328125
2023-08-01T17:18:19.099755,0.999990701675415,-0.0015170436818152666,-0.0037271592300385237,0.0015843046130612493,-0.2802734375,0.865234375,0.40234375
2023-08-01T17:18:19.100810,0.9999910593032837,-0.0015172039857134223,-0.0036259954795241356,0.0015841511776670814,-0.2802734375,0.865234375,0.40234375
2023-08-01T17:18:19.106823,0.9999910593032837,-0.0015172039857134223,-0.0036259954795241356,0.0015841511776670814,-0.291015625,0.8671875,0.4033203125
2023-08-01T17:18:19.106823,0.9999911785125732,-0.0015172953717410564,-0.003568133804947138,0.0015840631676837802,-0.291015625,0.8671875,0.4033203125
2023-08-01T17:18:19.107820,0.9999911785125732,-0.0015172953717410564,-0.003568133804947138,0.0015840631676837802,-0.2900390625,0.86181640625,0.4033203125
2023-08-01T17:18:19.114309,0.9999911785125732,-0.0015172953717410564,-0.003568133804947138,0.0015840631676837802,-0.2900390625,0.86181640625,0.4033203125
2023-08-01T17:18:19.116304,0.9999911785125732,-0.0015172953717410564,-0.003568133804947138,0.0015840631676837802,-0.28466796875,0.8642578125,0.404296875
2023-08-01T17:18:19.117301,0.9999911785125732,-0.0015172953717410564,-0.003568133804947138,0.0015840631676837802,-0.28466796875,0.8642578125,0.404296875
2023-08-01T17:18:19.143371,0.9999911785125732,-0.0015172953717410564,-0.003568133804947138,0.0015840631676837802,-0.28857421875,0.8662109375,0.41259765625
2023-08-01T17:18:19.144372,0.9999908208847046,-0.001517441589385271,-0.0036417506635189056,0.0016578654758632183,-0.28857421875,0.8662109375,0.41259765625
2023-08-01T17:18:19.145369,0.9999908208847046,-0.001517441589385271,-0.0036417506635189056,0.0016578654758632183,-0.28857421875,0.8681640625,0.4130859375
2023-08-01T17:18:19.166976,0.9999904036521912,-0.0015175685985013843,-0.0037153754383325577,0.0017264040652662516,-0.28857421875,0.8681640625,0.4130859375
2023-08-01T17:18:19.166976,0.9999904036521912,-0.0015175685985013843,-0.0037153754383325577,0.0017264040652662516,-0.28076171875,0.86767578125,0.40771484375
2023-08-01T17:18:19.167974,0.9999902844429016,-0.0015178032917901874,-0.0037152795121073723,0.001789567177183926,-0.28076171875,0.86767578125,0.40771484375
2023-08-01T17:18:19.173601,0.9999902844429016,-0.0015178032917901874,-0.0037152795121073723,0.001789567177183926,-0.2783203125,0.86865234375,0.404296875
2023-08-01T17:18:19.174598,0.9999905228614807,-0.0015181631315499544,-0.0036246879026293755,0.0018426942406222224,-0.2783203125,0.86865234375,0.404296875
2023-08-01T17:18:19.174598,0.9999905228614807,-0.0015181631315499544,-0.0036246879026293755,0.0018426942406222224,-0.2783203125,0.8681640625,0.4033203125
2023-08-01T17:18:19.181507,0.9999907612800598,-0.0015185857191681862,-0.003529877634719014,0.0019109771819785237,-0.2783203125,0.8681640625,0.4033203125
2023-08-01T17:18:19.182507,0.9999907612800598,-0.0015185857191681862,-0.003529877634719014,0.0019109771819785237,-0.2783203125,0.86669921875,0.40087890625
2023-08-01T17:18:19.182507,0.9999911189079285,-0.001519070123322308,-0.003392966464161873,0.001973932608962059,-0.2783203125,0.86669921875,0.40087890625
2023-08-01T17:18:19.189004,0.9999911189079285,-0.001519070123322308,-0.003392966464161873,0.001973932608962059,-0.27392578125,0.8662109375,0.3974609375
2023-08-01T17:18:19.196658,0.9999911189079285,-0.001519070123322308,-0.003392966464161873,0.001973932608962059,-0.2705078125,0.8662109375,0.3984375
2023-08-01T17:18:19.196658,0.9999921917915344,-0.0015199576737359166,-0.003030606312677264,0.0020260184537619352,-0.2705078125,0.8662109375,0.3984375
2023-08-01T17:18:19.197654,0.9999921917915344,-0.0015199576737359166,-0.003030606312677264,0.0020260184537619352,-0.27099609375,0.86767578125,0.40478515625
2023-08-01T17:18:19.203801,0.9999921917915344,-0.0015199576737359166,-0.003030606312677264,0.0020260184537619352,-0.27099609375,0.86767578125,0.40478515625
2023-08-01T17:18:19.203801,0.9999921917915344,-0.0015199576737359166,-0.003030606312677264,0.0020260184537619352,-0.275390625,0.86669921875,0.40673828125
2023-08-01T17:18:19.226837,0.9999921917915344,-0.0015199576737359166,-0.003030606312677264,0.0020260184537619352,-0.275390625,0.86669921875,0.40673828125
2023-08-01T17:18:19.226837,0.9999921917915344,-0.0015199576737359166,-0.003030606312677264,0.0020260184537619352,-0.27587890625,0.86767578125,0.40576171875
2023-08-01T17:18:19.234603,0.9999921917915344,-0.0015199576737359166,-0.003030606312677264,0.0020260184537619352,-0.27587890625,0.86767578125,0.40576171875
2023-08-01T17:18:19.241148,0.9999921917915344,-0.0015199576737359166,-0.003030606312677264,0.0020260184537619352,-0.2734375,0.8671875,0.3994140625
2023-08-01T17:18:19.241148,0.9999921917915344,-0.0015199576737359166,-0.003030606312677264,0.0020260184537619352,-0.2734375,0.8671875,0.3994140625
2023-08-01T17:18:19.242727,0.9999921917915344,-0.0015199576737359166,-0.003030606312677264,0.0020260184537619352,-0.2802734375,0.865234375,0.39990234375
2023-08-01T17:18:19.249226,0.9999921917915344,-0.0015199576737359166,-0.003030606312677264,0.0020260184537619352,-0.2802734375,0.865234375,0.39990234375
2023-08-01T17:18:19.250281,0.9999921917915344,-0.0015199576737359166,-0.003030606312677264,0.0020260184537619352,-0.2802734375,0.865234375,0.39990234375
2023-08-01T17:18:19.250281,0.9999921917915344,-0.0015199576737359166,-0.003030606312677264,0.0020260184537619352,-0.287109375,0.86865234375,0.3974609375
2023-08-01T17:18:19.301197,0.9999924302101135,-0.0015201086644083261,-0.0029560746625065804,0.002025905065238476,-0.287109375,0.86865234375,0.3974609375
2023-08-01T17:18:19.302201,0.9999924302101135,-0.0015201086644083261,-0.0029560746625065804,0.002025905065238476,-0.287109375,0.8662109375,0.400390625
2023-08-01T17:18:19.302201,0.9999927282333374,-0.0015203325310721993,-0.002845577197149396,0.0020257371943444014,-0.287109375,0.8662109375,0.400390625
2023-08-01T17:18:19.323548,0.9999927282333374,-0.0015203325310721993,-0.002845577197149396,0.0020257371943444014,-0.28271484375,0.86376953125,0.40625
2023-08-01T17:18:19.324525,0.9999932646751404,-0.0015204830560833216,-0.0026965562719851732,0.0019722457509487867,-0.28271484375,0.86376953125,0.40625
2023-08-01T17:18:19.324525,0.9999932646751404,-0.0015204830560833216,-0.0026965562719851732,0.0019722457509487867,-0.27685546875,0.8642578125,0.39892578125
2023-08-01T17:18:19.354030,0.9999937415122986,-0.0015205881791189313,-0.0025726850144565105,0.0019203959964215755,-0.27685546875,0.8642578125,0.39892578125
2023-08-01T17:18:19.354030,0.9999937415122986,-0.0015205881791189313,-0.0025726850144565105,0.0019203959964215755,-0.2783203125,0.86474609375,0.39306640625
2023-08-01T17:18:19.355027,0.9999939203262329,-0.001520719495601952,-0.0025042963679879904,0.001920292037539184,-0.2783203125,0.86474609375,0.39306640625
2023-08-01T17:18:19.368642,0.9999939203262329,-0.001520719495601952,-0.0025042963679879904,0.001920292037539184,-0.2861328125,0.86474609375,0.39501953125
2023-08-01T17:18:19.369639,0.9999940991401672,-0.0015208609402179718,-0.002430644119158387,0.0019201800459995866,-0.2861328125,0.86474609375,0.39501953125
2023-08-01T17:18:19.369639,0.9999940991401672,-0.0015208609402179718,-0.002430644119158387,0.0019201800459995866,-0.28759765625,0.86376953125,0.39892578125
2023-08-01T17:18:19.375852,0.9999942779541016,-0.001521004014648497,-0.0023561124689877033,0.0019200666574761271,-0.28759765625,0.86376953125,0.39892578125
2023-08-01T17:18:19.376849,0.9999942779541016,-0.001521004014648497,-0.0023561124689877033,0.0019200666574761271,-0.28515625,0.86328125,0.400390625
2023-08-01T17:18:19.377846,0.9999942779541016,-0.0015842652646824718,-0.002303635934367776,0.0019198379013687372,-0.28515625,0.86328125,0.400390625
2023-08-01T17:18:19.384251,0.9999942779541016,-0.0015842652646824718,-0.002303635934367776,0.0019198379013687372,-0.2841796875,0.86474609375,0.3984375
2023-08-01T17:18:19.421953,0.9999942779541016,-0.0015845077577978373,-0.0022404275368899107,0.00197237404063344,-0.2841796875,0.86474609375,0.3984375
2023-08-01T17:18:19.421953,0.9999942779541016,-0.0015845077577978373,-0.0022404275368899107,0.00197237404063344,-0.28857421875,0.8701171875,0.39697265625
2023-08-01T17:18:19.421953,0.9999943971633911,-0.0015848125331103802,-0.0021456375252455473,0.0020248601213097572,-0.28857421875,0.8701171875,0.39697265625
2023-08-01T17:18:19.429443,0.9999943971633911,-0.0015848125331103802,-0.0021456375252455473,0.0020248601213097572,-0.2822265625,0.86767578125,0.4013671875
2023-08-01T17:18:19.429443,0.9999945759773254,-0.0015849829651415348,-0.002061458071693778,0.0020247267093509436,-0.2822265625,0.86767578125,0.4013671875
2023-08-01T17:18:19.429443,0.9999945759773254,-0.0015849829651415348,-0.002061458071693778,0.0020247267093509436,-0.2841796875,0.8671875,0.40380859375
2023-08-01T17:18:19.444120,0.9999945759773254,-0.0015849829651415348,-0.002061458071693778,0.0020247267093509436,-0.2734375,0.8681640625,0.40087890625
2023-08-01T17:18:19.445119,0.999994695186615,-0.0015851000789552927,-0.002003596629947424,0.002024634974077344,-0.2734375,0.8681640625,0.40087890625
2023-08-01T17:18:19.451146,0.999994695186615,-0.0015851000789552927,-0.002003596629947424,0.002024634974077344,-0.27001953125,0.86767578125,0.40185546875
2023-08-01T17:18:19.452143,0.999994695186615,-0.0015851000789552927,-0.002003596629947424,0.002024634974077344,-0.27294921875,0.8671875,0.40087890625
2023-08-01T17:18:19.452143,0.9999948740005493,-0.0015852598007768393,-0.0019246806623414159,0.002024509944021702,-0.27294921875,0.8671875,0.40087890625
2023-08-01T17:18:19.465951,0.9999948740005493,-0.0015852598007768393,-0.0019246806623414159,0.002024509944021702,-0.2685546875,0.86474609375,0.39892578125
2023-08-01T17:18:19.466949,0.9999948740005493,-0.0015852598007768393,-0.0019246806623414159,0.002024509944021702,-0.28857421875,0.86376953125,0.40234375
2023-08-01T17:18:19.466949,0.9999953508377075,-0.0015857710968703032,-0.0016721035353839397,0.002024109475314617,-0.28857421875,0.86376953125,0.40234375
2023-08-01T17:18:19.473976,0.9999953508377075,-0.0015857710968703032,-0.0016721035353839397,0.002024109475314617,-0.28564453125,0.8662109375,0.40283203125
2023-08-01T17:18:19.473976,0.9999953508377075,-0.0015857710968703032,-0.0016721035353839397,0.002024109475314617,-0.283203125,0.8642578125,0.4072265625
2023-08-01T17:18:19.474974,0.9999950528144836,-0.0015853901859372854,-0.0018603050848469138,0.0020244079641997814,-0.283203125,0.8642578125,0.4072265625
2023-08-01T17:18:19.480958,0.9999950528144836,-0.0015853901859372854,-0.0018603050848469138,0.0020244079641997814,-0.28271484375,0.8642578125,0.40478515625
2023-08-01T17:18:19.481996,0.999994695186615,-0.00158512347843498,-0.0019919336773455143,0.0020246163476258516,-0.28271484375,0.8642578125,0.40478515625
2023-08-01T17:18:19.481996,0.999994695186615,-0.00158512347843498,-0.0019919336773455143,0.0020246163476258516,-0.27783203125,0.86328125,0.40478515625
2023-08-01T17:18:19.496762,0.9999944567680359,-0.0015848861075937748,-0.002109154826030135,0.0020248021464794874,-0.27783203125,0.86328125,0.40478515625
2023-08-01T17:18:19.511318,0.9999944567680359,-0.0015848861075937748,-0.002109154826030135,0.0020248021464794874,-0.2763671875,0.86181640625,0.40234375
2023-08-01T17:18:19.512316,0.9999944567680359,-0.0015848861075937748,-0.002109154826030135,0.0020248021464794874,-0.279296875,0.8662109375,0.3955078125
2023-08-01T17:18:19.512316,0.9999943375587463,-0.001584758167155087,-0.0021723564714193344,0.0020249022636562586,-0.279296875,0.8662109375,0.3955078125
2023-08-01T17:18:19.518712,0.9999943375587463,-0.001584758167155087,-0.0021723564714193344,0.0020249022636562586,-0.2802734375,0.8681640625,0.40380859375
2023-08-01T17:18:19.519710,0.9999944567680359,-0.0015848752809688449,-0.0021144950296729803,0.002024810528382659,-0.2802734375,0.8681640625,0.40380859375
2023-08-01T17:18:19.519710,0.9999944567680359,-0.0015848752809688449,-0.0021144950296729803,0.002024810528382659,-0.28076171875,0.8662109375,0.40478515625
2023-08-01T17:18:19.526247,0.9999945759773254,-0.0015849830815568566,-0.002061269013211131,0.0020247262436896563,-0.28076171875,0.8662109375,0.40478515625
2023-08-01T17:18:19.526247,0.9999945759773254,-0.0015849830815568566,-0.002061269013211131,0.0020247262436896563,-0.27978515625,0.8681640625,0.4033203125
2023-08-01T17:18:19.527753,0.9999945759773254,-0.0015849830815568566,-0.002061269013211131,0.0020247262436896563,-0.27978515625,0.8681640625,0.4033203125
2023-08-01T17:18:19.548887,0.9999945759773254,-0.0015849830815568566,-0.002061269013211131,0.0020247262436896563,-0.2841796875,0.86962890625,0.4033203125
2023-08-01T17:18:19.556477,0.9999944567680359,-0.0015848551411181688,-0.0021244706586003304,0.0020248263608664274,-0.2841796875,0.86962890625,0.4033203125
2023-08-01T17:18:19.556477,0.9999944567680359,-0.0015848551411181688,-0.0021244706586003304,0.0020248263608664274,-0.28173828125,0.8681640625,0.39794921875
2023-08-01T17:18:19.557986,0.999994158744812,-0.0015845746966078877,-0.0022629976738244295,0.002025045920163393,-0.28173828125,0.8681640625,0.39794921875
2023-08-01T17:18:19.578122,0.999994158744812,-0.0015845746966078877,-0.0022629976738244295,0.002025045920163393,-0.279296875,0.86962890625,0.39892578125
2023-08-01T17:18:19.579628,0.9999938607215881,-0.0015843131113797426,-0.002392188645899296,0.0020252505782991648,-0.279296875,0.86962890625,0.39892578125
2023-08-01T17:18:19.579628,0.9999938607215881,-0.0015843131113797426,-0.002392188645899296,0.0020252505782991648,-0.279296875,0.8671875,0.40185546875
2023-08-01T17:18:19.587193,0.9999936819076538,-0.0015841531567275524,-0.002471181098371744,0.0020253758411854506,-0.279296875,0.8671875,0.40185546875
2023-08-01T17:18:19.587193,0.9999936819076538,-0.0015841531567275524,-0.002471181098371744,0.0020253758411854506,-0.2744140625,0.86572265625,0.40380859375
2023-08-01T17:18:19.588191,0.9999936819076538,-0.0015841531567275524,-0.002471181098371744,0.0020253758411854506,-0.2744140625,0.86572265625,0.40380859375
2023-08-01T17:18:19.601803,0.9999936819076538,-0.0015841531567275524,-0.002471181098371744,0.0020253758411854506,-0.28173828125,0.8662109375,0.408203125
2023-08-01T17:18:19.646505,0.9999936819076538,-0.0015841531567275524,-0.002471181098371744,0.0020253758411854506,-0.28173828125,0.8662109375,0.408203125
2023-08-01T17:18:19.647502,0.9999936819076538,-0.0015841531567275524,-0.002471181098371744,0.0020253758411854506,-0.28564453125,0.86572265625,0.4072265625
2023-08-01T17:18:19.647502,0.9999938607215881,-0.0015842809807509184,-0.002408056054264307,0.002025275956839323,-0.28564453125,0.86572265625,0.4072265625
2023-08-01T17:18:19.669118,0.9999938607215881,-0.0015842809807509184,-0.002408056054264307,0.002025275956839323,-0.28857421875,0.86572265625,0.4033203125
2023-08-01T17:18:19.676449,0.999994158744812,-0.0015845474554225802,-0.002276503946632147,0.002025067573413253,-0.28857421875,0.86572265625,0.4033203125
2023-08-01T17:18:19.676449,0.999994158744812,-0.0015845474554225802,-0.002276503946632147,0.002025067573413253,-0.2900390625,0.86376953125,0.3974609375
2023-08-01T17:18:19.678442,0.9999943971633911,-0.0015847606118768454,-0.0021712700836360455,0.0020249008666723967,-0.2900390625,0.86376953125,0.3974609375
2023-08-01T17:18:19.683935,0.9999943971633911,-0.0015847606118768454,-0.0021712700836360455,0.0020249008666723967,-0.2880859375,0.86279296875,0.39404296875
2023-08-01T17:18:19.683935,0.9999942779541016,-0.0015846432652324438,-0.0022292081266641617,0.0020249926019459963,-0.2880859375,0.86279296875,0.39404296875
2023-08-01T17:18:19.684933,0.9999942779541016,-0.0015846432652324438,-0.0022292081266641617,0.0020249926019459963,-0.28173828125,0.859375,0.40185546875
2023-08-01T17:18:19.691736,0.9999939203262329,-0.0015845580492168665,-0.0023291718680411577,0.0020777874160557985,-0.28173828125,0.859375,0.40185546875
2023-08-01T17:18:19.692737,0.9999939203262329,-0.0015845580492168665,-0.0023291718680411577,0.0020777874160557985,-0.279296875,0.85986328125,0.40576171875
2023-08-01T17:18:19.692737,0.9999937415122986,-0.001584372017532587,-0.002418691525235772,0.0020779292099177837,-0.279296875,0.85986328125,0.40576171875
2023-08-01T17:18:19.699231,0.9999937415122986,-0.001584372017532587,-0.002418691525235772,0.0020779292099177837,-0.27734375,0.8603515625,0.40234375
2023-08-01T17:18:19.699231,0.9999935626983643,-0.0015842297580093145,-0.0024871567729860544,0.0020780377089977264,-0.27734375,0.8603515625,0.40234375
2023-08-01T17:18:19.706260,0.9999935626983643,-0.0015842297580093145,-0.0024871567729860544,0.0020780377089977264,-0.2705078125,0.8623046875,0.40185546875
2023-08-01T17:18:19.707258,0.9999933838844299,-0.0015840968117117882,-0.002551113022491336,0.002078138990327716,-0.2705078125,0.8623046875,0.40185546875
2023-08-01T17:18:19.707258,0.9999933838844299,-0.0015840968117117882,-0.002551113022491336,0.002078138990327716,-0.2724609375,0.86474609375,0.40185546875
2023-08-01T17:18:19.713747,0.9999933838844299,-0.0015840968117117882,-0.002551113022491336,0.002078138990327716,-0.2724609375,0.86474609375,0.40185546875
2023-08-01T17:18:19.714745,0.9999933838844299,-0.0015840968117117882,-0.002551113022491336,0.002078138990327716,-0.27197265625,0.8642578125,0.4033203125
2023-08-01T17:18:19.714745,0.9999933838844299,-0.0015840968117117882,-0.002551113022491336,0.002078138990327716,-0.27197265625,0.8642578125,0.4033203125
2023-08-01T17:18:19.720975,0.9999933838844299,-0.0015840968117117882,-0.002551113022491336,0.002078138990327716,-0.2744140625,0.86376953125,0.4033203125
2023-08-01T17:18:19.722085,0.9999933838844299,-0.0015840968117117882,-0.002551113022491336,0.002078138990327716,-0.28515625,0.86767578125,0.40673828125
2023-08-01T17:18:19.722085,0.9999939799308777,-0.001584665267728269,-0.002277520252391696,0.0020777054596692324,-0.28515625,0.86767578125,0.40673828125
2023-08-01T17:18:19.729068,0.9999939799308777,-0.001584665267728269,-0.002277520252391696,0.0020777054596692324,-0.28955078125,0.86669921875,0.40234375
2023-08-01T17:18:19.729068,0.9999939799308777,-0.001584665267728269,-0.002277520252391696,0.0020777054596692324,-0.287109375,0.8671875,0.404296875
2023-08-01T17:18:19.730065,0.9999939799308777,-0.001584665267728269,-0.002277520252391696,0.0020777054596692324,-0.2802734375,0.8662109375,0.4013671875
2023-08-01T17:18:19.751098,0.9999926686286926,-0.001583556062541902,-0.0028112714644521475,0.0020785508677363396,-0.2802734375,0.8662109375,0.4013671875
2023-08-01T17:18:19.752098,0.9999926686286926,-0.001583556062541902,-0.0028112714644521475,0.0020785508677363396,-0.27880859375,0.86865234375,0.4013671875
2023-08-01T17:18:19.752098,0.9999926686286926,-0.001583556062541902,-0.0028112714644521475,0.0020785508677363396,-0.27880859375,0.86865234375,0.4013671875
2023-08-01T17:18:19.774712,0.9999926686286926,-0.001583556062541902,-0.0028112714644521475,0.0020785508677363396,-0.2724609375,0.86865234375,0.3994140625
2023-08-01T17:18:19.774712,0.9999929070472717,-0.0015837384853512049,-0.002723484765738249,0.002078411867842078,-0.2724609375,0.86865234375,0.3994140625
2023-08-01T17:18:19.774712,0.9999929070472717,-0.0015837384853512049,-0.002723484765738249,0.002078411867842078,-0.2744140625,0.8642578125,0.39990234375
2023-08-01T17:18:19.781798,0.9999932646751404,-0.0015840119449421763,-0.0025919328909367323,0.002078203484416008,-0.2744140625,0.8642578125,0.39990234375
2023-08-01T17:18:19.781798,0.9999932646751404,-0.0015840119449421763,-0.0025919328909367323,0.002078203484416008,-0.27978515625,0.8662109375,0.396484375
2023-08-01T17:18:19.782804,0.9999935626983643,-0.001584244309924543,-0.0024801159743219614,0.0020780263002961874,-0.27978515625,0.8662109375,0.396484375
2023-08-01T17:18:19.803566,0.9999935626983643,-0.001584244309924543,-0.0024801159743219614,0.0020780263002961874,-0.2822265625,0.865234375,0.3955078125
2023-08-01T17:18:19.804563,0.9999937415122986,-0.0015843730652704835,-0.0024181599728763103,0.0020779280457645655,-0.2822265625,0.865234375,0.3955078125
2023-08-01T17:18:19.804563,0.9999937415122986,-0.0015843730652704835,-0.0024181599728763103,0.0020779280457645655,-0.28076171875,0.8662109375,0.39111328125
2023-08-01T17:18:19.818630,0.9999937415122986,-0.0015843730652704835,-0.0024181599728763103,0.0020779280457645655,-0.28076171875,0.8662109375,0.39111328125
2023-08-01T17:18:19.819629,0.9999937415122986,-0.0015843730652704835,-0.0024181599728763103,0.0020779280457645655,-0.27880859375,0.8681640625,0.39111328125
2023-08-01T17:18:19.819629,0.9999933838844299,-0.001584151410497725,-0.0025247277226299047,0.002078096615150571,-0.27880859375,0.8681640625,0.39111328125
2023-08-01T17:18:19.834910,0.9999933838844299,-0.001584151410497725,-0.0025247277226299047,0.002078096615150571,-0.2734375,0.86279296875,0.40087890625
2023-08-01T17:18:19.863569,0.9999932050704956,-0.0015840117121115327,-0.0025919252075254917,0.0020782030187547207,-0.2734375,0.86279296875,0.40087890625
2023-08-01T17:18:19.863569,0.9999932050704956,-0.0015840117121115327,-0.0025919252075254917,0.0020782030187547207,-0.265625,0.8662109375,0.400390625
2023-08-01T17:18:19.865133,0.9999932050704956,-0.0015840117121115327,-0.0025919252075254917,0.0020782030187547207,-0.265625,0.8662109375,0.400390625
2023-08-01T17:18:19.886398,0.9999932050704956,-0.0015840117121115327,-0.0025919252075254917,0.0020782030187547207,-0.26611328125,0.869140625,0.39697265625
2023-08-01T17:18:19.887399,0.9999933838844299,-0.0015838184626773,-0.0025920432526618242,0.0020036324858665466,-0.26611328125,0.869140625,0.39697265625
2023-08-01T17:18:19.887399,0.9999933838844299,-0.0015838184626773,-0.0025920432526618242,0.0020036324858665466,-0.26416015625,0.86669921875,0.396484375
2023-08-01T17:18:19.909467,0.9999937415122986,-0.0015837119426578283,-0.002525068586692214,0.0019105356186628342,-0.26416015625,0.86669921875,0.396484375
2023-08-01T17:18:19.909467,0.9999937415122986,-0.0015837119426578283,-0.002525068586692214,0.0019105356186628342,-0.2666015625,0.86474609375,0.39404296875
2023-08-01T17:18:19.910465,0.9999942779541016,-0.0015836195088922977,-0.002418763702735305,0.001793184783309698,-0.2666015625,0.86474609375,0.39404296875
2023-08-01T17:18:19.923467,0.9999942779541016,-0.0015836195088922977,-0.002418763702735305,0.001793184783309698,-0.27001953125,0.8662109375,0.39404296875
2023-08-01T17:18:19.924464,0.999994695186615,-0.0015835306840017438,-0.0022979385685175657,0.001666666241362691,-0.27001953125,0.8662109375,0.39404296875
2023-08-01T17:18:19.924464,0.999994695186615,-0.0015835306840017438,-0.0022979385685175657,0.001666666241362691,-0.2685546875,0.86181640625,0.39404296875
2023-08-01T17:18:19.931283,0.9999952912330627,-0.0015833803918212652,-0.002156126080080867,0.0014980054693296552,-0.2685546875,0.86181640625,0.39404296875
2023-08-01T17:18:19.932282,0.9999952912330627,-0.0015833803918212652,-0.002156126080080867,0.0014980054693296552,-0.27099609375,0.86328125,0.396484375
2023-08-01T17:18:19.932282,0.9999958276748657,-0.0015832072822377086,-0.0020143298897892237,0.0013188174925744534,-0.27099609375,0.86328125,0.396484375
2023-08-01T17:18:19.946267,0.9999958276748657,-0.0015832072822377086,-0.0020143298897892237,0.0013188174925744534,-0.279296875,0.86181640625,0.40283203125
2023-08-01T17:18:19.946267,0.9999958872795105,-0.0016618509544059634,-0.0020146756432950497,0.0011660134186968207,-0.279296875,0.86181640625,0.40283203125
2023-08-01T17:18:19.947773,0.9999958872795105,-0.0016618509544059634,-0.0020146756432950497,0.0011660134186968207,-0.28564453125,0.8623046875,0.40087890625
2023-08-01T17:18:19.953942,0.9999958276748657,-0.0017351510468870401,-0.0020834808237850666,0.0010133336763828993,-0.28564453125,0.8623046875,0.40087890625
2023-08-01T17:18:19.961433,0.9999958276748657,-0.0017351510468870401,-0.0020834808237850666,0.0010133336763828993,-0.29638671875,0.86767578125,0.3984375
2023-08-01T17:18:19.961433,0.9999953508377075,-0.0017925876891240478,-0.0022995872423052788,0.0008977878605946898,-0.29638671875,0.86767578125,0.3984375
2023-08-01T17:18:19.962432,0.9999953508377075,-0.0017925876891240478,-0.0022995872423052788,0.0008977878605946898,-0.30078125,0.86376953125,0.4033203125
2023-08-01T17:18:19.968919,0.9999948740005493,-0.0018560733878985047,-0.002518249908462167,0.0007968294667080045,-0.30078125,0.86376953125,0.4033203125
2023-08-01T17:18:19.969919,0.9999948740005493,-0.0018560733878985047,-0.002518249908462167,0.0007968294667080045,-0.2939453125,0.86572265625,0.4013671875
2023-08-01T17:18:19.969919,0.9999942779541016,-0.0019241862464696169,-0.0026921688113361597,0.0007285525207407773,-0.2939453125,0.86572265625,0.4013671875
2023-08-01T17:18:19.991405,0.9999942779541016,-0.0019241862464696169,-0.0026921688113361597,0.0007285525207407773,-0.29443359375,0.86767578125,0.3974609375
2023-08-01T17:18:19.992405,0.9999939203262329,-0.001987049588933587,-0.0028082048520445824,0.0006496511632576585,-0.29443359375,0.86767578125,0.3974609375
2023-08-01T17:18:19.992405,0.9999939203262329,-0.001987049588933587,-0.0028082048520445824,0.0006496511632576585,-0.2958984375,0.8662109375,0.40185546875
2023-08-01T17:18:20.005876,0.9999939203262329,-0.001987049588933587,-0.0028082048520445824,0.0006496511632576585,-0.291015625,0.86474609375,0.40771484375
2023-08-01T17:18:20.006875,0.9999939203262329,-0.002076562028378248,-0.0027557036373764277,0.0006492850952781737,-0.291015625,0.86474609375,0.40771484375
2023-08-01T17:18:20.007871,0.9999939203262329,-0.002076562028378248,-0.0027557036373764277,0.0006492850952781737,-0.294921875,0.8642578125,0.40771484375
2023-08-01T17:18:20.036688,0.9999939203262329,-0.002076562028378248,-0.0027557036373764277,0.0006492850952781737,-0.2978515625,0.86279296875,0.4072265625
2023-08-01T17:18:20.036688,0.999994695186615,-0.0020767804235219955,-0.002418908756226301,0.0006485856138169765,-0.2978515625,0.86279296875,0.4072265625
2023-08-01T17:18:20.037684,0.999994695186615,-0.0020767804235219955,-0.002418908756226301,0.0006485856138169765,-0.296875,0.86376953125,0.408203125
2023-08-01T17:18:20.044199,0.999994695186615,-0.0020767804235219955,-0.002418908756226301,0.0006485856138169765,-0.296875,0.86376953125,0.408203125
2023-08-01T17:18:20.045197,0.999994695186615,-0.0020767804235219955,-0.002418908756226301,0.0006485856138169765,-0.2939453125,0.86669921875,0.4072265625
2023-08-01T17:18:20.059247,0.9999943971633911,-0.002076938981190324,-0.0025082428473979235,0.0007382530020549893,-0.2939453125,0.86669921875,0.4072265625
2023-08-01T17:18:20.059247,0.9999943971633911,-0.002076938981190324,-0.0025082428473979235,0.0007382530020549893,-0.29345703125,0.8671875,0.40869140625
2023-08-01T17:18:20.060243,0.9999943375587463,-0.00207722932100296,-0.002508002333343029,0.0008540525450371206,-0.29345703125,0.8671875,0.40869140625
2023-08-01T17:18:20.066663,0.9999943375587463,-0.00207722932100296,-0.002508002333343029,0.0008540525450371206,-0.28857421875,0.869140625,0.4111328125
2023-08-01T17:18:20.096306,0.9999942779541016,-0.002077483106404543,-0.0025077920872718096,0.0009552554110996425,-0.28857421875,0.869140625,0.4111328125
2023-08-01T17:18:20.097304,0.9999942779541016,-0.002077483106404543,-0.0025077920872718096,0.0009552554110996425,-0.28173828125,0.8671875,0.41064453125
2023-08-01T17:18:20.104166,0.999994158744812,-0.002077729208394885,-0.002507588127627969,0.00105341209564358,-0.28173828125,0.8671875,0.41064453125
2023-08-01T17:18:20.105164,0.999994158744812,-0.002077729208394885,-0.002507588127627969,0.00105341209564358,-0.27490234375,0.8671875,0.40966796875
2023-08-01T17:18:20.105164,0.9999940395355225,-0.0020779799669981003,-0.0025073804426938295,0.0011534207733348012,-0.27490234375,0.8671875,0.40966796875
2023-08-01T17:18:20.119235,0.9999940395355225,-0.0020779799669981003,-0.0025073804426938295,0.0011534207733348012,-0.28125,0.86767578125,0.40576171875
2023-08-01T17:18:20.119235,0.9999939203262329,-0.0020782870706170797,-0.002507125958800316,0.0012759295059368014,-0.28125,0.86767578125,0.40576171875
2023-08-01T17:18:20.120288,0.9999939203262329,-0.0020782870706170797,-0.002507125958800316,0.0012759295059368014,-0.28271484375,0.86474609375,0.40673828125
2023-08-01T17:18:20.126289,0.9999940395355225,-0.002004764974117279,-0.002506889635697007,0.001344541204161942,-0.28271484375,0.86474609375,0.40673828125
2023-08-01T17:18:20.127288,0.9999940395355225,-0.002004764974117279,-0.002506889635697007,0.001344541204161942,-0.27978515625,0.86669921875,0.40869140625
2023-08-01T17:18:20.127288,0.9999942183494568,-0.0019469679100438952,-0.002427895786240697,0.0013445280492305756,-0.27978515625,0.86669921875,0.40869140625
2023-08-01T17:18:20.133854,0.9999942183494568,-0.0019469679100438952,-0.002427895786240697,0.0013445280492305756,-0.2763671875,0.86669921875,0.39990234375
2023-08-01T17:18:20.133854,0.9999943375587463,-0.0018732741009443998,-0.0024277966003865004,0.0013447069795802236,-0.2763671875,0.86669921875,0.39990234375
2023-08-01T17:18:20.134861,0.9999943375587463,-0.0018732741009443998,-0.0024277966003865004,0.0013447069795802236,-0.2744140625,0.86669921875,0.3955078125
2023-08-01T17:18:20.141248,0.9999943375587463,-0.0018208137480542064,-0.002427587751299143,0.0014185253530740738,-0.2744140625,0.86669921875,0.3955078125
2023-08-01T17:18:20.142245,0.9999943375587463,-0.0018208137480542064,-0.002427587751299143,0.0014185253530740738,-0.27294921875,0.8662109375,0.3916015625
2023-08-01T17:18:20.142245,0.9999943375587463,-0.0018208137480542064,-0.002427587751299143,0.0014185253530740738,-0.27294921875,0.8662109375,0.3916015625
2023-08-01T17:18:20.149248,0.9999943375587463,-0.0018208137480542064,-0.002427587751299143,0.0014185253530740738,-0.26953125,0.86474609375,0.3857421875
2023-08-01T17:18:20.149248,0.9999943375587463,-0.0018208137480542064,-0.002427587751299143,0.0014185253530740738,-0.2734375,0.86376953125,0.3818359375
2023-08-01T17:18:20.150356,0.9999943375587463,-0.0018208137480542064,-0.002427587751299143,0.0014185253530740738,-0.2734375,0.86376953125,0.3818359375
2023-08-01T17:18:20.163977,0.9999943375587463,-0.0018208137480542064,-0.002427587751299143,0.0014185253530740738,-0.2666015625,0.8642578125,0.384765625
2023-08-01T17:18:20.164973,0.9999942183494568,-0.001874075154773891,-0.0024276631884276867,0.001418396015651524,-0.2666015625,0.8642578125,0.384765625
2023-08-01T17:18:20.186676,0.9999942183494568,-0.001874075154773891,-0.0024276631884276867,0.001418396015651524,-0.26708984375,0.85791015625,0.39111328125
2023-08-01T17:18:20.186676,0.9999942779541016,-0.0020580673590302467,-0.002370299771428108,0.0012915089027956128,-0.26708984375,0.85791015625,0.39111328125
2023-08-01T17:18:20.187672,0.9999942779541016,-0.0020580673590302467,-0.002370299771428108,0.0012915089027956128,-0.2724609375,0.859375,0.39453125
2023-08-01T17:18:20.194166,0.9999943971633911,-0.0021632227580994368,-0.002265418414026499,0.0011857706122100353,-0.2724609375,0.859375,0.39453125
2023-08-01T17:18:20.194166,0.9999947547912598,-0.0022482399363070726,-0.002111459383741021,0.0010147965513169765,-0.2724609375,0.859375,0.39453125
2023-08-01T17:18:20.195162,0.9999947547912598,-0.0022482399363070726,-0.002111459383741021,0.0010147965513169765,-0.2783203125,0.86572265625,0.39306640625
2023-08-01T17:18:20.202229,0.9999949336051941,-0.0023564754519611597,-0.0019931807182729244,0.000838651554659009,-0.2783203125,0.86572265625,0.39306640625
2023-08-01T17:18:20.202229,0.9999949336051941,-0.0023564754519611597,-0.0019931807182729244,0.000838651554659009,-0.28515625,0.86328125,0.39892578125
2023-08-01T17:18:20.203227,0.9999946355819702,-0.002484031254425645,-0.0019936140161007643,0.000699908472597599,-0.28515625,0.86328125,0.39892578125
2023-08-01T17:18:20.216936,0.9999946355819702,-0.002484031254425645,-0.0019936140161007643,0.000699908472597599,-0.29296875,0.861328125,0.40185546875
2023-08-01T17:18:20.216936,0.9999942183494568,-0.002620553132146597,-0.0021045980975031853,0.000573583587538451,-0.29296875,0.861328125,0.40185546875
2023-08-01T17:18:20.216936,0.9999942183494568,-0.002620553132146597,-0.0021045980975031853,0.000573583587538451,-0.29638671875,0.8623046875,0.4052734375
2023-08-01T17:18:20.223491,0.9999934434890747,-0.002741317730396986,-0.0023102073464542627,0.0004896490136161447,-0.29638671875,0.8623046875,0.4052734375
2023-08-01T17:18:20.224489,0.9999934434890747,-0.002741317730396986,-0.0023102073464542627,0.0004896490136161447,-0.30224609375,0.865234375,0.412109375
2023-08-01T17:18:20.225486,0.9999926686286926,-0.002841056790202856,-0.002531553851440549,0.0004215971566736698,-0.30224609375,0.865234375,0.412109375
2023-08-01T17:18:20.238988,0.9999926686286926,-0.002841056790202856,-0.002531553851440549,0.0004215971566736698,-0.29833984375,0.865234375,0.412109375
2023-08-01T17:18:20.238988,0.9999919533729553,-0.0029251892119646072,-0.0027263809461146593,0.00042193738045170903,-0.29833984375,0.865234375,0.412109375
2023-08-01T17:18:20.239985,0.9999919533729553,-0.0029251892119646072,-0.0027263809461146593,0.00042193738045170903,-0.29443359375,0.869140625,0.41748046875
2023-08-01T17:18:20.261803,0.9999916553497314,-0.002925144275650382,-0.0028329486958682537,0.0004222491115797311,-0.29443359375,0.869140625,0.41748046875
2023-08-01T17:18:20.261803,0.9999916553497314,-0.002925144275650382,-0.0028329486958682537,0.0004222491115797311,-0.298828125,0.869140625,0.42578125
2023-08-01T17:18:20.262800,0.9999914765357971,-0.002976802410557866,-0.002832970581948757,0.00042210277752019465,-0.298828125,0.869140625,0.42578125
2023-08-01T17:18:20.268783,0.9999914765357971,-0.002976802410557866,-0.002832970581948757,0.00042210277752019465,-0.3017578125,0.86865234375,0.42431640625
2023-08-01T17:18:20.268783,0.9999916553497314,-0.002976831514388323,-0.002763765398412943,0.00042189675150439143,-0.3017578125,0.86865234375,0.42431640625
2023-08-01T17:18:20.270222,0.9999916553497314,-0.002976831514388323,-0.002763765398412943,0.00042189675150439143,-0.2958984375,0.869140625,0.41943359375
2023-08-01T17:18:20.284378,0.9999920129776001,-0.002976883202791214,-0.0026412957813590765,0.00042153216782025993,-0.2958984375,0.869140625,0.41943359375
2023-08-01T17:18:20.284378,0.9999920129776001,-0.002976883202791214,-0.0026412957813590765,0.00042153216782025993,-0.2978515625,0.87060546875,0.41552734375
2023-08-01T17:18:20.285375,0.9999923706054688,-0.0029771013651043177,-0.0025119956117123365,0.0004831413389183581,-0.2978515625,0.87060546875,0.41552734375
2023-08-01T17:18:20.313799,0.9999923706054688,-0.0029771013651043177,-0.0025119956117123365,0.0004831413389183581,-0.2919921875,0.869140625,0.40966796875
2023-08-01T17:18:20.313799,0.9999925494194031,-0.0029773388523608446,-0.002374976174905896,0.000551160832401365,-0.2919921875,0.869140625,0.40966796875
2023-08-01T17:18:20.314795,0.9999925494194031,-0.0029773388523608446,-0.002374976174905896,0.000551160832401365,-0.2880859375,0.8671875,0.40478515625
2023-08-01T17:18:20.329616,0.999992847442627,-0.0029249873477965593,-0.002306245034560561,0.0006563543574884534,-0.2880859375,0.8671875,0.40478515625
2023-08-01T17:18:20.329616,0.999992847442627,-0.0029249873477965593,-0.002306245034560561,0.0006563543574884534,-0.29345703125,0.8662109375,0.40966796875
2023-08-01T17:18:20.330600,0.999992847442627,-0.0028358048293739557,-0.0023636932019144297,0.0008041111286729574,-0.29345703125,0.8662109375,0.40966796875
2023-08-01T17:18:20.336124,0.999992847442627,-0.0028358048293739557,-0.0023636932019144297,0.0008041111286729574,-0.28515625,0.86328125,0.41455078125
2023-08-01T17:18:20.337126,0.9999927878379822,-0.002746592741459608,-0.002442210679873824,0.0009466640185564756,-0.28515625,0.86328125,0.41455078125
2023-08-01T17:18:20.338123,0.9999927878379822,-0.002746592741459608,-0.002442210679873824,0.0009466640185564756,-0.279296875,0.86572265625,0.412109375
2023-08-01T17:18:20.366332,0.9999925494194031,-0.0026935592759400606,-0.00253770942799747,0.0010802190518006682,-0.279296875,0.86572265625,0.412109375
2023-08-01T17:18:20.367330,0.9999925494194031,-0.0026935592759400606,-0.00253770942799747,0.0010802190518006682,-0.279296875,0.86572265625,0.40966796875
2023-08-01T17:18:20.367330,0.9999924898147583,-0.0026043346151709557,-0.0026057236827909946,0.001212220755405724,-0.279296875,0.86572265625,0.40966796875
2023-08-01T17:18:20.381718,0.9999924898147583,-0.0026043346151709557,-0.0026057236827909946,0.001212220755405724,-0.27490234375,0.86328125,0.40576171875
2023-08-01T17:18:20.381718,0.9999925494194031,-0.0025309151969850063,-0.0026053600013256073,0.0013176847714930773,-0.27490234375,0.86328125,0.40576171875
2023-08-01T17:18:20.382715,0.9999925494194031,-0.0025309151969850063,-0.0026053600013256073,0.0013176847714930773,-0.26708984375,0.85986328125,0.400390625
2023-08-01T17:18:20.388721,0.9999927878379822,-0.00245225359685719,-0.002536667510867119,0.0013966714031994343,-0.26708984375,0.85986328125,0.400390625
2023-08-01T17:18:20.389718,0.9999927878379822,-0.00245225359685719,-0.002536667510867119,0.0013966714031994343,-0.27294921875,0.85791015625,0.3974609375
2023-08-01T17:18:20.389718,0.999993085861206,-0.0023789945989847183,-0.0024257961194962263,0.0015071231173351407,-0.27294921875,0.85791015625,0.3974609375
2023-08-01T17:18:20.397285,0.999993085861206,-0.0023789945989847183,-0.0024257961194962263,0.0015071231173351407,-0.27685546875,0.85546875,0.396484375
2023-08-01T17:18:20.397285,0.9999931454658508,-0.002294939709827304,-0.002425506478175521,0.0015757543733343482,-0.27685546875,0.85546875,0.396484375
2023-08-01T17:18:20.398280,0.9999931454658508,-0.002294939709827304,-0.002425506478175521,0.0015757543733343482,-0.2783203125,0.85546875,0.39697265625
2023-08-01T17:18:20.419064,0.9999929666519165,-0.002199159236624837,-0.0025263524148613214,0.0016827485524117947,-0.2783203125,0.85546875,0.39697265625
2023-08-01T17:18:20.419064,0.9999929666519165,-0.002199159236624837,-0.0025263524148613214,0.0016827485524117947,-0.2763671875,0.85888671875,0.39501953125
2023-08-01T17:18:20.420377,0.9999924898147583,-0.002199063776060939,-0.0026760713662952185,0.0017450717277824879,-0.2763671875,0.85888671875,0.39501953125
2023-08-01T17:18:20.426870,0.9999924898147583,-0.002199063776060939,-0.0026760713662952185,0.0017450717277824879,-0.27734375,0.8603515625,0.39501953125
2023-08-01T17:18:20.426870,0.9999918341636658,-0.0021989119704812765,-0.0028759646229445934,0.0018192020943388343,-0.27734375,0.8603515625,0.39501953125
2023-08-01T17:18:20.427872,0.9999918341636658,-0.0021989119704812765,-0.0028759646229445934,0.0018192020943388343,-0.275390625,0.8623046875,0.3984375
2023-08-01T17:18:20.433424,0.9999913573265076,-0.002198605565354228,-0.0030444380827248096,0.0018195725278928876,-0.275390625,0.8623046875,0.3984375
2023-08-01T17:18:20.434930,0.9999913573265076,-0.002198605565354228,-0.0030444380827248096,0.0018195725278928876,-0.27197265625,0.86572265625,0.40087890625
2023-08-01T17:18:20.434930,0.9999913573265076,-0.002198605565354228,-0.0030444380827248096,0.0018195725278928876,-0.27197265625,0.86572265625,0.40087890625
2023-08-01T17:18:20.441019,0.9999913573265076,-0.002198605565354228,-0.0030444380827248096,0.0018195725278928876,-0.2734375,0.8671875,0.400390625
2023-08-01T17:18:20.442018,0.9999916553497314,-0.0021985757630318403,-0.0029551335610449314,0.0017562124412506819,-0.2734375,0.8671875,0.400390625
2023-08-01T17:18:20.442018,0.9999916553497314,-0.0021985757630318403,-0.0029551335610449314,0.0017562124412506819,-0.2744140625,0.86767578125,0.396484375
2023-08-01T17:18:20.449220,0.9999921917915344,-0.002198639325797558,-0.0028114987071603537,0.0016919788904488087,-0.2744140625,0.86767578125,0.396484375
2023-08-01T17:18:20.449220,0.9999921917915344,-0.002198639325797558,-0.0028114987071603537,0.0016919788904488087,-0.2705078125,0.86572265625,0.3974609375
2023-08-01T17:18:20.450275,0.9999926686286926,-0.002198663307353854,-0.002677375916391611,0.0016193578485399485,-0.2705078125,0.86572265625,0.3974609375
2023-08-01T17:18:20.456751,0.9999926686286926,-0.002198663307353854,-0.002677375916391611,0.0016193578485399485,-0.27587890625,0.86669921875,0.39404296875
2023-08-01T17:18:20.457748,0.9999929666519165,-0.0021985669154673815,-0.0026136611122637987,0.001544647035188973,-0.27587890625,0.86669921875,0.39404296875
2023-08-01T17:18:20.457748,0.9999929666519165,-0.0021985669154673815,-0.0026136611122637987,0.001544647035188973,-0.28125,0.86572265625,0.38720703125
2023-08-01T17:18:20.470813,0.9999927282333374,-0.002198190428316593,-0.002750691957771778,0.0014817847404628992,-0.28125,0.86572265625,0.38720703125
2023-08-01T17:18:20.472257,0.9999927282333374,-0.002198190428316593,-0.002750691957771778,0.0014817847404628992,-0.283203125,0.8662109375,0.3896484375
2023-08-01T17:18:20.472257,0.9999920129776001,-0.002261038403958082,-0.002961368067190051,0.0014820739161223173,-0.283203125,0.8662109375,0.3896484375
2023-08-01T17:18:20.478519,0.9999920129776001,-0.002261038403958082,-0.002961368067190051,0.0014820739161223173,-0.28271484375,0.86767578125,0.39453125
2023-08-01T17:18:20.479517,0.9999914169311523,-0.002313429256901145,-0.003124656155705452,0.0014822870725765824,-0.28271484375,0.86767578125,0.39453125
2023-08-01T17:18:20.479517,0.9999914169311523,-0.002313429256901145,-0.003124656155705452,0.0014822870725765824,-0.28076171875,0.8642578125,0.3984375
2023-08-01T17:18:20.502066,0.9999909996986389,-0.0023922629188746214,-0.0032037654891610146,0.0014822231605648994,-0.28076171875,0.8642578125,0.3984375
2023-08-01T17:18:20.516016,0.9999909996986389,-0.0023922629188746214,-0.0032037654891610146,0.0014822231605648994,-0.28076171875,0.86376953125,0.40869140625
2023-08-01T17:18:20.517002,0.9999908208847046,-0.0024554228875786066,-0.0032038590870797634,0.0014820208307355642,-0.28076171875,0.86376953125,0.40869140625
2023-08-01T17:18:20.553995,0.9999908208847046,-0.0024554228875786066,-0.0032038590870797634,0.0014820208307355642,-0.287109375,0.86279296875,0.4150390625
2023-08-01T17:18:20.553995,0.9999909996986389,-0.002507996279746294,-0.003130414290353656,0.0014290353283286095,-0.287109375,0.86279296875,0.4150390625
2023-08-01T17:18:20.554993,0.9999909996986389,-0.002507996279746294,-0.003130414290353656,0.0014290353283286095,-0.29248046875,0.865234375,0.41552734375
2023-08-01T17:18:20.560548,0.999991238117218,-0.002508118050172925,-0.0030452299397438765,0.001428821706213057,-0.29248046875,0.865234375,0.41552734375
2023-08-01T17:18:20.561967,0.999991238117218,-0.002508118050172925,-0.0030452299397438765,0.001428821706213057,-0.29443359375,0.86474609375,0.41455078125
2023-08-01T17:18:20.561967,0.9999914169311523,-0.002508208155632019,-0.002982105128467083,0.0014286633813753724,-0.29443359375,0.86474609375,0.41455078125
2023-08-01T17:18:20.599219,0.9999914169311523,-0.002508208155632019,-0.002982105128467083,0.0014286633813753724,-0.29345703125,0.86279296875,0.41162109375
2023-08-01T17:18:20.599219,0.9999914169311523,-0.002508208155632019,-0.002982105128467083,0.0014286633813753724,-0.29345703125,0.86279296875,0.41162109375
2023-08-01T17:18:20.599219,0.9999914169311523,-0.002508208155632019,-0.002982105128467083,0.0014286633813753724,-0.2890625,0.86669921875,0.41015625
2023-08-01T17:18:20.606943,0.9999915957450867,-0.0024397780653089285,-0.0029820073395967484,0.001428867457434535,-0.2890625,0.86669921875,0.41015625
2023-08-01T17:18:20.606943,0.9999915957450867,-0.0024397780653089285,-0.0029820073395967484,0.001428867457434535,-0.28759765625,0.8701171875,0.40576171875
2023-08-01T17:18:20.666420,0.9999915957450867,-0.002387327142059803,-0.0029817780014127493,0.001492187613621354,-0.28759765625,0.8701171875,0.40576171875
2023-08-01T17:18:20.667418,0.9999915957450867,-0.002387327142059803,-0.0029817780014127493,0.001492187613621354,-0.2783203125,0.8681640625,0.400390625
2023-08-01T17:18:20.668413,0.9999912977218628,-0.002387483837082982,-0.003034263616427779,0.0015712673775851727,-0.2783203125,0.8681640625,0.400390625
2023-08-01T17:18:20.696447,0.9999912977218628,-0.002387483837082982,-0.003034263616427779,0.0015712673775851727,-0.271484375,0.8662109375,0.39990234375
2023-08-01T17:18:20.726700,0.9999909996986389,-0.0023875844199210405,-0.003092050552368164,0.0016345689073204994,-0.271484375,0.8662109375,0.39990234375
2023-08-01T17:18:20.727699,0.9999909996986389,-0.0023875844199210405,-0.003092050552368164,0.0016345689073204994,-0.27587890625,0.86572265625,0.3994140625
2023-08-01T17:18:20.727699,0.9999905228614807,-0.0023877646308392286,-0.003193024778738618,0.0017466660356149077,-0.27587890625,0.86572265625,0.3994140625
2023-08-01T17:18:20.756628,0.9999905228614807,-0.0023877646308392286,-0.003193024778738618,0.0017466660356149077,-0.27392578125,0.86474609375,0.4033203125
2023-08-01T17:18:20.756628,0.9999902844429016,-0.0023361551575362682,-0.0032651619985699654,0.0018038310809060931,-0.27392578125,0.86474609375,0.4033203125
2023-08-01T17:18:20.757624,0.9999902844429016,-0.0023361551575362682,-0.0032651619985699654,0.0018038310809060931,-0.27001953125,0.86376953125,0.40478515625
2023-08-01T17:18:20.764225,0.9999902844429016,-0.0023361551575362682,-0.0032651619985699654,0.0018038310809060931,-0.27001953125,0.86376953125,0.40478515625
2023-08-01T17:18:20.764225,0.9999902844429016,-0.0023361551575362682,-0.0032651619985699654,0.0018038310809060931,-0.27099609375,0.86572265625,0.404296875
2023-08-01T17:18:20.765221,0.9999905824661255,-0.0023363069631159306,-0.0031809827778488398,0.0018036344554275274,-0.27099609375,0.86572265625,0.404296875
2023-08-01T17:18:20.771675,0.9999905824661255,-0.0023363069631159306,-0.0031809827778488398,0.0018036344554275274,-0.27392578125,0.86474609375,0.404296875
2023-08-01T17:18:20.771675,0.9999908804893494,-0.0023364683147519827,-0.003091539954766631,0.001803425489924848,-0.27392578125,0.86474609375,0.404296875
2023-08-01T17:18:20.772676,0.9999908804893494,-0.0023364683147519827,-0.003091539954766631,0.001803425489924848,-0.27490234375,0.865234375,0.40087890625
2023-08-01T17:18:20.786641,0.9999911189079285,-0.0023366219829767942,-0.0030063556041568518,0.001803226419724524,-0.27490234375,0.865234375,0.40087890625
2023-08-01T17:18:20.787638,0.9999911189079285,-0.0023366219829767942,-0.0030063556041568518,0.001803226419724524,-0.28564453125,0.86474609375,0.3994140625
2023-08-01T17:18:20.787638,0.9999912977218628,-0.002336735837161541,-0.0029432307928800583,0.0018030789215117693,-0.28564453125,0.86474609375,0.3994140625
2023-08-01T17:18:20.793723,0.9999912977218628,-0.002336735837161541,-0.0029432307928800583,0.0018030789215117693,-0.2919921875,0.8623046875,0.3994140625
2023-08-01T17:18:20.794721,0.9999912977218628,-0.002336735837161541,-0.0029432307928800583,0.0018030789215117693,-0.2919921875,0.8623046875,0.3994140625
2023-08-01T17:18:20.794721,0.9999912977218628,-0.002336735837161541,-0.0029432307928800583,0.0018030789215117693,-0.2880859375,0.86279296875,0.400390625
2023-08-01T17:18:20.808685,0.9999912977218628,-0.002336735837161541,-0.0029432307928800583,0.0018030789215117693,-0.283203125,0.86572265625,0.40283203125
2023-08-01T17:18:20.809683,0.9999908804893494,-0.0021036805119365454,-0.0032576494850218296,0.0018046001205220819,-0.283203125,0.86572265625,0.40283203125
2023-08-01T17:18:20.809683,0.9999908804893494,-0.0021036805119365454,-0.0032576494850218296,0.0018046001205220819,-0.27685546875,0.86279296875,0.3984375
2023-08-01T17:18:20.823651,0.9999908804893494,-0.0021036805119365454,-0.0032576494850218296,0.0018046001205220819,-0.2880859375,0.86572265625,0.39404296875
2023-08-01T17:18:20.824649,0.9999908804893494,-0.0021036805119365454,-0.0032576494850218296,0.0018046001205220819,-0.27294921875,0.86767578125,0.39453125
2023-08-01T17:18:20.824649,0.9999918937683105,-0.0020512102637439966,-0.002905153902247548,0.0018619316397234797,-0.27294921875,0.86767578125,0.39453125
2023-08-01T17:18:20.831695,0.9999918937683105,-0.0020512102637439966,-0.002905153902247548,0.0018619316397234797,-0.27587890625,0.86572265625,0.39990234375
2023-08-01T17:18:20.831695,0.9999918937683105,-0.0020512102637439966,-0.002905153902247548,0.0018619316397234797,-0.2724609375,0.8671875,0.40576171875
2023-08-01T17:18:20.832692,0.999991238117218,-0.0020510307513177395,-0.003089337842538953,0.001920209382660687,-0.2724609375,0.8671875,0.40576171875
2023-08-01T17:18:20.853708,0.999991238117218,-0.0020510307513177395,-0.003089337842538953,0.001920209382660687,-0.2734375,0.8671875,0.40869140625
2023-08-01T17:18:20.854706,0.999991238117218,-0.0020510307513177395,-0.003089337842538953,0.001920209382660687,-0.2734375,0.8671875,0.40869140625
2023-08-01T17:18:20.854706,0.999991238117218,-0.0020510307513177395,-0.003089337842538953,0.001920209382660687,-0.27294921875,0.8671875,0.404296875
2023-08-01T17:18:20.861353,0.9999914765357971,-0.0020511923357844353,-0.0030051586218178272,0.0019200367387384176,-0.27294921875,0.8671875,0.404296875
2023-08-01T17:18:20.869333,0.9999914765357971,-0.0020511923357844353,-0.0030051586218178272,0.0019200367387384176,-0.2734375,0.8681640625,0.39990234375
2023-08-01T17:18:20.869333,0.9999916553497314,-0.002051293384283781,-0.0029525610152632,0.001919928821735084,-0.2734375,0.8681640625,0.39990234375
2023-08-01T17:18:20.870332,0.9999916553497314,-0.002051293384283781,-0.0029525610152632,0.001919928821735084,-0.2763671875,0.8671875,0.39453125
2023-08-01T17:18:20.899165,0.9999916553497314,-0.002051293384283781,-0.0029525610152632,0.001919928821735084,-0.2763671875,0.8671875,0.39453125
2023-08-01T17:18:20.900165,0.9999916553497314,-0.002051293384283781,-0.0029525610152632,0.001919928821735084,-0.2783203125,0.86572265625,0.39453125
2023-08-01T17:18:20.900165,0.9999911785125732,-0.0021037037950009108,-0.0030684994999319315,0.0019200110109522939,-0.2783203125,0.86572265625,0.39453125
2023-08-01T17:18:20.914237,0.9999911785125732,-0.0021037037950009108,-0.0030684994999319315,0.0019200110109522939,-0.283203125,0.865234375,0.40380859375
2023-08-01T17:18:20.915235,0.9999907612800598,-0.0021034309174865484,-0.0032106549479067326,0.0019203100819140673,-0.283203125,0.865234375,0.40380859375
2023-08-01T17:18:20.916233,0.9999907612800598,-0.0021034309174865484,-0.0032106549479067326,0.0019203100819140673,-0.2841796875,0.8671875,0.40478515625
2023-08-01T17:18:20.951301,0.9999905824661255,-0.0021029491908848286,-0.003328043734654784,0.0018406598828732967,-0.2841796875,0.8671875,0.40478515625
2023-08-01T17:18:20.959283,0.9999905824661255,-0.0021029491908848286,-0.003328043734654784,0.0018406598828732967,-0.2822265625,0.86865234375,0.4072265625
2023-08-01T17:18:20.959283,0.9999904036521912,-0.0021025906316936016,-0.0034108697436749935,0.0017788403201848269,-0.2822265625,0.86865234375,0.4072265625
2023-08-01T17:18:20.960331,0.9999904036521912,-0.0021025906316936016,-0.0034108697436749935,0.0017788403201848269,-0.2802734375,0.86767578125,0.40771484375
2023-08-01T17:18:20.966493,0.9999905228614807,-0.002102321246638894,-0.0034110357519239187,0.0016998864011839032,-0.2802734375,0.86767578125,0.40771484375
2023-08-01T17:18:20.967490,0.9999905228614807,-0.002102321246638894,-0.0034110357519239187,0.0016998864011839032,-0.279296875,0.8671875,0.40185546875
2023-08-01T17:18:20.982068,0.999990701675415,-0.0021020122803747654,-0.0034112262073904276,0.001609336817637086,-0.279296875,0.8671875,0.40185546875
2023-08-01T17:18:20.982068,0.999990701675415,-0.0021020122803747654,-0.0034112262073904276,0.001609336817637086,-0.28173828125,0.8662109375,0.3955078125
2023-08-01T17:18:20.982068,0.9999910593032837,-0.0021019773557782173,-0.0033235482405871153,0.0015574910212308168,-0.28173828125,0.8662109375,0.3955078125
2023-08-01T17:18:20.996537,0.9999910593032837,-0.0021019773557782173,-0.0033235482405871153,0.0015574910212308168,-0.28662109375,0.86474609375,0.3974609375
2023-08-01T17:18:20.996537,0.9999910593032837,-0.0021019773557782173,-0.0033235482405871153,0.0015574910212308168,-0.28662109375,0.86474609375,0.3974609375
2023-08-01T17:18:20.997534,0.9999910593032837,-0.0021019773557782173,-0.0033235482405871153,0.0015574910212308168,-0.2900390625,0.861328125,0.3994140625
2023-08-01T17:18:21.086683,0.9999910593032837,-0.0021019773557782173,-0.0033235482405871153,0.0015574910212308168,-0.2900390625,0.861328125,0.3994140625
2023-08-01T17:18:21.086683,0.9999910593032837,-0.0021019773557782173,-0.0033235482405871153,0.0015574910212308168,-0.2900390625,0.86328125,0.4013671875
2023-08-01T17:18:21.087679,0.9999906420707703,-0.0021017699036747217,-0.0034567483235150576,0.0015577710000798106,-0.2900390625,0.86328125,0.4013671875
2023-08-01T17:18:21.116634,0.9999906420707703,-0.0021017699036747217,-0.0034567483235150576,0.0015577710000798106,-0.2890625,0.8642578125,0.4033203125
2023-08-01T17:18:21.132508,0.9999902844429016,-0.002101597608998418,-0.0035673221573233604,0.0015580033650621772,-0.2890625,0.8642578125,0.4033203125
2023-08-01T17:18:21.132508,0.9999902844429016,-0.002101597608998418,-0.0035673221573233604,0.0015580033650621772,-0.2822265625,0.86181640625,0.40234375
2023-08-01T17:18:21.132508,0.9999900460243225,-0.0021015063393861055,-0.0036259517073631287,0.00155812653247267,-0.2822265625,0.86181640625,0.40234375
2023-08-01T17:18:21.147015,0.9999900460243225,-0.0021015063393861055,-0.0036259517073631287,0.00155812653247267,-0.27880859375,0.8623046875,0.40380859375
2023-08-01T17:18:21.184314,0.9999900460243225,-0.0021015063393861055,-0.0036259517073631287,0.00155812653247267,-0.27880859375,0.8623046875,0.40380859375
2023-08-01T17:18:21.185312,0.9999900460243225,-0.0021015063393861055,-0.0036259517073631287,0.00155812653247267,-0.28857421875,0.86279296875,0.40380859375
2023-08-01T17:18:21.185312,0.9999900460243225,-0.0021015063393861055,-0.0036259517073631287,0.00155812653247267,-0.2802734375,0.86865234375,0.40478515625
2023-08-01T17:18:21.191294,0.9999900460243225,-0.0021015063393861055,-0.0036259517073631287,0.00155812653247267,-0.2802734375,0.86865234375,0.40478515625
2023-08-01T17:18:21.192647,0.9999900460243225,-0.0021015063393861055,-0.0036259517073631287,0.00155812653247267,-0.28515625,0.87109375,0.40478515625
2023-08-01T17:18:21.192647,0.9999900460243225,-0.0021015063393861055,-0.0036259517073631287,0.00155812653247267,-0.28515625,0.87109375,0.40478515625
2023-08-01T17:18:21.228809,0.9999900460243225,-0.0021015063393861055,-0.0036259517073631287,0.00155812653247267,-0.28515625,0.87158203125,0.39892578125
2023-08-01T17:18:21.229808,0.9999898672103882,-0.0021014241501688957,-0.003678625915199518,0.0015582372434437275,-0.28515625,0.87158203125,0.39892578125
2023-08-01T17:18:21.229808,0.9999898672103882,-0.0021014241501688957,-0.003678625915199518,0.0015582372434437275,-0.28125,0.869140625,0.400390625
2023-08-01T17:18:21.237358,0.9999898672103882,-0.0021014241501688957,-0.003678625915199518,0.0015582372434437275,-0.28125,0.869140625,0.400390625
2023-08-01T17:18:21.237358,0.9999898672103882,-0.0021014241501688957,-0.003678625915199518,0.0015582372434437275,-0.279296875,0.86669921875,0.404296875
2023-08-01T17:18:21.237358,0.9999898672103882,-0.0021014241501688957,-0.003678625915199518,0.0015582372434437275,-0.279296875,0.86669921875,0.404296875
2023-08-01T17:18:21.258911,0.9999898672103882,-0.0021014241501688957,-0.003678625915199518,0.0015582372434437275,-0.28125,0.86962890625,0.4033203125
2023-08-01T17:18:21.259909,0.9999898672103882,-0.0021014241501688957,-0.003678625915199518,0.0015582372434437275,-0.28564453125,0.8671875,0.40185546875
2023-08-01T17:18:21.260412,0.9999898672103882,-0.0021014241501688957,-0.003678625915199518,0.0015582372434437275,-0.2783203125,0.8642578125,0.3994140625
2023-08-01T17:18:21.288051,0.9999898076057434,-0.0021013920195400715,-0.0036991697270423174,0.001558279967866838,-0.2783203125,0.8642578125,0.3994140625
2023-08-01T17:18:21.289557,0.9999898076057434,-0.0021013920195400715,-0.0036991697270423174,0.001558279967866838,-0.2802734375,0.86376953125,0.39697265625
2023-08-01T17:18:21.289557,0.9999898076057434,-0.0021013920195400715,-0.0036991697270423174,0.001558279967866838,-0.2783203125,0.86376953125,0.39697265625
2023-08-01T17:18:21.305102,0.9999898076057434,-0.0021013920195400715,-0.0036991697270423174,0.001558279967866838,-0.2783203125,0.8662109375,0.39697265625
2023-08-01T17:18:21.305102,0.9999905228614807,-0.0021016953978687525,-0.003504570107907057,0.00155787100084126,-0.2783203125,0.8662109375,0.39697265625
2023-08-01T17:18:21.311537,0.9999905228614807,-0.0021016953978687525,-0.003504570107907057,0.00155787100084126,-0.28271484375,0.86572265625,0.39697265625
2023-08-01T17:18:21.312532,0.9999908208847046,-0.0021018264815211296,-0.003420390887185931,0.001557694049552083,-0.28271484375,0.86572265625,0.39697265625
2023-08-01T17:18:21.318516,0.9999908208847046,-0.0021018264815211296,-0.003420390887185931,0.001557694049552083,-0.29296875,0.86962890625,0.40673828125
2023-08-01T17:18:21.319514,0.9999901056289673,-0.002165517769753933,-0.0035633756779134274,0.0015577846206724644,-0.29296875,0.86962890625,0.40673828125
2023-08-01T17:18:21.319514,0.9999901056289673,-0.002165517769753933,-0.0035633756779134274,0.0015577846206724644,-0.29248046875,0.86962890625,0.40625
2023-08-01T17:18:21.326552,0.9999897480010986,-0.002165618585422635,-0.0036325312685221434,0.001616525580175221,-0.29248046875,0.86962890625,0.40625
2023-08-01T17:18:21.326552,0.9999897480010986,-0.002165618585422635,-0.0036325312685221434,0.001616525580175221,-0.28369140625,0.8671875,0.40576171875
