Timestamp,w,x,y,z,ax,ay,az
2023-08-01T16:27:36.288951,0.35307973623275757,-0.355911523103714,-0.09300041943788528,0.8602398633956909,-0.23095703125,0.93017578125,0.27392578125
2023-08-01T16:27:36.303136,0.35307973623275757,-0.355911523103714,-0.09300041943788528,0.8602398633956909,-0.22802734375,0.93017578125,0.27294921875
2023-08-01T16:27:36.304135,1.0,0.0,-0.00013853739073965698,9.588019020156935e-05,-0.22802734375,0.93017578125,0.27294921875
2023-08-01T16:27:36.363104,1.0,0.0,-0.00013853739073965698,9.588019020156935e-05,-0.232421875,0.9150390625,0.267578125
2023-08-01T16:27:36.364102,1.0,-4.652627616508198e-09,-0.00021315680351108313,0.0001811073743738234,-0.232421875,0.9150390625,0.267578125
2023-08-01T16:27:36.371100,1.0,-4.652627616508198e-09,-0.00021315680351108313,0.0001811073743738234,-0.2353515625,0.92138671875,0.2685546875
2023-08-01T16:27:36.372099,0.9999998807907104,-8.97185792325672e-09,-0.00031321390997618437,0.00028638343792408705,-0.2353515625,0.92138671875,0.2685546875
2023-08-01T16:27:36.378093,0.9999998807907104,-8.97185792325672e-09,-0.00031321390997618437,0.00028638343792408705,-0.2333984375,0.9150390625,0.2666015625
2023-08-01T16:27:36.380098,0.9999997615814209,-1.8660704981243725e-08,-0.000429061969043687,0.000423241377575323,-0.2333984375,0.9150390625,0.2666015625
2023-08-01T16:27:36.393592,0.9999997615814209,-1.8660704981243725e-08,-0.000429061969043687,0.000423241377575323,-0.22705078125,0.90966796875,0.26708984375
2023-08-01T16:27:36.394587,0.9999996423721313,-1.724123421809054e-08,-0.0005764918751083314,0.0005653629777953029,-0.22705078125,0.90966796875,0.26708984375
2023-08-01T16:27:36.400591,0.9999996423721313,-1.724123421809054e-08,-0.0005764918751083314,0.0005653629777953029,-0.23095703125,0.9072265625,0.26171875
2023-08-01T16:27:36.401589,0.9999995231628418,-3.921130087292113e-10,-0.0007203557179309428,0.0006772226188331842,-0.23095703125,0.9072265625,0.26171875
2023-08-01T16:27:36.408588,0.9999995231628418,-3.921130087292113e-10,-0.0007203557179309428,0.0006772226188331842,-0.2294921875,0.91064453125,0.2626953125
2023-08-01T16:27:36.409588,0.9999993443489075,4.90212173076543e-08,-0.0008941037813201547,0.00077197136124596,-0.2294921875,0.91064453125,0.2626953125
2023-08-01T16:27:36.423196,0.9999993443489075,4.90212173076543e-08,-0.0008941037813201547,0.00077197136124596,-0.22265625,0.91455078125,0.25830078125
2023-08-01T16:27:36.424194,0.9999991059303284,1.5227067251544213e-07,-0.0011018854565918446,0.0008358925115317106,-0.22265625,0.91455078125,0.25830078125
2023-08-01T16:27:36.430292,0.9999991059303284,1.5227067251544213e-07,-0.0011018854565918446,0.0008358925115317106,-0.21923828125,0.919921875,0.25830078125
2023-08-01T16:27:36.431289,0.9999988675117493,3.164077497785911e-07,-0.0012982466723769903,0.0008358924533240497,-0.21923828125,0.919921875,0.25830078125
2023-08-01T16:27:36.444404,0.9999988675117493,3.164077497785911e-07,-0.0012982466723769903,0.0008358924533240497,-0.2158203125,0.92236328125,0.259765625
2023-08-01T16:27:36.445401,0.9999985098838806,-7.320090662688017e-05,-0.001498374156653881,0.0008357966435141861,-0.2158203125,0.92236328125,0.259765625
2023-08-01T16:27:36.453399,0.9999985098838806,-7.320090662688017e-05,-0.001498374156653881,0.0008357966435141861,-0.21630859375,0.921875,0.25732421875
2023-08-01T16:27:36.454397,0.9999982118606567,-0.00017828683485276997,-0.0017143192235380411,0.0008356546750292182,-0.21630859375,0.921875,0.25732421875
2023-08-01T16:27:36.460464,0.9999982118606567,-0.00017828683485276997,-0.0017143192235380411,0.0008356546750292182,-0.22021484375,0.9150390625,0.2568359375
2023-08-01T16:27:36.461461,0.9999977350234985,-0.000335869612172246,-0.0019461119081825018,0.0007617374649271369,-0.22021484375,0.9150390625,0.2568359375
2023-08-01T16:27:36.467961,0.9999977350234985,-0.000335869612172246,-0.0019461119081825018,0.0007617374649271369,-0.22119140625,0.90966796875,0.2646484375
2023-08-01T16:27:36.468990,0.9999973773956299,-0.0004723827005364001,-0.0021305247209966183,0.0006615272141061723,-0.22119140625,0.90966796875,0.2646484375
2023-08-01T16:27:36.475972,0.9999973773956299,-0.0004723827005364001,-0.0021305247209966183,0.0006615272141061723,-0.22119140625,0.91455078125,0.2666015625
2023-08-01T16:27:36.483136,0.9999970197677612,-0.0005891369073651731,-0.0023224696051329374,0.0005228828522376716,-0.22119140625,0.91455078125,0.2666015625
2023-08-01T16:27:36.498175,0.9999970197677612,-0.0005891369073651731,-0.0023224696051329374,0.0005228828522376716,-0.22412109375,0.919921875,0.27001953125
2023-08-01T16:27:36.498175,0.9999963045120239,-0.0007360565359704196,-0.0025858564767986536,0.00038584443973377347,-0.22412109375,0.919921875,0.27001953125
2023-08-01T16:27:36.499246,0.9999963045120239,-0.0007360565359704196,-0.0025858564767986536,0.00038584443973377347,-0.22802734375,0.92431640625,0.27685546875
2023-08-01T16:27:36.506229,0.9999953508377075,-0.0008565221796743572,-0.0029545326251536608,0.00021210619888734072,-0.22802734375,0.92431640625,0.27685546875
2023-08-01T16:27:36.506229,0.9999953508377075,-0.0008565221796743572,-0.0029545326251536608,0.00021210619888734072,-0.22705078125,0.9287109375,0.2763671875
2023-08-01T16:27:36.509235,0.9999940395355225,-0.0009666014229878783,-0.0033179016318172216,8.576706022722647e-05,-0.22705078125,0.9287109375,0.2763671875
2023-08-01T16:27:36.521040,0.9999940395355225,-0.0009666014229878783,-0.0033179016318172216,8.576706022722647e-05,-0.22119140625,0.92919921875,0.2744140625
2023-08-01T16:27:36.522037,0.9999926686286926,-0.0010766788618639112,-0.003702324815094471,-4.055172757944092e-05,-0.22119140625,0.92919921875,0.2744140625
2023-08-01T16:27:36.528100,0.9999926686286926,-0.0010766788618639112,-0.003702324815094471,-4.055172757944092e-05,-0.2109375,0.9287109375,0.28125
2023-08-01T16:27:36.529235,0.9999911189079285,-0.0011973000364378095,-0.004023577086627483,-0.0001617138768779114,-0.2109375,0.9287109375,0.28125
2023-08-01T16:27:36.535229,0.9999911189079285,-0.0011973000364378095,-0.004023577086627483,-0.0001617138768779114,-0.21240234375,0.92138671875,0.27392578125
2023-08-01T16:27:36.536227,0.9999897480010986,-0.001275768387131393,-0.004334322176873684,-0.0002932464121840894,-0.21240234375,0.92138671875,0.27392578125
2023-08-01T16:27:36.550210,0.9999897480010986,-0.001275768387131393,-0.004334322176873684,-0.0002932464121840894,-0.2578125,0.92236328125,0.27197265625
2023-08-01T16:27:36.551207,0.9999889731407166,-0.0012754275230690837,-0.004510258790105581,-0.00038356840377673507,-0.2578125,0.92236328125,0.27197265625
2023-08-01T16:27:36.558224,0.9999889731407166,-0.0012754275230690837,-0.004510258790105581,-0.00038356840377673507,-0.28125,0.923828125,0.27490234375
2023-08-01T16:27:36.558224,0.9999882578849792,-0.0012754880590364337,-0.004668214358389378,-0.00038336694706231356,-0.28125,0.923828125,0.27490234375
2023-08-01T16:27:36.566309,0.9999882578849792,-0.0012754880590364337,-0.004668214358389378,-0.00038336694706231356,-0.2607421875,0.92822265625,0.28857421875
2023-08-01T16:27:36.566309,0.9999864101409912,-0.0012760692043229938,-0.005031326785683632,-0.0002881558903027326,-0.2607421875,0.92822265625,0.28857421875
2023-08-01T16:27:36.592379,0.9999864101409912,-0.0012760692043229938,-0.005031326785683632,-0.0002881558903027326,-0.25,0.931640625,0.2880859375
2023-08-01T16:27:36.592379,0.9999837875366211,-0.0012766150757670403,-0.005547104403376579,-0.00020854079048149288,-0.25,0.931640625,0.2880859375
2023-08-01T16:27:36.593376,0.9999837875366211,-0.0012766150757670403,-0.005547104403376579,-0.00020854079048149288,-0.228515625,0.92333984375,0.298828125
2023-08-01T16:27:36.596879,0.9999799728393555,-0.001166883623227477,-0.0062102279625833035,-8.601579611422494e-05,-0.228515625,0.92333984375,0.298828125
2023-08-01T16:27:36.598385,0.9999799728393555,-0.001166883623227477,-0.0062102279625833035,-8.601579611422494e-05,-0.20947265625,0.9228515625,0.298828125
2023-08-01T16:27:36.599386,0.9999755620956421,-0.000999092822894454,-0.006915492471307516,1.06002744360012e-05,-0.20947265625,0.9228515625,0.298828125
2023-08-01T16:27:36.613376,0.9999755620956421,-0.000999092822894454,-0.006915492471307516,1.06002744360012e-05,-0.20947265625,0.92236328125,0.28857421875
2023-08-01T16:27:36.619386,0.9999693036079407,-0.0008523536962457001,-0.007789185270667076,0.00010723901505116373,-0.20947265625,0.92236328125,0.28857421875
2023-08-01T16:27:36.621380,0.9999693036079407,-0.0008523536962457001,-0.007789185270667076,0.00010723901505116373,-0.2138671875,0.923828125,0.29345703125
2023-08-01T16:27:36.622378,0.9999615550041199,-0.0007261977880261838,-0.008731781505048275,0.0003380738489795476,-0.2138671875,0.923828125,0.29345703125
2023-08-01T16:27:36.634375,0.9999615550041199,-0.0007261977880261838,-0.008731781505048275,0.0003380738489795476,-0.2099609375,0.9208984375,0.2890625
2023-08-01T16:27:36.635372,0.9999547004699707,-0.0006017742562107742,-0.009484275244176388,0.0005871083121746778,-0.2099609375,0.9208984375,0.2890625
2023-08-01T16:27:36.642383,0.9999547004699707,-0.0006017742562107742,-0.009484275244176388,0.0005871083121746778,-0.19677734375,0.92041015625,0.28125
2023-08-01T16:27:36.643380,0.9999477863311768,-0.0004764358454849571,-0.010178927332162857,0.0007361029856838286,-0.19677734375,0.92041015625,0.28125
2023-08-01T16:27:36.648387,0.9999477863311768,-0.0004764358454849571,-0.010178927332162857,0.0007361029856838286,-0.208984375,0.91796875,0.28076171875
2023-08-01T16:27:36.649388,0.9999391436576843,-0.0003193207667209208,-0.010994612239301205,0.0008749496773816645,-0.208984375,0.91796875,0.28076171875
2023-08-01T16:27:36.655372,0.9999391436576843,-0.0003193207667209208,-0.010994612239301205,0.0008749496773816645,-0.2109375,0.91845703125,0.27099609375
2023-08-01T16:27:36.659387,0.9999263286590576,-0.00021598800958599895,-0.012083983980119228,0.0011396239278838038,-0.2109375,0.91845703125,0.27099609375
2023-08-01T16:27:36.670382,0.9999263286590576,-0.00021598800958599895,-0.012083983980119228,0.0011396239278838038,-0.20947265625,0.91845703125,0.2802734375
2023-08-01T16:27:36.679382,0.9999083876609802,-0.0002195921988459304,-0.013441845774650574,0.0015662426594644785,-0.20947265625,0.91845703125,0.2802734375
2023-08-01T16:27:36.680378,0.9999083876609802,-0.0002195921988459304,-0.013441845774650574,0.0015662426594644785,-0.1904296875,0.9150390625,0.291015625
2023-08-01T16:27:36.719322,0.9998892545700073,-0.00016934218001551926,-0.01476277969777584,0.0018988210940733552,-0.1904296875,0.9150390625,0.291015625
2023-08-01T16:27:36.720328,0.9998892545700073,-0.00016934218001551926,-0.01476277969777584,0.0018988210940733552,-0.17529296875,0.9150390625,0.2890625
2023-08-01T16:27:36.721326,0.9998705387115479,-0.00016918947221711278,-0.015961121767759323,0.00204282533377409,-0.17529296875,0.9150390625,0.2890625
2023-08-01T16:27:36.722323,0.9998705387115479,-0.00016918947221711278,-0.015961121767759323,0.00204282533377409,-0.19384765625,0.90673828125,0.29296875
2023-08-01T16:27:36.723322,0.9998555779457092,-0.00016819075972307473,-0.016861120238900185,0.002095609437674284,-0.19384765625,0.90673828125,0.29296875
2023-08-01T16:27:36.723322,0.9998555779457092,-0.00016819075972307473,-0.016861120238900185,0.002095609437674284,-0.20654296875,0.90576171875,0.2587890625
2023-08-01T16:27:36.725317,0.9998394250869751,-0.0001662271679379046,-0.017797956243157387,0.0020957663655281067,-0.20654296875,0.90576171875,0.2587890625
2023-08-01T16:27:36.725317,0.9998394250869751,-0.0001662271679379046,-0.017797956243157387,0.0020957663655281067,-0.19775390625,0.9150390625,0.2314453125
2023-08-01T16:27:36.726824,0.9998162388801575,-0.00025599991204217076,-0.01903490535914898,0.0022575275506824255,-0.19775390625,0.9150390625,0.2314453125
2023-08-01T16:27:36.732840,0.9998162388801575,-0.00025599991204217076,-0.01903490535914898,0.0022575275506824255,-0.20751953125,0.91650390625,0.22998046875
2023-08-01T16:27:36.732840,0.9997879266738892,-0.00035273341927677393,-0.020441031083464622,0.0024690839927643538,-0.20751953125,0.91650390625,0.22998046875
2023-08-01T16:27:36.741344,0.9997879266738892,-0.00035273341927677393,-0.020441031083464622,0.0024690839927643538,-0.22900390625,0.916015625,0.23974609375
2023-08-01T16:27:36.742341,0.9997573494911194,-0.0004718171840067953,-0.02186167798936367,0.002653099363669753,-0.22900390625,0.916015625,0.23974609375
2023-08-01T16:27:36.750933,0.9997573494911194,-0.0004718171840067953,-0.02186167798936367,0.002653099363669753,-0.22705078125,0.90576171875,0.2578125
2023-08-01T16:27:36.757983,0.9997233748435974,-0.0006285046110861003,-0.02334604784846306,0.0027766444254666567,-0.22705078125,0.90576171875,0.2578125
2023-08-01T16:27:36.774453,0.9997233748435974,-0.0006285046110861003,-0.02334604784846306,0.0027766444254666567,-0.2138671875,0.89501953125,0.2734375
2023-08-01T16:27:36.775449,0.9996876120567322,-0.0007575111812911928,-0.024826793000102043,0.0027744632679969072,-0.2138671875,0.89501953125,0.2734375
2023-08-01T16:27:36.776957,0.9996876120567322,-0.0007575111812911928,-0.024826793000102043,0.0027744632679969072,-0.220703125,0.88916015625,0.28125
2023-08-01T16:27:36.777957,0.9996533393859863,-0.000840329856146127,-0.026179486885666847,0.0026575031224638224,-0.220703125,0.88916015625,0.28125
2023-08-01T16:27:36.780275,0.9996533393859863,-0.000840329856146127,-0.026179486885666847,0.0026575031224638224,-0.2275390625,0.89990234375,0.271484375
2023-08-01T16:27:36.781271,0.9996190071105957,-0.000895889475941658,-0.02747422270476818,0.002499084686860442,-0.2275390625,0.89990234375,0.271484375
2023-08-01T16:27:36.783266,0.9996190071105957,-0.000895889475941658,-0.02747422270476818,0.002499084686860442,-0.21630859375,0.9150390625,0.26220703125
2023-08-01T16:27:36.798821,0.9995852112770081,-0.0010010504629462957,-0.028679516166448593,0.002412942936643958,-0.21630859375,0.9150390625,0.26220703125
2023-08-01T16:27:36.804807,0.9995852112770081,-0.0010010504629462957,-0.028679516166448593,0.002412942936643958,-0.19873046875,0.92724609375,0.26611328125
2023-08-01T16:27:36.805805,0.9995564222335815,-0.0010965102119371295,-0.02966902032494545,0.002337407087907195,-0.19873046875,0.92724609375,0.26611328125
2023-08-01T16:27:36.807810,0.9995564222335815,-0.0010965102119371295,-0.02966902032494545,0.002337407087907195,-0.1953125,0.9296875,0.267578125
2023-08-01T16:27:36.810299,0.9995359182357788,-0.0010878460016101599,-0.030369071289896965,0.0021014183294028044,-0.1953125,0.9296875,0.267578125
2023-08-01T16:27:36.824286,0.9995359182357788,-0.0010878460016101599,-0.030369071289896965,0.0021014183294028044,-0.21337890625,0.92041015625,0.2763671875
2023-08-01T16:27:36.825283,0.9995212554931641,-0.001149735413491726,-0.030869467183947563,0.0017472271574661136,-0.21337890625,0.92041015625,0.2763671875
2023-08-01T16:27:36.839046,0.9995212554931641,-0.001149735413491726,-0.030869467183947563,0.0017472271574661136,-0.228515625,0.91552734375,0.2841796875
2023-08-01T16:27:36.839046,0.9995085000991821,-0.0011374808382242918,-0.03129585087299347,0.0013750437647104263,-0.228515625,0.91552734375,0.2841796875
2023-08-01T16:27:36.840047,0.9995085000991821,-0.0011374808382242918,-0.03129585087299347,0.0013750437647104263,-0.2109375,0.919921875,0.28662109375
2023-08-01T16:27:36.903915,0.9994969964027405,-0.0010075230384245515,-0.03168555349111557,0.0009424465242773294,-0.2109375,0.919921875,0.28662109375
2023-08-01T16:27:36.909169,0.9994969964027405,-0.0010075230384245515,-0.03168555349111557,0.0009424465242773294,-0.20068359375,0.9248046875,0.279296875
2023-08-01T16:27:36.910317,0.9994861483573914,-0.000829249678645283,-0.03203840181231499,0.0004797466390300542,-0.20068359375,0.9248046875,0.279296875
2023-08-01T16:27:36.910317,0.9994861483573914,-0.000829249678645283,-0.03203840181231499,0.0004797466390300542,-0.205078125,0.93212890625,0.2880859375
2023-08-01T16:27:36.913321,0.9994843006134033,-0.0005038062226958573,-0.03210707753896713,2.153287459805142e-05,-0.205078125,0.93212890625,0.2880859375
2023-08-01T16:27:36.915303,0.9994843006134033,-0.0005038062226958573,-0.03210707753896713,2.153287459805142e-05,-0.21533203125,0.939453125,0.29345703125
2023-08-01T16:27:36.915303,0.9994878172874451,-0.0001515547337476164,-0.031996872276067734,-0.00045170882367528975,-0.21533203125,0.939453125,0.29345703125
2023-08-01T16:27:36.916819,0.9994878172874451,-0.0001515547337476164,-0.031996872276067734,-0.00045170882367528975,-0.236328125,0.93896484375,0.29345703125
2023-08-01T16:27:36.919327,0.9994956254959106,0.00017597440455574542,-0.03173935040831566,-0.0009731632890179753,-0.236328125,0.93896484375,0.29345703125
2023-08-01T16:27:36.921322,0.9994956254959106,0.00017597440455574542,-0.03173935040831566,-0.0009731632890179753,-0.2431640625,0.9326171875,0.2841796875
2023-08-01T16:27:36.922317,0.9995028376579285,0.00047501648077741265,-0.03149232268333435,-0.0014270618557929993,-0.2431640625,0.9326171875,0.2841796875
2023-08-01T16:27:36.923320,0.9995028376579285,0.00047501648077741265,-0.03149232268333435,-0.0014270618557929993,-0.23388671875,0.92822265625,0.2744140625
2023-08-01T16:27:36.924333,0.9995056986808777,0.0006780798430554569,-0.03138067200779915,-0.0017776645254343748,-0.23388671875,0.92822265625,0.2744140625
2023-08-01T16:27:36.925311,0.9995056986808777,0.0006780798430554569,-0.03138067200779915,-0.0017776645254343748,-0.2333984375,0.9248046875,0.265625
2023-08-01T16:27:36.925311,0.9994997978210449,0.0008545639575459063,-0.03154918923974037,-0.0020408029668033123,-0.2333984375,0.9248046875,0.265625
2023-08-01T16:27:36.925311,0.9994997978210449,0.0008545639575459063,-0.03154918923974037,-0.0020408029668033123,-0.25390625,0.92138671875,0.2646484375
2023-08-01T16:27:36.926819,0.9994874000549316,0.000949554902035743,-0.031922776252031326,-0.002238214248791337,-0.25390625,0.92138671875,0.2646484375
2023-08-01T16:27:36.928819,0.9994874000549316,0.000949554902035743,-0.031922776252031326,-0.002238214248791337,-0.2548828125,0.92529296875,0.26904296875
2023-08-01T16:27:36.931109,0.999471127986908,0.0009533200645819306,-0.03241720423102379,-0.002391248242929578,-0.2548828125,0.92529296875,0.26904296875
2023-08-01T16:27:36.937092,0.999471127986908,0.0009533200645819306,-0.03241720423102379,-0.002391248242929578,-0.21630859375,0.9267578125,0.28271484375
2023-08-01T16:27:36.939243,0.9994516968727112,0.0010412342380732298,-0.03299599140882492,-0.002546891802921891,-0.21630859375,0.9267578125,0.28271484375
2023-08-01T16:27:37.007755,0.9994516968727112,0.0010412342380732298,-0.03299599140882492,-0.002546891802921891,-0.18359375,0.9287109375,0.294921875
2023-08-01T16:27:37.008760,0.9994284510612488,0.0011041526449844241,-0.03367460519075394,-0.002750854007899761,-0.18359375,0.9287109375,0.294921875
2023-08-01T16:27:37.009760,0.9994284510612488,0.0011041526449844241,-0.03367460519075394,-0.002750854007899761,-0.19189453125,0.9296875,0.29150390625
2023-08-01T16:27:37.011754,0.9994103908538818,0.0011125110322609544,-0.03417934477329254,-0.0030407432932406664,-0.19189453125,0.9296875,0.29150390625
2023-08-01T16:27:37.011754,0.9994103908538818,0.0011125110322609544,-0.03417934477329254,-0.0030407432932406664,-0.20166015625,0.9248046875,0.2724609375
2023-08-01T16:27:37.015744,0.9993958473205566,0.0011211270466446877,-0.03457832336425781,-0.003328645834699273,-0.20166015625,0.9248046875,0.2724609375
2023-08-01T16:27:37.017251,0.9993958473205566,0.0011211270466446877,-0.03457832336425781,-0.003328645834699273,-0.197265625,0.91943359375,0.27099609375
2023-08-01T16:27:37.017763,0.9993808269500732,0.0011291723931208253,-0.03498263284564018,-0.003600583178922534,-0.197265625,0.91943359375,0.27099609375
2023-08-01T16:27:37.018771,0.9993808269500732,0.0011291723931208253,-0.03498263284564018,-0.003600583178922534,-0.19140625,0.91064453125,0.27001953125
2023-08-01T16:27:37.019321,0.9993675351142883,0.001041221315972507,-0.03532787412405014,-0.003929671365767717,-0.19140625,0.91064453125,0.27001953125
2023-08-01T16:27:37.020329,0.9993675351142883,0.001041221315972507,-0.03532787412405014,-0.003929671365767717,-0.21435546875,0.904296875,0.263671875
2023-08-01T16:27:37.025316,0.999353289604187,0.0009305276907980442,-0.035690054297447205,-0.004265721887350082,-0.21435546875,0.904296875,0.263671875
2023-08-01T16:27:37.026823,0.999353289604187,0.0009305276907980442,-0.035690054297447205,-0.004265721887350082,-0.2275390625,0.91845703125,0.25537109375
2023-08-01T16:27:37.044332,0.9993379712104797,0.0007843465427868068,-0.03608841449022293,-0.004548402037471533,-0.2275390625,0.91845703125,0.25537109375
2023-08-01T16:27:37.044332,0.9993379712104797,0.0007843465427868068,-0.03608841449022293,-0.004548402037471533,-0.216796875,0.9296875,0.259765625
2023-08-01T16:27:37.045329,0.9993113875389099,0.0006239654612727463,-0.036789651960134506,-0.004776912275701761,-0.216796875,0.9296875,0.259765625
2023-08-01T16:27:37.046839,0.9993113875389099,0.0006239654612727463,-0.036789651960134506,-0.004776912275701761,-0.21240234375,0.93505859375,0.28076171875
2023-08-01T16:27:37.051340,0.9992740750312805,0.0004184326680842787,-0.037756357342004776,-0.005042997654527426,-0.21240234375,0.93505859375,0.28076171875
2023-08-01T16:27:37.052337,0.9992740750312805,0.0004184326680842787,-0.037756357342004776,-0.005042997654527426,-0.2001953125,0.93701171875,0.3017578125
2023-08-01T16:27:37.059337,0.9992228746414185,0.00019859045278280973,-0.03905384987592697,-0.00532343378290534,-0.2001953125,0.93701171875,0.3017578125
2023-08-01T16:27:37.060334,0.9992228746414185,0.00019859045278280973,-0.03905384987592697,-0.00532343378290534,-0.17578125,0.935546875,0.31884765625
2023-08-01T16:27:37.066826,0.9991633296012878,-4.212418934912421e-05,-0.04049883782863617,-0.005696281790733337,-0.17578125,0.935546875,0.31884765625
2023-08-01T16:27:37.068331,0.9991633296012878,-4.212418934912421e-05,-0.04049883782863617,-0.005696281790733337,-0.16748046875,0.93212890625,0.318359375
2023-08-01T16:27:37.069331,0.9991042017936707,-0.00031605930416844785,-0.04184883460402489,-0.006275936961174011,-0.16748046875,0.93212890625,0.318359375
2023-08-01T16:27:37.069331,0.9991042017936707,-0.00031605930416844785,-0.04184883460402489,-0.006275936961174011,-0.18701171875,0.91552734375,0.31982421875
2023-08-01T16:27:37.082313,0.9990458488464355,-0.0005079710390418768,-0.043120376765728,-0.006915406323969364,-0.18701171875,0.91552734375,0.31982421875
2023-08-01T16:27:37.083310,0.9990458488464355,-0.0005079710390418768,-0.043120376765728,-0.006915406323969364,-0.2197265625,0.91357421875,0.29833984375
2023-08-01T16:27:37.084308,0.998988926410675,-0.0006954754353500903,-0.04431823641061783,-0.007523121777921915,-0.2197265625,0.91357421875,0.29833984375
2023-08-01T16:27:37.084308,0.998988926410675,-0.0006954754353500903,-0.04431823641061783,-0.007523121777921915,-0.2333984375,0.927734375,0.2568359375
2023-08-01T16:27:37.085306,0.9989231824874878,-0.0009981617331504822,-0.045699119567871094,-0.007940799929201603,-0.2333984375,0.927734375,0.2568359375
2023-08-01T16:27:37.094837,0.9989231824874878,-0.0009981617331504822,-0.045699119567871094,-0.007940799929201603,-0.2392578125,0.9482421875,0.23974609375
2023-08-01T16:27:37.096832,0.9988431930541992,-0.0013858963502570987,-0.047368284314870834,-0.00816173292696476,-0.2392578125,0.9482421875,0.23974609375
2023-08-01T16:27:37.106833,0.9988431930541992,-0.0013858963502570987,-0.047368284314870834,-0.00816173292696476,-0.255859375,0.95849609375,0.259765625
2023-08-01T16:27:37.106833,0.9987552762031555,-0.0018481813604012132,-0.04915231838822365,-0.008276447653770447,-0.255859375,0.95849609375,0.259765625
2023-08-01T16:27:37.113868,0.9987552762031555,-0.0018481813604012132,-0.04915231838822365,-0.008276447653770447,-0.25048828125,0.9541015625,0.28955078125
2023-08-01T16:27:37.114865,0.9986714720726013,-0.0022840104065835476,-0.05079437047243118,-0.008367941714823246,-0.25048828125,0.9541015625,0.28955078125
2023-08-01T16:27:37.120407,0.9986714720726013,-0.0022840104065835476,-0.05079437047243118,-0.008367941714823246,-0.22119140625,0.94677734375,0.3125
2023-08-01T16:27:37.121404,0.998598039150238,-0.002670454327017069,-0.05216878652572632,-0.008557765744626522,-0.22119140625,0.94677734375,0.3125
2023-08-01T16:27:37.149397,0.998598039150238,-0.002670454327017069,-0.05216878652572632,-0.008557765744626522,-0.20361328125,0.94091796875,0.33251953125
2023-08-01T16:27:37.150397,0.9985394477844238,-0.0029295042622834444,-0.05323926731944084,-0.008715519681572914,-0.20361328125,0.94091796875,0.33251953125
2023-08-01T16:27:37.151394,0.9985394477844238,-0.0029295042622834444,-0.05323926731944084,-0.008715519681572914,-0.20703125,0.9345703125,0.349609375
2023-08-01T16:27:37.151394,0.9984992146492004,-0.0030476560350507498,-0.05395354703068733,-0.008888051845133305,-0.20703125,0.9345703125,0.349609375
2023-08-01T16:27:37.170090,0.9984992146492004,-0.0030476560350507498,-0.05395354703068733,-0.008888051845133305,-0.2265625,0.9287109375,0.3486328125
2023-08-01T16:27:37.170090,0.9984752535820007,-0.003037580056115985,-0.05435379594564438,-0.0091391047462821,-0.2265625,0.9287109375,0.3486328125
2023-08-01T16:27:37.171086,0.9984752535820007,-0.003037580056115985,-0.05435379594564438,-0.0091391047462821,-0.2666015625,0.9228515625,0.32763671875
2023-08-01T16:27:37.172083,0.9984628558158875,-0.0030249592382460833,-0.05453859269618988,-0.009401322342455387,-0.2666015625,0.9228515625,0.32763671875
2023-08-01T16:27:37.173083,0.9984628558158875,-0.0030249592382460833,-0.05453859269618988,-0.009401322342455387,-0.27587890625,0.9267578125,0.296875
2023-08-01T16:27:37.190886,0.9984488487243652,-0.002909762319177389,-0.054784659296274185,-0.009500842541456223,-0.27587890625,0.9267578125,0.296875
2023-08-01T16:27:37.192883,0.9984488487243652,-0.002909762319177389,-0.054784659296274185,-0.009500842541456223,-0.2626953125,0.931640625,0.2822265625
2023-08-01T16:27:37.193879,0.9984322190284729,-0.0028285691514611244,-0.055090319365262985,-0.00949533935636282,-0.2626953125,0.931640625,0.2822265625
2023-08-01T16:27:37.195873,0.9984322190284729,-0.0028285691514611244,-0.055090319365262985,-0.00949533935636282,-0.2626953125,0.9345703125,0.27734375
2023-08-01T16:27:37.195873,0.9984224438667297,-0.002704183105379343,-0.055275507271289825,-0.009487858042120934,-0.2626953125,0.9345703125,0.27734375
2023-08-01T16:27:37.203874,0.9984224438667297,-0.002704183105379343,-0.055275507271289825,-0.009487858042120934,-0.2626953125,0.931640625,0.27734375
2023-08-01T16:27:37.203874,0.9984140396118164,-0.002558525651693344,-0.05543460324406624,-0.009479282423853874,-0.2626953125,0.931640625,0.27734375
2023-08-01T16:27:37.210850,0.9984140396118164,-0.002558525651693344,-0.05543460324406624,-0.009479282423853874,-0.25830078125,0.92919921875,0.28515625
2023-08-01T16:27:37.211847,0.998405396938324,-0.002402407582849264,-0.055599063634872437,-0.009470110759139061,-0.25830078125,0.92919921875,0.28515625
2023-08-01T16:27:37.225993,0.998405396938324,-0.002402407582849264,-0.055599063634872437,-0.009470110759139061,-0.2412109375,0.927734375,0.3076171875
2023-08-01T16:27:37.227492,0.9983935356140137,-0.002231071935966611,-0.05582147836685181,-0.009459922090172768,-0.2412109375,0.927734375,0.3076171875
2023-08-01T16:27:37.238150,0.9983935356140137,-0.002231071935966611,-0.05582147836685181,-0.009459922090172768,-0.2236328125,0.931640625,0.31640625
2023-08-01T16:27:37.239214,0.9983811974525452,-0.0020597856491804123,-0.05604913458228111,-0.009449719451367855,-0.2236328125,0.931640625,0.31640625
2023-08-01T16:27:37.241210,0.9983811974525452,-0.0020597856491804123,-0.05604913458228111,-0.009449719451367855,-0.2373046875,0.93359375,0.31005859375
2023-08-01T16:27:37.241210,0.9983780384063721,-0.001942651579156518,-0.05612462759017944,-0.00936292763799429,-0.2373046875,0.93359375,0.31005859375
2023-08-01T16:27:37.285774,0.9983780384063721,-0.001942651579156518,-0.05612462759017944,-0.00936292763799429,-0.2529296875,0.93505859375,0.29931640625
2023-08-01T16:27:37.286770,0.9983800649642944,-0.0018324131378903985,-0.05612539127469063,-0.009166945703327656,-0.2529296875,0.93505859375,0.29931640625
2023-08-01T16:27:37.286770,0.9983800649642944,-0.0018324131378903985,-0.05612539127469063,-0.009166945703327656,-0.25048828125,0.93896484375,0.2900390625
2023-08-01T16:27:37.307850,0.9983735680580139,-0.0018510440131649375,-0.05628778040409088,-0.0088618453592062,-0.25048828125,0.93896484375,0.2900390625
2023-08-01T16:27:37.308975,0.9983735680580139,-0.0018510440131649375,-0.05628778040409088,-0.0088618453592062,-0.240234375,0.939453125,0.28369140625
2023-08-01T16:27:37.327148,0.9983532428741455,-0.0019904349464923143,-0.056696031242609024,-0.008510253392159939,-0.240234375,0.939453125,0.28369140625
2023-08-01T16:27:37.328188,0.9983532428741455,-0.0019904349464923143,-0.056696031242609024,-0.008510253392159939,-0.23193359375,0.93798828125,0.27294921875
2023-08-01T16:27:37.329394,0.9983282089233398,-0.0022140040528029203,-0.05718282610177994,-0.008121617138385773,-0.23193359375,0.93798828125,0.27294921875
2023-08-01T16:27:37.329394,0.9983282089233398,-0.0022140040528029203,-0.05718282610177994,-0.008121617138385773,-0.21337890625,0.9345703125,0.26953125
2023-08-01T16:27:37.330394,0.9983012676239014,-0.002455395646393299,-0.05770105496048927,-0.007683862932026386,-0.21337890625,0.9345703125,0.26953125
2023-08-01T16:27:37.330394,0.9983012676239014,-0.002455395646393299,-0.05770105496048927,-0.007683862932026386,-0.19482421875,0.9267578125,0.27880859375
2023-08-01T16:27:37.332389,0.998283863067627,-0.002672132570296526,-0.05804538354277611,-0.007263052277266979,-0.19482421875,0.9267578125,0.27880859375
2023-08-01T16:27:37.333386,0.998283863067627,-0.002672132570296526,-0.05804538354277611,-0.007263052277266979,-0.18408203125,0.92431640625,0.30712890625
2023-08-01T16:27:37.334383,0.9982782006263733,-0.0027651761192828417,-0.058187443763017654,-0.006873199250549078,-0.18408203125,0.92431640625,0.30712890625
2023-08-01T16:27:37.335380,0.9982782006263733,-0.0027651761192828417,-0.058187443763017654,-0.006873199250549078,-0.16796875,0.92236328125,0.3232421875
2023-08-01T16:27:37.335380,0.9982732534408569,-0.0027837727684527636,-0.058307502418756485,-0.006568095646798611,-0.16796875,0.92236328125,0.3232421875
2023-08-01T16:27:37.364301,0.9982732534408569,-0.0027837727684527636,-0.058307502418756485,-0.006568095646798611,-0.181640625,0.92724609375,0.31494140625
2023-08-01T16:27:37.364301,0.9982643127441406,-0.0028926546219736338,-0.05846940726041794,-0.006436850409954786,-0.181640625,0.92724609375,0.31494140625
2023-08-01T16:27:37.392446,0.9982643127441406,-0.0028926546219736338,-0.05846940726041794,-0.006436850409954786,-0.21826171875,0.9248046875,0.30859375
2023-08-01T16:27:37.392446,0.9982683658599854,-0.0029012414161115885,-0.058416467159986496,-0.006284618750214577,-0.21826171875,0.9248046875,0.30859375
2023-08-01T16:27:37.393443,0.9982683658599854,-0.0029012414161115885,-0.058416467159986496,-0.006284618750214577,-0.22412109375,0.92578125,0.30712890625
2023-08-01T16:27:37.394441,0.9982783198356628,-0.0029132298659533262,-0.058268748223781586,-0.0060643525794148445,-0.22412109375,0.92578125,0.30712890625
2023-08-01T16:27:37.394441,0.9982783198356628,-0.0029132298659533262,-0.058268748223781586,-0.0060643525794148445,-0.2158203125,0.92333984375,0.29833984375
2023-08-01T16:27:37.395439,0.9982788562774658,-0.0030219547916203737,-0.05826769024133682,-0.005917792208492756,-0.2158203125,0.92333984375,0.29833984375
2023-08-01T16:27:37.410750,0.9982788562774658,-0.0030219547916203737,-0.05826769024133682,-0.005917792208492756,-0.21142578125,0.91552734375,0.2705078125
2023-08-01T16:27:37.411746,0.9982669949531555,-0.0031733496580272913,-0.05847665295004845,-0.005783558823168278,-0.21142578125,0.91552734375,0.2705078125
2023-08-01T16:27:37.412745,0.9982669949531555,-0.0031733496580272913,-0.05847665295004845,-0.005783558823168278,-0.2119140625,0.90185546875,0.2490234375
2023-08-01T16:27:37.412745,0.9982373714447021,-0.0034162038937211037,-0.0590006485581398,-0.005422442220151424,-0.2119140625,0.90185546875,0.2490234375
2023-08-01T16:27:37.413741,0.9982373714447021,-0.0034162038937211037,-0.0590006485581398,-0.005422442220151424,-0.20751953125,0.89892578125,0.24609375
2023-08-01T16:27:37.413741,0.9982159733772278,-0.003679882502183318,-0.05938150733709335,-0.005009496118873358,-0.20751953125,0.89892578125,0.24609375
2023-08-01T16:27:37.414739,0.9982159733772278,-0.003679882502183318,-0.05938150733709335,-0.005009496118873358,-0.197265625,0.88330078125,0.27880859375
2023-08-01T16:27:37.415737,0.9982172846794128,-0.003761056112125516,-0.05938006564974785,-0.004708496853709221,-0.197265625,0.88330078125,0.27880859375
2023-08-01T16:27:37.415737,0.9982172846794128,-0.003761056112125516,-0.05938006564974785,-0.004708496853709221,-0.197265625,0.87451171875,0.3046875
2023-08-01T16:27:37.417243,0.9982256293296814,-0.0037670007441192865,-0.059248339384794235,-0.004598648753017187,-0.197265625,0.87451171875,0.3046875
2023-08-01T16:27:37.420904,0.9982256293296814,-0.0037670007441192865,-0.059248339384794235,-0.004598648753017187,-0.18603515625,0.87939453125,0.31689453125
2023-08-01T16:27:37.420904,0.99824059009552,-0.0037658391520380974,-0.058996181935071945,-0.004599600099027157,-0.18603515625,0.87939453125,0.31689453125
2023-08-01T16:27:37.427920,0.99824059009552,-0.0037658391520380974,-0.058996181935071945,-0.004599600099027157,-0.1904296875,0.8857421875,0.3125
2023-08-01T16:27:37.427920,0.9982635974884033,-0.0037552793510258198,-0.05859218165278435,-0.004748244769871235,-0.1904296875,0.8857421875,0.3125
2023-08-01T16:27:37.443387,0.9982635974884033,-0.0037552793510258198,-0.05859218165278435,-0.004748244769871235,-0.2216796875,0.880859375,0.3037109375
2023-08-01T16:27:37.443387,0.9982954263687134,-0.0036338274367153645,-0.058045536279678345,-0.004866043571382761,-0.2216796875,0.880859375,0.3037109375
2023-08-01T16:27:37.450391,0.9982954263687134,-0.0036338274367153645,-0.058045536279678345,-0.004866043571382761,-0.2373046875,0.8828125,0.29150390625
2023-08-01T16:27:37.451388,0.9983240365982056,-0.0036277277395129204,-0.05754661560058594,-0.004930912982672453,-0.2373046875,0.8828125,0.29150390625
2023-08-01T16:27:37.457886,0.9983240365982056,-0.0036277277395129204,-0.05754661560058594,-0.004930912982672453,-0.23486328125,0.87841796875,0.283203125
2023-08-01T16:27:37.458911,0.9983491897583008,-0.0036222159396857023,-0.05710546672344208,-0.004990316461771727,-0.23486328125,0.87841796875,0.283203125
2023-08-01T16:27:37.473353,0.9983491897583008,-0.0036222159396857023,-0.05710546672344208,-0.004990316461771727,-0.22900390625,0.87451171875,0.28515625
2023-08-01T16:27:37.474351,0.9983653426170349,-0.0036177653819322586,-0.05681667476892471,-0.005043910816311836,-0.22900390625,0.87451171875,0.28515625
2023-08-01T16:27:37.480359,0.9983653426170349,-0.0036177653819322586,-0.05681667476892471,-0.005043910816311836,-0.22900390625,0.88232421875,0.27490234375
2023-08-01T16:27:37.481358,0.9983689188957214,-0.0036174471024423838,-0.05675366148352623,-0.005044138990342617,-0.22900390625,0.88232421875,0.27490234375
2023-08-01T16:27:37.487853,0.9983689188957214,-0.0036174471024423838,-0.05675366148352623,-0.005044138990342617,-0.224609375,0.890625,0.27294921875
2023-08-01T16:27:37.488942,0.9983689188957214,-0.0036174471024423838,-0.05675366148352623,-0.005044138990342617,-0.224609375,0.890625,0.27294921875
2023-08-01T16:27:37.503263,0.9983689188957214,-0.0036174471024423838,-0.05675366148352623,-0.005044138990342617,-0.2041015625,0.90380859375,0.27099609375
2023-08-01T16:27:37.504259,0.9983769059181213,-0.003664158284664154,-0.05660413205623627,-0.0051198177970945835,-0.2041015625,0.90380859375,0.27099609375
2023-08-01T16:27:37.513387,0.9983769059181213,-0.003664158284664154,-0.05660413205623627,-0.0051198177970945835,-0.1904296875,0.916015625,0.27978515625
2023-08-01T16:27:37.514383,0.9983900785446167,-0.0036529270000755787,-0.05635487660765648,-0.005296220537275076,-0.1904296875,0.916015625,0.27978515625
2023-08-01T16:27:37.522908,0.9983900785446167,-0.0036529270000755787,-0.05635487660765648,-0.005296220537275076,-0.181640625,0.9228515625,0.302734375
2023-08-01T16:27:37.523906,0.9983961582183838,-0.003644870361313224,-0.056234534829854965,-0.005428038537502289,-0.181640625,0.9228515625,0.302734375
2023-08-01T16:27:37.535869,0.9983961582183838,-0.003644870361313224,-0.056234534829854965,-0.005428038537502289,-0.19287109375,0.92919921875,0.31982421875
2023-08-01T16:27:37.536866,0.9984098672866821,-0.0036354789044708014,-0.05597759410738945,-0.005570865701884031,-0.19287109375,0.92919921875,0.31982421875
2023-08-01T16:27:37.540311,0.9984098672866821,-0.0036354789044708014,-0.05597759410738945,-0.005570865701884031,-0.2138671875,0.92041015625,0.314453125
2023-08-01T16:27:37.541309,0.998420774936676,-0.0036254669539630413,-0.055768005549907684,-0.005729286000132561,-0.2138671875,0.92041015625,0.314453125
2023-08-01T16:27:37.547807,0.998420774936676,-0.0036254669539630413,-0.055768005549907684,-0.005729286000132561,-0.21240234375,0.9228515625,0.29931640625
2023-08-01T16:27:37.549357,0.998425304889679,-0.0037188681308180094,-0.055668000131845474,-0.0058403280563652515,-0.21240234375,0.9228515625,0.29931640625
2023-08-01T16:27:37.563129,0.998425304889679,-0.0037188681308180094,-0.055668000131845474,-0.0058403280563652515,-0.2119140625,0.921875,0.29150390625
2023-08-01T16:27:37.564126,0.9984295964241028,-0.0038459175266325474,-0.05557190254330635,-0.005943819414824247,-0.2119140625,0.921875,0.29150390625
2023-08-01T16:27:37.570559,0.9984295964241028,-0.0038459175266325474,-0.05557190254330635,-0.005943819414824247,-0.21142578125,0.92529296875,0.29150390625
2023-08-01T16:27:37.571558,0.9984291195869446,-0.003974862862378359,-0.05557113513350487,-0.005950996186584234,-0.21142578125,0.92529296875,0.29150390625
2023-08-01T16:27:37.578053,0.9984291195869446,-0.003974862862378359,-0.05557113513350487,-0.005950996186584234,-0.20458984375,0.93212890625,0.3076171875
2023-08-01T16:27:37.579077,0.9984254240989685,-0.00408164132386446,-0.05563933402299881,-0.0058606150560081005,-0.20458984375,0.93212890625,0.3076171875
2023-08-01T16:27:37.593644,0.9984254240989685,-0.00408164132386446,-0.05563933402299881,-0.0058606150560081005,-0.19384765625,0.943359375,0.32177734375
2023-08-01T16:27:37.593644,0.9984220862388611,-0.004181873984634876,-0.05570150539278984,-0.005771028809249401,-0.19384765625,0.943359375,0.32177734375
2023-08-01T16:27:37.600157,0.9984220862388611,-0.004181873984634876,-0.05570150539278984,-0.005771028809249401,-0.18212890625,0.9453125,0.322265625
2023-08-01T16:27:37.601154,0.9984167218208313,-0.004261214751750231,-0.05579043924808502,-0.00577505212277174,-0.18212890625,0.9453125,0.322265625
2023-08-01T16:27:37.608146,0.9984167218208313,-0.004261214751750231,-0.05579043924808502,-0.00577505212277174,-0.18359375,0.94287109375,0.333984375
2023-08-01T16:27:37.608146,0.9984058737754822,-0.0043168505653738976,-0.055974334478378296,-0.005835302174091339,-0.18359375,0.94287109375,0.333984375
2023-08-01T16:27:37.616237,0.9984058737754822,-0.0043168505653738976,-0.055974334478378296,-0.005835302174091339,-0.189453125,0.9462890625,0.33349609375
2023-08-01T16:27:37.623229,0.9983949065208435,-0.004385274834930897,-0.05615311115980148,-0.005949010606855154,-0.189453125,0.9462890625,0.33349609375
2023-08-01T16:27:37.630226,0.9983949065208435,-0.004385274834930897,-0.05615311115980148,-0.005949010606855154,-0.20849609375,0.94580078125,0.31982421875
2023-08-01T16:27:37.631223,0.9983803629875183,-0.004431840032339096,-0.05638989061117172,-0.006082302425056696,-0.20849609375,0.94580078125,0.31982421875
2023-08-01T16:27:37.637749,0.9983803629875183,-0.004431840032339096,-0.05638989061117172,-0.006082302425056696,-0.2216796875,0.93798828125,0.31298828125
2023-08-01T16:27:37.638787,0.9983575344085693,-0.004492073319852352,-0.05678897351026535,-0.006083793938159943,-0.2216796875,0.93798828125,0.31298828125
2023-08-01T16:27:37.645778,0.9983575344085693,-0.004492073319852352,-0.05678897351026535,-0.006083793938159943,-0.21044921875,0.93603515625,0.30517578125
2023-08-01T16:27:37.652815,0.9983319044113159,-0.0046117473393678665,-0.05722968280315399,-0.006088462192565203,-0.21044921875,0.93603515625,0.30517578125
2023-08-01T16:27:37.660401,0.9983319044113159,-0.0046117473393678665,-0.05722968280315399,-0.006088462192565203,-0.1904296875,0.93310546875,0.2939453125
2023-08-01T16:27:37.661397,0.9983080625534058,-0.0047087958082556725,-0.05763376131653786,-0.0060920133255422115,-0.1904296875,0.93310546875,0.2939453125
2023-08-01T16:27:37.667894,0.9983080625534058,-0.0047087958082556725,-0.05763376131653786,-0.0060920133255422115,-0.19482421875,0.93896484375,0.29296875
2023-08-01T16:27:37.669019,0.9982813000679016,-0.004853425547480583,-0.05808485299348831,-0.0060980720445513725,-0.19482421875,0.93896484375,0.29296875
2023-08-01T16:27:37.676000,0.9982813000679016,-0.004853425547480583,-0.05808485299348831,-0.0060980720445513725,-0.1982421875,0.9384765625,0.29345703125
2023-08-01T16:27:37.676000,0.9982671141624451,-0.004996706265956163,-0.05831523612141609,-0.006105202715843916,-0.1982421875,0.9384765625,0.29345703125
2023-08-01T16:27:37.690507,0.9982671141624451,-0.004996706265956163,-0.05831523612141609,-0.006105202715843916,-0.17578125,0.9345703125,0.30908203125
2023-08-01T16:27:37.691504,0.9982621669769287,-0.005102240014821291,-0.05838819593191147,-0.006110972259193659,-0.17578125,0.9345703125,0.30908203125
2023-08-01T16:27:37.697999,0.9982621669769287,-0.005102240014821291,-0.05838819593191147,-0.006110972259193659,-0.17333984375,0.9287109375,0.3232421875
2023-08-01T16:27:37.699035,0.9982606172561646,-0.005213867407292128,-0.05838825926184654,-0.0062756724655628204,-0.17333984375,0.9287109375,0.3232421875
2023-08-01T16:27:37.706106,0.9982606172561646,-0.005213867407292128,-0.05838825926184654,-0.0062756724655628204,-0.193359375,0.92236328125,0.33251953125
2023-08-01T16:27:37.707102,0.9982638955116272,-0.005289139691740274,-0.05830970034003258,-0.006422868464142084,-0.193359375,0.92236328125,0.33251953125
2023-08-01T16:27:37.720708,0.9982638955116272,-0.005289139691740274,-0.05830970034003258,-0.006422868464142084,-0.2041015625,0.91650390625,0.32763671875
2023-08-01T16:27:37.720708,0.9982661008834839,-0.005391999613493681,-0.058245982974767685,-0.006573290564119816,-0.2041015625,0.91650390625,0.32763671875
2023-08-01T16:27:37.728201,0.9982661008834839,-0.005391999613493681,-0.058245982974767685,-0.006573290564119816,-0.2216796875,0.91162109375,0.31396484375
2023-08-01T16:27:37.728707,0.9982644319534302,-0.005547831766307354,-0.05824556201696396,-0.0067036449909210205,-0.2216796875,0.91162109375,0.31396484375
2023-08-01T16:27:37.735691,0.9982644319534302,-0.005547831766307354,-0.05824556201696396,-0.0067036449909210205,-0.24365234375,0.91455078125,0.3017578125
2023-08-01T16:27:37.735691,0.9982630610466003,-0.00571229076012969,-0.05824478343129158,-0.006776506081223488,-0.24365234375,0.91455078125,0.3017578125
2023-08-01T16:27:37.758243,0.9982630610466003,-0.00571229076012969,-0.05824478343129158,-0.006776506081223488,-0.24462890625,0.92236328125,0.2890625
2023-08-01T16:27:37.758243,0.9982527494430542,-0.00594451604411006,-0.0583956353366375,-0.0067891222424805164,-0.24462890625,0.92236328125,0.2890625
2023-08-01T16:27:37.759374,0.9982527494430542,-0.00594451604411006,-0.0583956353366375,-0.0067891222424805164,-0.234375,0.9267578125,0.29736328125
2023-08-01T16:27:37.765361,0.9982390403747559,-0.006182389333844185,-0.058604251593351364,-0.006801702082157135,-0.234375,0.9267578125,0.29736328125
2023-08-01T16:27:37.765361,0.9982390403747559,-0.006182389333844185,-0.058604251593351364,-0.006801702082157135,-0.21484375,0.919921875,0.30517578125
2023-08-01T16:27:37.773361,0.998228907585144,-0.00642794743180275,-0.058746181428432465,-0.0068151699379086494,-0.21484375,0.919921875,0.30517578125
2023-08-01T16:27:37.780976,0.998228907585144,-0.00642794743180275,-0.058746181428432465,-0.0068151699379086494,-0.20068359375,0.91552734375,0.3134765625
2023-08-01T16:27:37.780976,0.9982208609580994,-0.006686531472951174,-0.05885276198387146,-0.0068296464160084724,-0.20068359375,0.91552734375,0.3134765625
2023-08-01T16:27:37.787840,0.9982208609580994,-0.006686531472951174,-0.05885276198387146,-0.0068296464160084724,-0.20068359375,0.9140625,0.31689453125
2023-08-01T16:27:37.788841,0.9982163906097412,-0.00696776295080781,-0.058903589844703674,-0.006771148648113012,-0.20068359375,0.9140625,0.31689453125
2023-08-01T16:27:37.795337,0.9982163906097412,-0.00696776295080781,-0.058903589844703674,-0.006771148648113012,-0.21533203125,0.9111328125,0.3125
2023-08-01T16:27:37.795337,0.9982154369354248,-0.007176703307777643,-0.058901723474264145,-0.0067149316892027855,-0.21533203125,0.9111328125,0.3125
2023-08-01T16:27:37.811354,0.9982154369354248,-0.007176703307777643,-0.058901723474264145,-0.0067149316892027855,-0.21484375,0.919921875,0.30908203125
2023-08-01T16:27:37.811354,0.998214840888977,-0.007338975090533495,-0.05890009552240372,-0.00664541544392705,-0.21484375,0.919921875,0.30908203125
2023-08-01T16:27:37.819356,0.998214840888977,-0.007338975090533495,-0.05890009552240372,-0.00664541544392705,-0.20947265625,0.92724609375,0.29638671875
2023-08-01T16:27:37.819356,0.998206615447998,-0.0075603812001645565,-0.05900900810956955,-0.006657623685896397,-0.20947265625,0.92724609375,0.29638671875
2023-08-01T16:27:37.826847,0.998206615447998,-0.0075603812001645565,-0.05900900810956955,-0.006657623685896397,-0.2197265625,0.92529296875,0.29443359375
2023-08-01T16:27:37.826847,0.9982147812843323,-0.007748440373688936,-0.0588449127972126,-0.006670038215816021,-0.2197265625,0.92529296875,0.29443359375
2023-08-01T16:27:37.840341,0.9982147812843323,-0.007748440373688936,-0.0588449127972126,-0.006670038215816021,-0.2177734375,0.91845703125,0.296875
2023-08-01T16:27:37.841340,0.9982262253761292,-0.007885253988206387,-0.05863135680556297,-0.006679837591946125,-0.2177734375,0.91845703125,0.296875
2023-08-01T16:27:37.847836,0.9982262253761292,-0.007885253988206387,-0.05863135680556297,-0.006679837591946125,-0.212890625,0.9111328125,0.30615234375
2023-08-01T16:27:37.849064,0.998242974281311,-0.008048200979828835,-0.058320872485637665,-0.006691972725093365,-0.212890625,0.9111328125,0.30615234375
2023-08-01T16:27:37.855840,0.998242974281311,-0.008048200979828835,-0.058320872485637665,-0.006691972725093365,-0.22705078125,0.89990234375,0.30859375
2023-08-01T16:27:37.856836,0.9982603788375854,-0.008171837776899338,-0.05801123380661011,-0.006643111817538738,-0.22705078125,0.89990234375,0.30859375
2023-08-01T16:27:37.870850,0.9982603788375854,-0.008171837776899338,-0.05801123380661011,-0.006643111817538738,-0.2373046875,0.89404296875,0.30859375
2023-08-01T16:27:37.870850,0.9982673525810242,-0.008178772404789925,-0.05790511518716812,-0.006512606516480446,-0.2373046875,0.89404296875,0.30859375
2023-08-01T16:27:37.878014,0.9982673525810242,-0.008178772404789925,-0.05790511518716812,-0.006512606516480446,-0.224609375,0.90283203125,0.31103515625
2023-08-01T16:27:37.879014,0.9982682466506958,-0.008186697028577328,-0.05790399760007858,-0.006375985685735941,-0.224609375,0.90283203125,0.31103515625
2023-08-01T16:27:37.885995,0.9982682466506958,-0.008186697028577328,-0.05790399760007858,-0.006375985685735941,-0.2158203125,0.908203125,0.3095703125
2023-08-01T16:27:37.885995,0.9982649087905884,-0.00818706676363945,-0.0579618439078331,-0.006375511176884174,-0.2158203125,0.908203125,0.3095703125
2023-08-01T16:27:37.900314,0.9982649087905884,-0.00818706676363945,-0.0579618439078331,-0.006375511176884174,-0.21533203125,0.91015625,0.31494140625
2023-08-01T16:27:37.901312,0.9982718229293823,-0.008081299252808094,-0.05785747244954109,-0.006370270624756813,-0.21533203125,0.91015625,0.31494140625
2023-08-01T16:27:37.907809,0.9982718229293823,-0.008081299252808094,-0.05785747244954109,-0.006370270624756813,-0.205078125,0.916015625,0.3154296875
2023-08-01T16:27:37.908980,0.9982800483703613,-0.008080394007265568,-0.05771564692258835,-0.006371418945491314,-0.205078125,0.916015625,0.3154296875
2023-08-01T16:27:37.915851,0.9982800483703613,-0.008080394007265568,-0.05771564692258835,-0.006371418945491314,-0.20166015625,0.9150390625,0.30859375
2023-08-01T16:27:37.915851,0.9982993006706238,-0.008074872195720673,-0.057374607771635056,-0.006431979592889547,-0.20166015625,0.9150390625,0.30859375
2023-08-01T16:27:37.922879,0.9982993006706238,-0.008074872195720673,-0.057374607771635056,-0.006431979592889547,-0.21337890625,0.9033203125,0.29052734375
2023-08-01T16:27:37.931057,0.9983256459236145,-0.00806418340653181,-0.056902479380369186,-0.006568740122020245,-0.21337890625,0.9033203125,0.29052734375
2023-08-01T16:27:37.938085,0.9983256459236145,-0.00806418340653181,-0.056902479380369186,-0.006568740122020245,-0.2265625,0.8935546875,0.28125
2023-08-01T16:27:37.939489,0.9983535408973694,-0.008060932159423828,-0.056408558040857315,-0.006572728510946035,-0.2265625,0.8935546875,0.28125
2023-08-01T16:27:37.946076,0.9983535408973694,-0.008060932159423828,-0.056408558040857315,-0.006572728510946035,-0.2373046875,0.89599609375,0.26611328125
2023-08-01T16:27:37.953074,0.998371958732605,-0.008058787323534489,-0.056082796305418015,-0.0065753585658967495,-0.2373046875,0.89599609375,0.26611328125
2023-08-01T16:27:37.954072,0.998371958732605,-0.008058787323534489,-0.056082796305418015,-0.0065753585658967495,-0.25048828125,0.90087890625,0.26953125
2023-08-01T16:27:37.954072,0.9983808398246765,-0.008062837645411491,-0.055934980511665344,-0.006487206555902958,-0.25048828125,0.90087890625,0.26953125
2023-08-01T16:27:37.968059,0.9983808398246765,-0.008062837645411491,-0.055934980511665344,-0.006487206555902958,-0.2587890625,0.9013671875,0.29345703125
2023-08-01T16:27:37.968059,0.9983814358711243,-0.008123921230435371,-0.05593340843915939,-0.0063377488404512405,-0.2587890625,0.9013671875,0.29345703125
2023-08-01T16:27:37.975153,0.9983814358711243,-0.008123921230435371,-0.05593340843915939,-0.0063377488404512405,-0.23095703125,0.900390625,0.29150390625
2023-08-01T16:27:37.976150,0.9983846545219421,-0.008243031799793243,-0.05587361752986908,-0.006181487813591957,-0.23095703125,0.900390625,0.29150390625
2023-08-01T16:27:37.983197,0.9983846545219421,-0.008243031799793243,-0.05587361752986908,-0.006181487813591957,-0.212890625,0.8994140625,0.310546875
2023-08-01T16:27:37.990702,0.9983919262886047,-0.00824698992073536,-0.05575210601091385,-0.006098399870097637,-0.212890625,0.8994140625,0.310546875
2023-08-01T16:27:37.998196,0.9983919262886047,-0.00824698992073536,-0.05575210601091385,-0.006098399870097637,-0.22509765625,0.90087890625,0.30859375
2023-08-01T16:27:38.005348,0.998396098613739,-0.008361110463738441,-0.05566594749689102,-0.006052155047655106,-0.22509765625,0.90087890625,0.30859375
2023-08-01T16:27:38.012860,0.998396098613739,-0.008361110463738441,-0.05566594749689102,-0.006052155047655106,-0.22509765625,0.8955078125,0.298828125
2023-08-01T16:27:38.013859,0.9983983039855957,-0.008490427397191525,-0.05561215057969093,-0.0059965611435472965,-0.22509765625,0.8955078125,0.298828125
2023-08-01T16:27:38.013859,0.9983983039855957,-0.008490427397191525,-0.05561215057969093,-0.0059965611435472965,-0.22021484375,0.89404296875,0.29736328125
2023-08-01T16:27:38.021424,0.9983980655670166,-0.008578895591199398,-0.05561097338795662,-0.005922412965446711,-0.22021484375,0.89404296875,0.29736328125
2023-08-01T16:27:38.027918,0.9983980655670166,-0.008578895591199398,-0.05561097338795662,-0.005922412965446711,-0.2099609375,0.90576171875,0.29052734375
2023-08-01T16:27:38.027918,0.998403787612915,-0.008713389746844769,-0.0554940402507782,-0.005862402729690075,-0.2099609375,0.90576171875,0.29052734375
2023-08-01T16:27:38.035388,0.998403787612915,-0.008713389746844769,-0.0554940402507782,-0.005862402729690075,-0.212890625,0.90185546875,0.29541015625
2023-08-01T16:27:38.035388,0.9984121322631836,-0.008796511217951775,-0.055330678820610046,-0.005868497304618359,-0.212890625,0.90185546875,0.29541015625
2023-08-01T16:27:38.043455,0.9984121322631836,-0.008796511217951775,-0.055330678820610046,-0.005868497304618359,-0.220703125,0.90283203125,0.298828125
2023-08-01T16:27:38.043455,0.9984197020530701,-0.00889019388705492,-0.0551859512925148,-0.005800316110253334,-0.220703125,0.90283203125,0.298828125
2023-08-01T16:27:38.058455,0.9984197020530701,-0.00889019388705492,-0.0551859512925148,-0.005800316110253334,-0.2099609375,0.9052734375,0.3046875
2023-08-01T16:27:38.059455,0.9984287619590759,-0.009017806500196457,-0.05500911548733711,-0.0057210298255085945,-0.2099609375,0.9052734375,0.3046875
2023-08-01T16:27:38.065439,0.9984287619590759,-0.009017806500196457,-0.05500911548733711,-0.0057210298255085945,-0.205078125,0.90380859375,0.30615234375
2023-08-01T16:27:38.066946,0.9984403252601624,-0.009096292778849602,-0.0547853447496891,-0.005727441515773535,-0.205078125,0.90380859375,0.30615234375
2023-08-01T16:27:38.073439,0.9984403252601624,-0.009096292778849602,-0.0547853447496891,-0.005727441515773535,-0.21337890625,0.9033203125,0.3232421875
2023-08-01T16:27:38.073439,0.9984492659568787,-0.009095358662307262,-0.05462247505784035,-0.0057289255782961845,-0.21337890625,0.9033203125,0.3232421875
2023-08-01T16:27:38.088441,0.9984492659568787,-0.009095358662307262,-0.05462247505784035,-0.0057289255782961845,-0.20751953125,0.90380859375,0.32421875
2023-08-01T16:27:38.088441,0.9984535574913025,-0.009094906970858574,-0.054543688893318176,-0.005729643162339926,-0.20751953125,0.90380859375,0.32421875
2023-08-01T16:27:38.095424,0.9984535574913025,-0.009094906970858574,-0.054543688893318176,-0.005729643162339926,-0.1875,0.90869140625,0.32373046875
2023-08-01T16:27:38.095424,0.9984618425369263,-0.009091131389141083,-0.054386548697948456,-0.005783630535006523,-0.1875,0.90869140625,0.32373046875
2023-08-01T16:27:38.103425,0.9984618425369263,-0.009091131389141083,-0.054386548697948456,-0.005783630535006523,-0.19140625,0.90576171875,0.326171875
2023-08-01T16:27:38.110396,0.9984706044197083,-0.009084115736186504,-0.05421416833996773,-0.0058955722488462925,-0.19140625,0.90576171875,0.326171875
2023-08-01T16:27:38.117894,0.9984706044197083,-0.009084115736186504,-0.05421416833996773,-0.0058955722488462925,-0.19970703125,0.91162109375,0.3193359375
2023-08-01T16:27:38.118917,0.9984778761863708,-0.009076397866010666,-0.05406820774078369,-0.006023041438311338,-0.19970703125,0.91162109375,0.3193359375
2023-08-01T16:27:38.125898,0.9984778761863708,-0.009076397866010666,-0.05406820774078369,-0.006023041438311338,-0.20263671875,0.916015625,0.306640625
2023-08-01T16:27:38.125898,0.998481810092926,-0.00907012540847063,-0.053984131664037704,-0.006130178924649954,-0.20263671875,0.916015625,0.306640625
2023-08-01T16:27:38.133900,0.998481810092926,-0.00907012540847063,-0.053984131664037704,-0.006130178924649954,-0.20263671875,0.91748046875,0.30810546875
2023-08-01T16:27:38.134897,0.9984856843948364,-0.009063642472028732,-0.05390109121799469,-0.006241307593882084,-0.20263671875,0.91748046875,0.30810546875
2023-08-01T16:27:38.148124,0.9984856843948364,-0.009063642472028732,-0.05390109121799469,-0.006241307593882084,-0.2041015625,0.9248046875,0.32080078125
2023-08-01T16:27:38.149130,0.9984899163246155,-0.00905539095401764,-0.0538078248500824,-0.006384065840393305,-0.2041015625,0.9248046875,0.32080078125
2023-08-01T16:27:38.156115,0.9984899163246155,-0.00905539095401764,-0.0538078248500824,-0.006384065840393305,-0.2080078125,0.92626953125,0.3232421875
2023-08-01T16:27:38.157111,0.99848872423172,-0.009045477956533432,-0.05380949378013611,-0.006568011827766895,-0.2080078125,0.92626953125,0.3232421875
2023-08-01T16:27:38.163118,0.99848872423172,-0.009045477956533432,-0.05380949378013611,-0.006568011827766895,-0.208984375,0.92822265625,0.32373046875
2023-08-01T16:27:38.164116,0.9984909296035767,-0.009037734009325504,-0.05375296622514725,-0.006705179810523987,-0.208984375,0.92822265625,0.32373046875
2023-08-01T16:27:38.177775,0.9984909296035767,-0.009037734009325504,-0.05375296622514725,-0.006705179810523987,-0.20361328125,0.9296875,0.32080078125
2023-08-01T16:27:38.178845,0.9984933137893677,-0.009031686931848526,-0.053696151822805405,-0.0068108136765658855,-0.20361328125,0.9296875,0.32080078125
2023-08-01T16:27:38.192909,0.9984933137893677,-0.009031686931848526,-0.053696151822805405,-0.0068108136765658855,-0.21484375,0.9306640625,0.31982421875
2023-08-01T16:27:38.193906,0.9985001087188721,-0.009022769518196583,-0.0535503625869751,-0.006959300488233566,-0.21484375,0.9306640625,0.31982421875
2023-08-01T16:27:38.193906,0.9985001087188721,-0.009022769518196583,-0.0535503625869751,-0.006959300488233566,-0.22265625,0.93359375,0.32275390625
2023-08-01T16:27:38.200941,0.9985001087188721,-0.008944109082221985,-0.05355172976851463,-0.007049954496324062,-0.22265625,0.93359375,0.32275390625
2023-08-01T16:27:38.208009,0.9985001087188721,-0.008944109082221985,-0.05355172976851463,-0.007049954496324062,-0.220703125,0.94140625,0.31884765625
2023-08-01T16:27:38.210039,0.9984927773475647,-0.008941303007304668,-0.05368003994226456,-0.007117948029190302,-0.220703125,0.94140625,0.31884765625
2023-08-01T16:27:38.217021,0.9984927773475647,-0.008941303007304668,-0.05368003994226456,-0.007117948029190302,-0.2255859375,0.939453125,0.31298828125
2023-08-01T16:27:38.218061,0.9984843134880066,-0.00894242711365223,-0.05383775755763054,-0.0071165356785058975,-0.2255859375,0.939453125,0.31298828125
2023-08-01T16:27:38.223229,0.9984843134880066,-0.00894242711365223,-0.05383775755763054,-0.0071165356785058975,-0.2265625,0.93310546875,0.306640625
2023-08-01T16:27:38.224226,0.9984748363494873,-0.009011904709041119,-0.054000236093997955,-0.007118759211152792,-0.2265625,0.93310546875,0.306640625
2023-08-01T16:27:38.231298,0.9984748363494873,-0.009011904709041119,-0.054000236093997955,-0.007118759211152792,-0.224609375,0.93017578125,0.30029296875
2023-08-01T16:27:38.237821,0.998467743396759,-0.009102609939873219,-0.05413012579083443,-0.007017004769295454,-0.224609375,0.93017578125,0.30029296875
2023-08-01T16:27:38.245208,0.998467743396759,-0.009102609939873219,-0.05413012579083443,-0.007017004769295454,-0.2265625,0.927734375,0.3076171875
2023-08-01T16:27:38.246205,0.9984647035598755,-0.009179631248116493,-0.054191362112760544,-0.006867716554552317,-0.2265625,0.927734375,0.3076171875
2023-08-01T16:27:38.253210,0.9984647035598755,-0.009179631248116493,-0.054191362112760544,-0.006867716554552317,-0.22509765625,0.9248046875,0.30859375
2023-08-01T16:27:38.254205,0.9984657168388367,-0.009187618270516396,-0.0541900098323822,-0.006720557808876038,-0.22509765625,0.9248046875,0.30859375
2023-08-01T16:27:38.260769,0.9984657168388367,-0.009187618270516396,-0.0541900098323822,-0.006720557808876038,-0.22265625,0.93359375,0.30908203125
2023-08-01T16:27:38.261766,0.9984669089317322,-0.009197316132485867,-0.05418836697936058,-0.006541865412145853,-0.22265625,0.93359375,0.30908203125
2023-08-01T16:27:38.275833,0.9984669089317322,-0.009197316132485867,-0.05418836697936058,-0.006541865412145853,-0.21826171875,0.93994140625,0.31640625
2023-08-01T16:27:38.276828,0.9984629154205322,-0.009210390038788319,-0.05428735911846161,-0.006312242709100246,-0.21826171875,0.93994140625,0.31640625
2023-08-01T16:27:38.283507,0.9984629154205322,-0.009210390038788319,-0.05428735911846161,-0.006312242709100246,-0.2109375,0.9404296875,0.31884765625
2023-08-01T16:27:38.283507,0.9984601140022278,-0.009223461151123047,-0.05436410382390022,-0.006080267485231161,-0.2109375,0.9404296875,0.31884765625
2023-08-01T16:27:38.292503,0.9984601140022278,-0.009223461151123047,-0.05436410382390022,-0.006080267485231161,-0.205078125,0.93505859375,0.3203125
2023-08-01T16:27:38.292503,0.9984564781188965,-0.009289399720728397,-0.05444573611021042,-0.005845848936587572,-0.205078125,0.93505859375,0.3203125
2023-08-01T16:27:38.314503,0.9984564781188965,-0.009289399720728397,-0.05444573611021042,-0.005845848936587572,-0.20654296875,0.92724609375,0.318359375
2023-08-01T16:27:38.315513,0.9984483122825623,-0.009305635467171669,-0.05462187901139259,-0.005565640516579151,-0.20654296875,0.92724609375,0.318359375
2023-08-01T16:27:38.315513,0.9984483122825623,-0.009305635467171669,-0.05462187901139259,-0.005565640516579151,-0.20654296875,0.91796875,0.31640625
2023-08-01T16:27:38.320530,0.9984349012374878,-0.009380715899169445,-0.05488168075680733,-0.005277297925204039,-0.20654296875,0.91796875,0.31640625
2023-08-01T16:27:38.321519,0.9984349012374878,-0.009380715899169445,-0.05488168075680733,-0.005277297925204039,-0.20458984375,0.91455078125,0.3076171875
2023-08-01T16:27:38.322516,0.9984205365180969,-0.009460528381168842,-0.0551520474255085,-0.004999654833227396,-0.20458984375,0.91455078125,0.3076171875
2023-08-01T16:27:38.338014,0.9984205365180969,-0.009460528381168842,-0.0551520474255085,-0.004999654833227396,-0.21044921875,0.921875,0.2998046875
2023-08-01T16:27:38.339122,0.9984076619148254,-0.009527956135571003,-0.05539649352431297,-0.004753212910145521,-0.21044921875,0.921875,0.2998046875
2023-08-01T16:27:38.343114,0.9984076619148254,-0.009527956135571003,-0.05539649352431297,-0.004753212910145521,-0.2060546875,0.927734375,0.30126953125
2023-08-01T16:27:38.344111,0.9983975291252136,-0.009602728299796581,-0.05559039115905762,-0.004478040151298046,-0.2060546875,0.927734375,0.30126953125
2023-08-01T16:27:38.353111,0.9983975291252136,-0.009602728299796581,-0.05559039115905762,-0.004478040151298046,-0.1982421875,0.9189453125,0.30859375
2023-08-01T16:27:38.354108,0.9983941316604614,-0.009680135175585747,-0.05565604194998741,-0.004228639882057905,-0.1982421875,0.9189453125,0.30859375
2023-08-01T16:27:38.370320,0.9983941316604614,-0.009680135175585747,-0.05565604194998741,-0.004228639882057905,-0.19921875,0.90673828125,0.3076171875
2023-08-01T16:27:38.371318,0.9983949065208435,-0.00969009567052126,-0.05565430968999863,-0.004049960058182478,-0.19921875,0.90673828125,0.3076171875
2023-08-01T16:27:38.373315,0.9983949065208435,-0.00969009567052126,-0.05565430968999863,-0.004049960058182478,-0.20849609375,0.9013671875,0.31005859375
2023-08-01T16:27:38.374312,0.9983949065208435,-0.009767488576471806,-0.05565245449542999,-0.0038908536080271006,-0.20849609375,0.9013671875,0.31005859375
2023-08-01T16:27:38.381093,0.9983949065208435,-0.009767488576471806,-0.05565245449542999,-0.0038908536080271006,-0.20849609375,0.8955078125,0.31298828125
2023-08-01T16:27:38.381093,0.998395562171936,-0.00977686233818531,-0.05565080791711807,-0.0037226842250674963,-0.20849609375,0.8955078125,0.31298828125
2023-08-01T16:27:38.395316,0.998395562171936,-0.00977686233818531,-0.05565080791711807,-0.0037226842250674963,-0.2001953125,0.89404296875,0.31494140625
2023-08-01T16:27:38.395316,0.9983867406845093,-0.009784294292330742,-0.055814504623413086,-0.0035987526644021273,-0.2001953125,0.89404296875,0.31494140625
2023-08-01T16:27:38.410850,0.9983867406845093,-0.009784294292330742,-0.055814504623413086,-0.0035987526644021273,-0.2080078125,0.8994140625,0.310546875
2023-08-01T16:27:38.412845,0.9983766674995422,-0.009845122694969177,-0.055991701781749725,-0.0034633015748113394,-0.2080078125,0.8994140625,0.310546875
2023-08-01T16:27:38.412845,0.9983766674995422,-0.009845122694969177,-0.055991701781749725,-0.0034633015748113394,-0.21484375,0.90283203125,0.2998046875
2023-08-01T16:27:38.455002,0.9983680248260498,-0.009928942658007145,-0.056142181158065796,-0.0032925023697316647,-0.21484375,0.90283203125,0.2998046875
2023-08-01T16:27:38.456000,0.9983680248260498,-0.009928942658007145,-0.056142181158065796,-0.0032925023697316647,-0.212890625,0.90185546875,0.29541015625
2023-08-01T16:27:38.457500,0.9983616471290588,-0.010053151287138462,-0.05624022334814072,-0.003150864504277706,-0.212890625,0.90185546875,0.29541015625
2023-08-01T16:27:38.458004,0.9983616471290588,-0.010053151287138462,-0.05624022334814072,-0.003150864504277706,-0.20751953125,0.900390625,0.2880859375
2023-08-01T16:27:38.459058,0.9983605146408081,-0.010200063697993755,-0.05623887851834297,-0.003069518366828561,-0.20751953125,0.900390625,0.2880859375
2023-08-01T16:27:38.459058,0.9983605146408081,-0.010200063697993755,-0.05623887851834297,-0.003069518366828561,-0.2080078125,0.896484375,0.29296875
2023-08-01T16:27:38.460057,0.9983624219894409,-0.010342447087168694,-0.056184884160757065,-0.002972647547721863,-0.2080078125,0.896484375,0.29296875
2023-08-01T16:27:38.461054,0.9983624219894409,-0.010342447087168694,-0.056184884160757065,-0.002972647547721863,-0.20849609375,0.89404296875,0.30517578125
2023-08-01T16:27:38.461054,0.9983655214309692,-0.010511914268136024,-0.05610436946153641,-0.0028617624193429947,-0.20849609375,0.89404296875,0.30517578125
2023-08-01T16:27:38.463050,0.9983655214309692,-0.010511914268136024,-0.05610436946153641,-0.0028617624193429947,-0.20458984375,0.89306640625,0.30908203125
2023-08-01T16:27:38.464047,0.9983679056167603,-0.01069420762360096,-0.05602961778640747,-0.0028042581398040056,-0.20458984375,0.89306640625,0.30908203125
2023-08-01T16:27:38.477743,0.9983679056167603,-0.01069420762360096,-0.05602961778640747,-0.0028042581398040056,-0.20849609375,0.89501953125,0.30859375
2023-08-01T16:27:38.480046,0.9983721375465393,-0.010820042341947556,-0.05592946708202362,-0.0028124048840254545,-0.20849609375,0.89501953125,0.30859375
2023-08-01T16:27:38.481042,0.9983721375465393,-0.010820042341947556,-0.05592946708202362,-0.0028124048840254545,-0.212890625,0.904296875,0.31103515625
2023-08-01T16:27:38.486030,0.998376190662384,-0.010947751812636852,-0.05583767592906952,-0.002719193696975708,-0.212890625,0.904296875,0.31103515625
2023-08-01T16:27:38.494030,0.998376190662384,-0.010947751812636852,-0.05583767592906952,-0.002719193696975708,-0.20458984375,0.90673828125,0.31396484375
2023-08-01T16:27:38.494030,0.9983752965927124,-0.011058138683438301,-0.055836353451013565,-0.0026304766070097685,-0.20458984375,0.90673828125,0.31396484375
2023-08-01T16:27:38.503026,0.9983752965927124,-0.011058138683438301,-0.055836353451013565,-0.0026304766070097685,-0.20263671875,0.90869140625,0.31640625
2023-08-01T16:27:38.504023,0.9983742833137512,-0.011147469282150269,-0.05583611875772476,-0.0026354726869612932,-0.20263671875,0.90869140625,0.31640625
2023-08-01T16:27:38.509480,0.9983742833137512,-0.011147469282150269,-0.05583611875772476,-0.0026354726869612932,-0.203125,0.908203125,0.31396484375
2023-08-01T16:27:38.510024,0.9983770847320557,-0.011236618272960186,-0.055767614394426346,-0.0026412310544401407,-0.203125,0.908203125,0.31396484375
2023-08-01T16:27:38.523115,0.9983770847320557,-0.011236618272960186,-0.055767614394426346,-0.0026412310544401407,-0.20361328125,0.900390625,0.3154296875
2023-08-01T16:27:38.524110,0.9983797073364258,-0.01128900982439518,-0.05570971965789795,-0.002644816180691123,-0.20361328125,0.900390625,0.3154296875
2023-08-01T16:27:38.530702,0.9983797073364258,-0.01128900982439518,-0.05570971965789795,-0.002644816180691123,-0.20166015625,0.9033203125,0.31201171875
2023-08-01T16:27:38.531699,0.9983797073364258,-0.01128900982439518,-0.05570971965789795,-0.002644816180691123,-0.20166015625,0.9033203125,0.31201171875
2023-08-01T16:27:38.538198,0.9983797073364258,-0.01128900982439518,-0.05570971965789795,-0.002644816180691123,-0.20458984375,0.9130859375,0.310546875
2023-08-01T16:27:38.538198,0.9983797073364258,-0.01128900982439518,-0.05570971965789795,-0.002644816180691123,-0.20458984375,0.9130859375,0.310546875
2023-08-01T16:27:38.553356,0.9983797073364258,-0.01128900982439518,-0.05570971965789795,-0.002644816180691123,-0.2109375,0.91748046875,0.3125
2023-08-01T16:27:38.554354,0.9983832836151123,-0.011288841255009174,-0.05564595386385918,-0.002645537257194519,-0.2109375,0.91748046875,0.3125
2023-08-01T16:27:38.560360,0.9983832836151123,-0.011288841255009174,-0.05564595386385918,-0.002645537257194519,-0.2080078125,0.921875,0.31640625
2023-08-01T16:27:38.562354,0.9983910322189331,-0.011199177242815495,-0.05552537366747856,-0.002641923725605011,-0.2080078125,0.921875,0.31640625
2023-08-01T16:27:38.568361,0.9983910322189331,-0.011199177242815495,-0.05552537366747856,-0.002641923725605011,-0.19873046875,0.921875,0.31201171875
2023-08-01T16:27:38.569362,0.9983964562416077,-0.011137912049889565,-0.0554368831217289,-0.002697513671591878,-0.19873046875,0.921875,0.31201171875
2023-08-01T16:27:38.584039,0.9983964562416077,-0.011137912049889565,-0.0554368831217289,-0.002697513671591878,-0.20068359375,0.91943359375,0.3115234375
2023-08-01T16:27:38.584039,0.998404324054718,-0.011079440824687481,-0.05530155077576637,-0.002795964712277055,-0.20068359375,0.91943359375,0.3115234375
2023-08-01T16:27:38.591121,0.998404324054718,-0.011079440824687481,-0.05530155077576637,-0.002795964712277055,-0.2001953125,0.91650390625,0.31689453125
2023-08-01T16:27:38.593120,0.9984115958213806,-0.011073527857661247,-0.05516606941819191,-0.002897326834499836,-0.2001953125,0.91650390625,0.31689453125
2023-08-01T16:27:38.601126,0.9984115958213806,-0.011073527857661247,-0.05516606941819191,-0.002897326834499836,-0.20166015625,0.9189453125,0.3173828125
2023-08-01T16:27:38.602123,0.9984150528907776,-0.011067812331020832,-0.05509890615940094,-0.002997931092977524,-0.20166015625,0.9189453125,0.3173828125
2023-08-01T16:27:38.615117,0.9984150528907776,-0.011067812331020832,-0.05509890615940094,-0.002997931092977524,-0.19873046875,0.9228515625,0.31201171875
2023-08-01T16:27:38.615117,0.9984147548675537,-0.011062881909310818,-0.05509989708662033,-0.00308726797811687,-0.19873046875,0.9228515625,0.31201171875
2023-08-01T16:27:38.622129,0.9984147548675537,-0.011062881909310818,-0.05509989708662033,-0.00308726797811687,-0.1953125,0.92724609375,0.30859375
2023-08-01T16:27:38.623125,0.9984109401702881,-0.011057503521442413,-0.055164884775877,-0.00318760029040277,-0.1953125,0.92724609375,0.30859375
2023-08-01T16:27:38.632131,0.9984109401702881,-0.011057503521442413,-0.055164884775877,-0.00318760029040277,-0.201171875,0.93017578125,0.31103515625
2023-08-01T16:27:38.634125,0.9984100461006165,-0.011111239902675152,-0.05516551434993744,-0.0032643647864460945,-0.201171875,0.93017578125,0.31103515625
2023-08-01T16:27:38.647150,0.9984100461006165,-0.011111239902675152,-0.05516551434993744,-0.0032643647864460945,-0.20947265625,0.927734375,0.31640625
2023-08-01T16:27:38.648160,0.9984122514724731,-0.011200384236872196,-0.05510746315121651,-0.003269943641498685,-0.20947265625,0.927734375,0.31640625
2023-08-01T16:27:38.651170,0.9984122514724731,-0.011200384236872196,-0.05510746315121651,-0.003269943641498685,-0.21240234375,0.92236328125,0.3154296875
2023-08-01T16:27:38.653164,0.998415470123291,-0.011273710988461971,-0.055033694952726364,-0.003274829126894474,-0.21240234375,0.92236328125,0.3154296875
2023-08-01T16:27:38.662171,0.998415470123291,-0.011273710988461971,-0.055033694952726364,-0.003274829126894474,-0.21142578125,0.91943359375,0.318359375
2023-08-01T16:27:38.662171,0.9984146952629089,-0.011342023499310017,-0.055033471435308456,-0.003278594696894288,-0.21142578125,0.91943359375,0.318359375
2023-08-01T16:27:38.674166,0.9984146952629089,-0.011342023499310017,-0.055033471435308456,-0.003278594696894288,-0.20849609375,0.92041015625,0.32177734375
2023-08-01T16:27:38.678166,0.9984138607978821,-0.011415591463446617,-0.055033229291439056,-0.0032826499082148075,-0.20849609375,0.92041015625,0.32177734375
2023-08-01T16:27:38.681346,0.9984138607978821,-0.011415591463446617,-0.055033229291439056,-0.0032826499082148075,-0.20703125,0.91748046875,0.322265625
2023-08-01T16:27:38.682343,0.9984099864959717,-0.011500848457217216,-0.055086180567741394,-0.003286731196567416,-0.20703125,0.91748046875,0.322265625
2023-08-01T16:27:38.688348,0.9984099864959717,-0.011500848457217216,-0.055086180567741394,-0.003286731196567416,-0.216796875,0.91455078125,0.3232421875
2023-08-01T16:27:38.690346,0.9984099864959717,-0.011500848457217216,-0.055086180567741394,-0.003286731196567416,-0.216796875,0.91455078125,0.3232421875
2023-08-01T16:27:38.703337,0.9984099864959717,-0.011500848457217216,-0.055086180567741394,-0.003286731196567416,-0.2177734375,0.91943359375,0.31982421875
2023-08-01T16:27:38.705332,0.998410165309906,-0.01150378305464983,-0.055085569620132446,-0.0032335477881133556,-0.2177734375,0.91943359375,0.31982421875
2023-08-01T16:27:38.711153,0.998410165309906,-0.01150378305464983,-0.055085569620132446,-0.0032335477881133556,-0.208984375,0.92333984375,0.31005859375
2023-08-01T16:27:38.712151,0.9984103441238403,-0.011507198214530945,-0.05508485808968544,-0.003171649295836687,-0.208984375,0.92333984375,0.31005859375
2023-08-01T16:27:38.726137,0.9984103441238403,-0.011507198214530945,-0.05508485808968544,-0.003171649295836687,-0.2109375,0.9208984375,0.31201171875
2023-08-01T16:27:38.727136,0.9984105825424194,-0.011511547490954399,-0.055083949118852615,-0.0030928170308470726,-0.2109375,0.9208984375,0.31201171875
2023-08-01T16:27:38.728177,0.9984105825424194,-0.011511547490954399,-0.055083949118852615,-0.0030928170308470726,-0.216796875,0.916015625,0.31640625
2023-08-01T16:27:38.733547,0.9984139800071716,-0.011514888145029545,-0.05502476170659065,-0.0030296712648123503,-0.216796875,0.916015625,0.31640625
2023-08-01T16:27:38.742334,0.9984139800071716,-0.011514888145029545,-0.05502476170659065,-0.0030296712648123503,-0.2138671875,0.90966796875,0.31787109375
2023-08-01T16:27:38.742334,0.9984179139137268,-0.011518949642777443,-0.05495686084032059,-0.0029530711472034454,-0.2138671875,0.90966796875,0.31787109375
2023-08-01T16:27:38.747827,0.9984179139137268,-0.011518949642777443,-0.05495686084032059,-0.0029530711472034454,-0.20751953125,0.9072265625,0.32470703125
2023-08-01T16:27:38.750226,0.9984228610992432,-0.011523908004164696,-0.054871730506420135,-0.0028594417963176966,-0.20751953125,0.9072265625,0.32470703125
2023-08-01T16:27:38.764211,0.9984228610992432,-0.011523908004164696,-0.054871730506420135,-0.0028594417963176966,-0.20556640625,0.912109375,0.32861328125
2023-08-01T16:27:38.766207,0.9984331130981445,-0.011462812311947346,-0.05470110848546028,-0.002799395704641938,-0.20556640625,0.912109375,0.32861328125
2023-08-01T16:27:38.771953,0.9984331130981445,-0.011462812311947346,-0.05470110848546028,-0.002799395704641938,-0.20751953125,0.9150390625,0.3271484375
2023-08-01T16:27:38.772950,0.9984413981437683,-0.011409220285713673,-0.05456370860338211,-0.0027137063443660736,-0.20751953125,0.9150390625,0.3271484375
2023-08-01T16:27:38.777990,0.9984413981437683,-0.011409220285713673,-0.05456370860338211,-0.0027137063443660736,-0.2041015625,0.91357421875,0.3193359375
2023-08-01T16:27:38.779417,0.9984456896781921,-0.011414476670324802,-0.05448903888463974,-0.002614689990878105,-0.2041015625,0.91357421875,0.3193359375
2023-08-01T16:27:38.785403,0.9984456896781921,-0.011414476670324802,-0.05448903888463974,-0.002614689990878105,-0.2060546875,0.91748046875,0.3115234375
2023-08-01T16:27:38.794918,0.9984487295150757,-0.01141806785017252,-0.05443574860692024,-0.002546966075897217,-0.2060546875,0.91748046875,0.3115234375
2023-08-01T16:27:38.801098,0.9984487295150757,-0.01141806785017252,-0.05443574860692024,-0.002546966075897217,-0.212890625,0.91357421875,0.3037109375
2023-08-01T16:27:38.801098,0.9984532594680786,-0.011423024348914623,-0.05435588210821152,-0.002453265246003866,-0.212890625,0.91357421875,0.3037109375
2023-08-01T16:27:38.808041,0.9984532594680786,-0.011423024348914623,-0.05435588210821152,-0.002453265246003866,-0.20654296875,0.916015625,0.29638671875
2023-08-01T16:27:38.809156,0.9984534382820129,-0.011427602730691433,-0.054354920983314514,-0.0023691740352660418,-0.20654296875,0.916015625,0.29638671875
2023-08-01T16:27:38.815489,0.9984534382820129,-0.011427602730691433,-0.054354920983314514,-0.0023691740352660418,-0.20068359375,0.9169921875,0.30126953125
2023-08-01T16:27:38.823002,0.9984529614448547,-0.011483012698590755,-0.05435419827699661,-0.002319476567208767,-0.20068359375,0.9169921875,0.30126953125
2023-08-01T16:27:38.833018,0.9984529614448547,-0.011483012698590755,-0.05435419827699661,-0.002319476567208767,-0.20068359375,0.91455078125,0.30712890625
2023-08-01T16:27:38.833018,0.9984564185142517,-0.011562595143914223,-0.054274287074804306,-0.002324735978618264,-0.20068359375,0.91455078125,0.30712890625
2023-08-01T16:27:38.838017,0.9984564185142517,-0.011562595143914223,-0.054274287074804306,-0.002324735978618264,-0.20068359375,0.91455078125,0.31396484375
2023-08-01T16:27:38.839022,0.9984613656997681,-0.011565815657377243,-0.054184261709451675,-0.002262700581923127,-0.20068359375,0.91455078125,0.31396484375
2023-08-01T16:27:38.846006,0.9984613656997681,-0.011565815657377243,-0.054184261709451675,-0.002262700581923127,-0.19873046875,0.91650390625,0.3203125
2023-08-01T16:27:38.847004,0.9984616637229919,-0.011572660878300667,-0.05418280139565468,-0.0021365643478929996,-0.19873046875,0.91650390625,0.3203125
2023-08-01T16:27:38.871187,0.9984616637229919,-0.011572660878300667,-0.05418280139565468,-0.0021365643478929996,-0.19921875,0.91748046875,0.3203125
2023-08-01T16:27:38.872184,0.9984644651412964,-0.011630505323410034,-0.05412376672029495,-0.0020402269437909126,-0.19921875,0.91748046875,0.3203125
2023-08-01T16:27:38.874179,0.9984644651412964,-0.011630505323410034,-0.05412376672029495,-0.0020402269437909126,-0.205078125,0.912109375,0.31640625
2023-08-01T16:27:38.876175,0.9984704256057739,-0.011630279943346977,-0.0540134459733963,-0.0020415119361132383,-0.205078125,0.912109375,0.31640625
2023-08-01T16:27:38.876175,0.9984704256057739,-0.011630279943346977,-0.0540134459733963,-0.0020415119361132383,-0.2109375,0.91015625,0.31396484375
2023-08-01T16:27:38.884226,0.99847412109375,-0.011630140244960785,-0.05394517257809639,-0.00204230728559196,-0.2109375,0.91015625,0.31396484375
2023-08-01T16:27:38.898229,0.99847412109375,-0.011630140244960785,-0.05394517257809639,-0.00204230728559196,-0.19970703125,0.9140625,0.31591796875
2023-08-01T16:27:38.899422,0.9984742999076843,-0.011634450405836105,-0.05394424498081207,-0.0019625285640358925,-0.19970703125,0.9140625,0.31591796875
2023-08-01T16:27:38.905477,0.9984742999076843,-0.011634450405836105,-0.05394424498081207,-0.0019625285640358925,-0.18798828125,0.91943359375,0.3115234375
2023-08-01T16:27:38.906983,0.9984706044197083,-0.01163458451628685,-0.054012615233659744,-0.001961731817573309,-0.18798828125,0.91943359375,0.3115234375
2023-08-01T16:27:38.907984,0.9984706044197083,-0.01163458451628685,-0.054012615233659744,-0.001961731817573309,-0.197265625,0.9208984375,0.30859375
2023-08-01T16:27:38.921426,0.998467743396759,-0.011634687893092632,-0.054065220057964325,-0.0019611187744885683,-0.197265625,0.9208984375,0.30859375
2023-08-01T16:27:38.922422,0.998467743396759,-0.011634687893092632,-0.054065220057964325,-0.0019611187744885683,-0.20263671875,0.9169921875,0.30615234375
2023-08-01T16:27:38.922422,0.9984678626060486,-0.011637818068265915,-0.0540645457804203,-0.0019033042481169105,-0.20263671875,0.9169921875,0.30615234375
2023-08-01T16:27:38.935922,0.9984678626060486,-0.011637818068265915,-0.0540645457804203,-0.0019033042481169105,-0.19140625,0.91796875,0.30615234375
2023-08-01T16:27:38.935922,0.9984680414199829,-0.01164350938051939,-0.05406332015991211,-0.001798189477995038,-0.19140625,0.91796875,0.30615234375
2023-08-01T16:27:38.936918,0.9984680414199829,-0.01164350938051939,-0.05406332015991211,-0.001798189477995038,-0.18798828125,0.9169921875,0.30810546875
2023-08-01T16:27:38.943228,0.9984709024429321,-0.01164341438561678,-0.05401081219315529,-0.0017988018225878477,-0.18798828125,0.9169921875,0.30810546875
2023-08-01T16:27:38.953161,0.9984709024429321,-0.01164341438561678,-0.05401081219315529,-0.0017988018225878477,-0.1982421875,0.91650390625,0.31298828125
2023-08-01T16:27:38.954158,0.9984760880470276,-0.011643242090940475,-0.05391513183712959,-0.001799917547032237,-0.1982421875,0.91650390625,0.31298828125
2023-08-01T16:27:38.958200,0.9984760880470276,-0.011643242090940475,-0.05391513183712959,-0.001799917547032237,-0.20068359375,0.916015625,0.310546875
2023-08-01T16:27:38.959308,0.9984760880470276,-0.011643242090940475,-0.05391513183712959,-0.001799917547032237,-0.20068359375,0.916015625,0.310546875
2023-08-01T16:27:38.965293,0.9984760880470276,-0.011643242090940475,-0.05391513183712959,-0.001799917547032237,-0.1953125,0.91552734375,0.3095703125
2023-08-01T16:27:38.966291,0.9984753727912903,-0.01169641874730587,-0.053915027529001236,-0.0018027886981144547,-0.1953125,0.91552734375,0.3095703125
2023-08-01T16:27:38.980886,0.9984753727912903,-0.01169641874730587,-0.053915027529001236,-0.0018027886981144547,-0.1904296875,0.912109375,0.30859375
2023-08-01T16:27:38.982879,0.998478353023529,-0.011690856888890266,-0.05385775864124298,-0.00190451939124614,-0.1904296875,0.912109375,0.30859375
2023-08-01T16:27:38.989173,0.998478353023529,-0.011690856888890266,-0.05385775864124298,-0.00190451939124614,-0.1943359375,0.9150390625,0.3046875
2023-08-01T16:27:38.992168,0.9984844923019409,-0.011684231460094452,-0.05374055355787277,-0.002024546032771468,-0.1943359375,0.9150390625,0.3046875
2023-08-01T16:27:38.996157,0.9984844923019409,-0.011684231460094452,-0.05374055355787277,-0.002024546032771468,-0.201171875,0.91845703125,0.30615234375
2023-08-01T16:27:38.996157,0.9984832406044006,-0.011761244386434555,-0.05374192073941231,-0.00216045998968184,-0.201171875,0.91845703125,0.30615234375
2023-08-01T16:27:39.011116,0.9984832406044006,-0.011761244386434555,-0.05374192073941231,-0.00216045998968184,-0.20068359375,0.92138671875,0.3125
2023-08-01T16:27:39.011116,0.9984821677207947,-0.011830544099211693,-0.05374288931488991,-0.002260195557028055,-0.20068359375,0.92138671875,0.3125
2023-08-01T16:27:39.018117,0.9984821677207947,-0.011830544099211693,-0.05374288931488991,-0.002260195557028055,-0.20068359375,0.9189453125,0.32373046875
2023-08-01T16:27:39.019224,0.998478353023529,-0.011878084391355515,-0.05380047857761383,-0.0023396704345941544,-0.20068359375,0.9189453125,0.32373046875
2023-08-01T16:27:39.025524,0.998478353023529,-0.011878084391355515,-0.05380047857761383,-0.0023396704345941544,-0.20458984375,0.91845703125,0.32568359375
2023-08-01T16:27:39.025524,0.9984715580940247,-0.011873786337673664,-0.05392386391758919,-0.0024233057629317045,-0.20458984375,0.91845703125,0.32568359375
2023-08-01T16:27:39.041079,0.9984715580940247,-0.011873786337673664,-0.05392386391758919,-0.0024233057629317045,-0.20849609375,0.91943359375,0.3232421875
2023-08-01T16:27:39.041079,0.9984670877456665,-0.011868868954479694,-0.054003871977329254,-0.0025169653818011284,-0.20849609375,0.91943359375,0.3232421875
2023-08-01T16:27:39.048162,0.9984670877456665,-0.011868868954479694,-0.054003871977329254,-0.0025169653818011284,-0.21240234375,0.91650390625,0.31787109375
2023-08-01T16:27:39.048162,0.9984668493270874,-0.011864036321640015,-0.054004933685064316,-0.0026063069235533476,-0.21240234375,0.91650390625,0.31787109375
2023-08-01T16:27:39.055481,0.9984668493270874,-0.011864036321640015,-0.054004933685064316,-0.0026063069235533476,-0.2099609375,0.91650390625,0.3154296875
2023-08-01T16:27:39.063016,0.9984694123268127,-0.011859918013215065,-0.05395329371094704,-0.0026805056259036064,-0.2099609375,0.91650390625,0.3154296875
2023-08-01T16:27:39.064014,0.9984694123268127,-0.011859918013215065,-0.05395329371094704,-0.0026805056259036064,-0.21337890625,0.91796875,0.3125
2023-08-01T16:27:39.064014,0.9984734058380127,-0.01185487862676382,-0.05387556925415993,-0.002770783146843314,-0.21337890625,0.91796875,0.3125
2023-08-01T16:27:39.078151,0.9984734058380127,-0.01185487862676382,-0.05387556925415993,-0.002770783146843314,-0.216796875,0.9189453125,0.31298828125
2023-08-01T16:27:39.079398,0.9984782934188843,-0.011782360263168812,-0.05379784479737282,-0.002841607201844454,-0.216796875,0.9189453125,0.31298828125
2023-08-01T16:27:39.085380,0.9984782934188843,-0.011782360263168812,-0.05379784479737282,-0.002841607201844454,-0.2138671875,0.919921875,0.3154296875
2023-08-01T16:27:39.086887,0.9984837174415588,-0.011729543097317219,-0.053708694875240326,-0.0028398288413882256,-0.2138671875,0.919921875,0.3154296875
2023-08-01T16:27:39.101070,0.9984837174415588,-0.011729543097317219,-0.053708694875240326,-0.0028398288413882256,-0.212890625,0.92578125,0.318359375
2023-08-01T16:27:39.102067,0.9984912872314453,-0.011644094251096249,-0.05358666181564331,-0.0028366874903440475,-0.212890625,0.92578125,0.318359375
2023-08-01T16:27:39.108130,0.9984912872314453,-0.011644094251096249,-0.05358666181564331,-0.0028366874903440475,-0.22021484375,0.92578125,0.3212890625
2023-08-01T16:27:39.108130,0.9984984993934631,-0.011580675840377808,-0.053466007113456726,-0.002834711456671357,-0.22021484375,0.92578125,0.3212890625
2023-08-01T16:27:39.115453,0.9984984993934631,-0.011580675840377808,-0.053466007113456726,-0.002834711456671357,-0.2216796875,0.9248046875,0.31982421875
2023-08-01T16:27:39.115453,0.9984988570213318,-0.011587148532271385,-0.053464606404304504,-0.0027138262521475554,-0.2216796875,0.9248046875,0.31982421875
2023-08-01T16:27:39.123456,0.9984988570213318,-0.011587148532271385,-0.053464606404304504,-0.0027138262521475554,-0.21240234375,0.92431640625,0.31787109375
2023-08-01T16:27:39.130522,0.9984944462776184,-0.011593864299356937,-0.053552597761154175,-0.002591903554275632,-0.21240234375,0.92431640625,0.31787109375
2023-08-01T16:27:39.138054,0.9984944462776184,-0.011593864299356937,-0.053552597761154175,-0.002591903554275632,-0.20703125,0.92138671875,0.310546875
2023-08-01T16:27:39.138054,0.9984903931617737,-0.0115997064858675,-0.05363025143742561,-0.002485869685187936,-0.20703125,0.92138671875,0.310546875
2023-08-01T16:27:39.145466,0.9984903931617737,-0.0115997064858675,-0.05363025143742561,-0.002485869685187936,-0.20556640625,0.91796875,0.3056640625
2023-08-01T16:27:39.145466,0.9984906315803528,-0.01160506997257471,-0.05362909287214279,-0.002386008156463504,-0.20556640625,0.91796875,0.3056640625
2023-08-01T16:27:39.153454,0.9984906315803528,-0.01160506997257471,-0.05362909287214279,-0.002386008156463504,-0.2021484375,0.91748046875,0.30078125
2023-08-01T16:27:39.153454,0.9984908699989319,-0.011610997840762138,-0.05362781137228012,-0.0022756352555006742,-0.2021484375,0.91748046875,0.30078125
2023-08-01T16:27:39.167993,0.9984908699989319,-0.011610997840762138,-0.05362781137228012,-0.0022756352555006742,-0.20361328125,0.91943359375,0.3037109375
2023-08-01T16:27:39.167993,0.9984899759292603,-0.011718612164258957,-0.053626157343387604,-0.002158734481781721,-0.20361328125,0.91943359375,0.3037109375
2023-08-01T16:27:39.175527,0.9984899759292603,-0.011718612164258957,-0.053626157343387604,-0.002158734481781721,-0.201171875,0.9208984375,0.3076171875
2023-08-01T16:27:39.175527,0.9984933733940125,-0.011807161383330822,-0.05355029180645943,-0.001979878870770335,-0.201171875,0.9208984375,0.3076171875
2023-08-01T16:27:39.183324,0.9984933733940125,-0.011807161383330822,-0.05355029180645943,-0.001979878870770335,-0.2001953125,0.91845703125,0.30712890625
2023-08-01T16:27:39.183324,0.9984927177429199,-0.011901112273335457,-0.053547948598861694,-0.0018004351295530796,-0.2001953125,0.91845703125,0.30712890625
2023-08-01T16:27:39.198988,0.9984927177429199,-0.011901112273335457,-0.053547948598861694,-0.0018004351295530796,-0.20166015625,0.9140625,0.31396484375
2023-08-01T16:27:39.198988,0.9984915852546692,-0.012023496441543102,-0.0535462349653244,-0.0016804954502731562,-0.20166015625,0.9140625,0.31396484375
2023-08-01T16:27:39.205972,0.9984915852546692,-0.012023496441543102,-0.0535462349653244,-0.0016804954502731562,-0.2060546875,0.90966796875,0.3134765625
2023-08-01T16:27:39.205972,0.9984859228134155,-0.012125572189688683,-0.05363382399082184,-0.0015478403074666858,-0.2060546875,0.90966796875,0.3134765625
2023-08-01T16:27:39.212975,0.9984859228134155,-0.012125572189688683,-0.05363382399082184,-0.0015478403074666858,-0.2080078125,0.90478515625,0.314453125
2023-08-01T16:27:39.213971,0.9984819889068604,-0.012197201140224934,-0.05369492992758751,-0.001392787671647966,-0.2080078125,0.90478515625,0.314453125
2023-08-01T16:27:39.228023,0.9984819889068604,-0.012197201140224934,-0.05369492992758751,-0.001392787671647966,-0.20068359375,0.9072265625,0.3154296875
2023-08-01T16:27:39.228023,0.9984821677207947,-0.01220454927533865,-0.0536932609975338,-0.0012561375042423606,-0.20068359375,0.9072265625,0.3154296875
2023-08-01T16:27:39.235250,0.9984821677207947,-0.01220454927533865,-0.0536932609975338,-0.0012561375042423606,-0.19140625,0.9169921875,0.31005859375
2023-08-01T16:27:39.236246,0.9984869956970215,-0.012208957225084305,-0.053602926433086395,-0.0011731352424249053,-0.19140625,0.9169921875,0.31005859375
2023-08-01T16:27:39.242772,0.9984869956970215,-0.012208957225084305,-0.053602926433086395,-0.0011731352424249053,-0.19189453125,0.92236328125,0.3076171875
2023-08-01T16:27:39.243769,0.9984944462776184,-0.012208795174956322,-0.05346469581127167,-0.0011748254764825106,-0.19189453125,0.92236328125,0.3076171875
2023-08-01T16:27:39.257901,0.9984944462776184,-0.012208795174956322,-0.05346469581127167,-0.0011748254764825106,-0.1962890625,0.9189453125,0.306640625
2023-08-01T16:27:39.259160,0.998508095741272,-0.012208495289087296,-0.05320945754647255,-0.001177946338430047,-0.1962890625,0.9189453125,0.306640625
2023-08-01T16:27:39.266144,0.998508095741272,-0.012208495289087296,-0.05320945754647255,-0.001177946338430047,-0.19287109375,0.91845703125,0.3095703125
2023-08-01T16:27:39.273611,0.9985222816467285,-0.012208176776766777,-0.052941255271434784,-0.0011812252923846245,-0.19287109375,0.91845703125,0.3095703125
2023-08-01T16:27:39.273611,0.9985222816467285,-0.012208176776766777,-0.052941255271434784,-0.0011812252923846245,-0.19140625,0.9140625,0.30859375
2023-08-01T16:27:39.280608,0.9985349774360657,-0.012202596291899681,-0.05270075425505638,-0.0012840388808399439,-0.19140625,0.9140625,0.30859375
2023-08-01T16:27:39.288603,0.9985349774360657,-0.012202596291899681,-0.05270075425505638,-0.0012840388808399439,-0.20166015625,0.91552734375,0.314453125
2023-08-01T16:27:39.289604,0.9985418319702148,-0.012199099175632,-0.052570175379514694,-0.0013487120158970356,-0.20166015625,0.91552734375,0.314453125
2023-08-01T16:27:39.295588,0.9985418319702148,-0.012199099175632,-0.052570175379514694,-0.0013487120158970356,-0.212890625,0.91796875,0.31591796875
2023-08-01T16:27:39.295588,0.9985457062721252,-0.012198999524116516,-0.052496638149023056,-0.001349610392935574,-0.212890625,0.91796875,0.31591796875
2023-08-01T16:27:39.303095,0.9985457062721252,-0.012198999524116516,-0.052496638149023056,-0.001349610392935574,-0.21044921875,0.9208984375,0.32275390625
2023-08-01T16:27:39.304093,0.9985417723655701,-0.012255343608558178,-0.05255972594022751,-0.001293116481974721,-0.21044921875,0.9208984375,0.32275390625
2023-08-01T16:27:39.318072,0.9985417723655701,-0.012255343608558178,-0.05255972594022751,-0.001293116481974721,-0.19970703125,0.92333984375,0.32470703125
2023-08-01T16:27:39.326173,0.9985349774360657,-0.012321325950324535,-0.05267467722296715,-0.0012424533488228917,-0.19970703125,0.92333984375,0.32470703125
2023-08-01T16:27:39.326173,0.9985349774360657,-0.012321325950324535,-0.05267467722296715,-0.0012424533488228917,-0.19580078125,0.9189453125,0.322265625
2023-08-01T16:27:39.341225,0.9985285401344299,-0.012395033612847328,-0.052779749035835266,-0.0012450369540601969,-0.19580078125,0.9189453125,0.322265625
2023-08-01T16:27:39.341225,0.9985285401344299,-0.012395033612847328,-0.052779749035835266,-0.0012450369540601969,-0.19677734375,0.91748046875,0.31591796875
2023-08-01T16:27:39.342223,0.9985242486000061,-0.012447671964764595,-0.052848055958747864,-0.0012469659559428692,-0.19677734375,0.91748046875,0.31591796875
2023-08-01T16:27:39.348215,0.9985242486000061,-0.012447671964764595,-0.052848055958747864,-0.0012469659559428692,-0.197265625,0.91943359375,0.31494140625
2023-08-01T16:27:39.349220,0.9985242486000061,-0.012447671964764595,-0.052848055958747864,-0.0012469659559428692,-0.197265625,0.91943359375,0.31494140625
2023-08-01T16:27:39.371203,0.9985242486000061,-0.012447671964764595,-0.052848055958747864,-0.0012469659559428692,-0.1943359375,0.91796875,0.31494140625
2023-08-01T16:27:39.371203,0.9985312223434448,-0.012447508051991463,-0.052716705948114395,-0.001248603337444365,-0.1943359375,0.91796875,0.31494140625
2023-08-01T16:27:39.372200,0.9985312223434448,-0.012447508051991463,-0.052716705948114395,-0.001248603337444365,-0.1953125,0.919921875,0.31494140625
2023-08-01T16:27:39.386069,0.9985391497612,-0.012447315268218517,-0.05256432667374611,-0.0012505026534199715,-0.1953125,0.919921875,0.31494140625
2023-08-01T16:27:39.386069,0.9985391497612,-0.012447315268218517,-0.05256432667374611,-0.0012505026534199715,-0.20166015625,0.91943359375,0.32177734375
2023-08-01T16:27:39.387065,0.9985464215278625,-0.012447142042219639,-0.052426088601350784,-0.0012522258330136538,-0.20166015625,0.91943359375,0.32177734375
2023-08-01T16:27:39.393191,0.9985464215278625,-0.012447142042219639,-0.052426088601350784,-0.0012522258330136538,-0.2099609375,0.91650390625,0.3271484375
2023-08-01T16:27:39.393191,0.9985514879226685,-0.012394470162689686,-0.05234210938215256,-0.001250513712875545,-0.2099609375,0.91650390625,0.3271484375
2023-08-01T16:27:39.394188,0.9985514879226685,-0.012394470162689686,-0.05234210938215256,-0.001250513712875545,-0.20849609375,0.91455078125,0.32861328125
2023-08-01T16:27:39.400351,0.9985523223876953,-0.01232613530009985,-0.05234219506382942,-0.001246931729838252,-0.20849609375,0.91455078125,0.32861328125
2023-08-01T16:27:39.401350,0.9985523223876953,-0.01232613530009985,-0.05234219506382942,-0.001246931729838252,-0.20849609375,0.9130859375,0.32568359375
2023-08-01T16:27:39.401350,0.9985532760620117,-0.012247288599610329,-0.05234229192137718,-0.0012427987530827522,-0.20849609375,0.9130859375,0.32568359375
2023-08-01T16:27:39.415476,0.9985532760620117,-0.012247288599610329,-0.05234229192137718,-0.0012427987530827522,-0.2138671875,0.91357421875,0.31884765625
2023-08-01T16:27:39.415476,0.9985541105270386,-0.012178953737020493,-0.05234237760305405,-0.0012392167700454593,-0.2138671875,0.91357421875,0.31884765625
2023-08-01T16:27:39.423029,0.9985541105270386,-0.012178953737020493,-0.05234237760305405,-0.0012392167700454593,-0.2138671875,0.9130859375,0.31201171875
2023-08-01T16:27:39.424026,0.9985551238059998,-0.012103688903152943,-0.05234163999557495,-0.0011667521903291345,-0.2138671875,0.9130859375,0.31201171875
2023-08-01T16:27:39.431232,0.9985551238059998,-0.012103688903152943,-0.05234163999557495,-0.0011667521903291345,-0.20947265625,0.9150390625,0.30810546875
2023-08-01T16:27:39.431232,0.9985513687133789,-0.01210790779441595,-0.052414316684007645,-0.001087015843950212,-0.20947265625,0.9150390625,0.30810546875
2023-08-01T16:27:39.445567,0.9985513687133789,-0.01210790779441595,-0.052414316684007645,-0.001087015843950212,-0.2080078125,0.91845703125,0.314453125
2023-08-01T16:27:39.447073,0.9985514879226685,-0.012112375348806381,-0.05241328477859497,-0.0010019121691584587,-0.2080078125,0.91845703125,0.314453125
2023-08-01T16:27:39.453195,0.9985514879226685,-0.012112375348806381,-0.05241328477859497,-0.0010019121691584587,-0.203125,0.92041015625,0.3154296875
2023-08-01T16:27:39.454192,0.9985485672950745,-0.012119054794311523,-0.05246961861848831,-0.0008750626584514976,-0.203125,0.92041015625,0.3154296875
2023-08-01T16:27:39.468239,0.9985485672950745,-0.012119054794311523,-0.05246961861848831,-0.0008750626584514976,-0.197265625,0.916015625,0.314453125
2023-08-01T16:27:39.468239,0.9985456466674805,-0.012127943336963654,-0.052525442093610764,-0.0007061650394462049,-0.197265625,0.916015625,0.314453125
2023-08-01T16:27:39.475323,0.9985456466674805,-0.012127943336963654,-0.052525442093610764,-0.0007061650394462049,-0.1982421875,0.91259765625,0.3173828125
2023-08-01T16:27:39.476320,0.9985457062721252,-0.012132920324802399,-0.05252429470419884,-0.0006115540163591504,-0.1982421875,0.91259765625,0.3173828125
2023-08-01T16:27:39.482816,0.9985457062721252,-0.012132920324802399,-0.05252429470419884,-0.0006115540163591504,-0.19677734375,0.91015625,0.31201171875
2023-08-01T16:27:39.483812,0.9985430240631104,-0.012137376703321934,-0.05257588252425194,-0.0005268157692626119,-0.19677734375,0.91015625,0.31201171875
2023-08-01T16:27:39.490893,0.9985430240631104,-0.012137376703321934,-0.05257588252425194,-0.0005268157692626119,-0.1904296875,0.9072265625,0.30859375
2023-08-01T16:27:39.491891,0.9985388517379761,-0.012140186503529549,-0.05265412852168083,-0.00047329391236416996,-0.1904296875,0.9072265625,0.30859375
2023-08-01T16:27:39.505883,0.9985388517379761,-0.012140186503529549,-0.05265412852168083,-0.00047329391236416996,-0.18603515625,0.9091796875,0.30908203125
2023-08-01T16:27:39.513125,0.9985336065292358,-0.012140234000980854,-0.05275404080748558,-0.00047207920579239726,-0.18603515625,0.9091796875,0.30908203125
2023-08-01T16:27:39.513125,0.9985336065292358,-0.012140234000980854,-0.05275404080748558,-0.00047207920579239726,-0.1865234375,0.91162109375,0.30419921875
2023-08-01T16:27:39.514122,0.9985291361808777,-0.012140274047851562,-0.052839189767837524,-0.00047104398254305124,-0.1865234375,0.91162109375,0.30419921875
2023-08-01T16:27:39.520128,0.9985291361808777,-0.012140274047851562,-0.052839189767837524,-0.00047104398254305124,-0.19189453125,0.9150390625,0.3037109375
2023-08-01T16:27:39.521126,0.998525083065033,-0.012198111973702908,-0.052902281284332275,-0.00047333561815321445,-0.19189453125,0.9150390625,0.3037109375
2023-08-01T16:27:39.535385,0.998525083065033,-0.012198111973702908,-0.052902281284332275,-0.00047333561815321445,-0.19580078125,0.916015625,0.310546875
2023-08-01T16:27:39.536382,0.9985243678092957,-0.012255920097231865,-0.052902255207300186,-0.00047639833064749837,-0.19580078125,0.916015625,0.310546875
2023-08-01T16:27:39.542878,0.9985243678092957,-0.012255920097231865,-0.052902255207300186,-0.00047639833064749837,-0.19775390625,0.91162109375,0.31396484375
2023-08-01T16:27:39.543875,0.9985243678092957,-0.012255920097231865,-0.052902255207300186,-0.00047639833064749837,-0.19775390625,0.91162109375,0.31396484375
2023-08-01T16:27:39.550897,0.9985243678092957,-0.012255920097231865,-0.052902255207300186,-0.00047639833064749837,-0.203125,0.90869140625,0.31982421875
2023-08-01T16:27:39.550897,0.9985237121582031,-0.012308472767472267,-0.0529022291302681,-0.00047918257769197226,-0.203125,0.90869140625,0.31982421875
2023-08-01T16:27:39.566137,0.9985237121582031,-0.012308472767472267,-0.0529022291302681,-0.00047918257769197226,-0.20556640625,0.90673828125,0.3212890625
2023-08-01T16:27:39.566137,0.9985209107398987,-0.012308497913181782,-0.05295546352863312,-0.0004785263736266643,-0.20556640625,0.90673828125,0.3212890625
2023-08-01T16:27:39.573259,0.9985209107398987,-0.012308497913181782,-0.05295546352863312,-0.0004785263736266643,-0.19873046875,0.90576171875,0.31982421875
2023-08-01T16:27:39.581023,0.9985209107398987,-0.012308497913181782,-0.05295546352863312,-0.0004785263736266643,-0.19873046875,0.90576171875,0.31982421875
2023-08-01T16:27:39.588085,0.9985209107398987,-0.012308497913181782,-0.05295546352863312,-0.0004785263736266643,-0.1962890625,0.90771484375,0.3154296875
2023-08-01T16:27:39.589163,0.9985209107398987,-0.012308497913181782,-0.05295546352863312,-0.0004785263736266643,-0.1962890625,0.90771484375,0.3154296875
2023-08-01T16:27:39.589163,0.9985209107398987,-0.012308497913181782,-0.05295546352863312,-0.0004785263736266643,-0.203125,0.91162109375,0.31640625
2023-08-01T16:27:39.596168,0.9985209107398987,-0.012308497913181782,-0.05295546352863312,-0.0004785263736266643,-0.203125,0.91162109375,0.31640625
2023-08-01T16:27:39.603335,0.9985209107398987,-0.012308497913181782,-0.05295546352863312,-0.0004785263736266643,-0.2041015625,0.9140625,0.31298828125
2023-08-01T16:27:39.603335,0.9985209107398987,-0.012308497913181782,-0.05295546352863312,-0.0004785263736266643,-0.2041015625,0.9140625,0.31298828125
2023-08-01T16:27:39.611181,0.9985209107398987,-0.012308497913181782,-0.05295546352863312,-0.0004785263736266643,-0.19677734375,0.91748046875,0.310546875
2023-08-01T16:27:39.611181,0.9985209107398987,-0.012308497913181782,-0.05295546352863312,-0.0004785263736266643,-0.19677734375,0.91748046875,0.310546875
2023-08-01T16:27:39.625748,0.9985209107398987,-0.012308497913181782,-0.05295546352863312,-0.0004785263736266643,-0.19580078125,0.91357421875,0.3125
2023-08-01T16:27:39.625748,0.998525083065033,-0.012308459728956223,-0.05287667363882065,-0.00047949759755283594,-0.19580078125,0.91357421875,0.3125
2023-08-01T16:27:39.632763,0.998525083065033,-0.012308459728956223,-0.05287667363882065,-0.00047949759755283594,-0.19921875,0.91015625,0.31201171875
2023-08-01T16:27:39.633759,0.998530924320221,-0.01230840664356947,-0.0527663491666317,-0.00048085753223858774,-0.19921875,0.91015625,0.31201171875
2023-08-01T16:27:39.640786,0.998530924320221,-0.01230840664356947,-0.0527663491666317,-0.00048085753223858774,-0.19921875,0.9111328125,0.3125
2023-08-01T16:27:39.641784,0.9985353350639343,-0.012304755859076977,-0.05268314480781555,-0.0005502172280102968,-0.19921875,0.9111328125,0.3125
2023-08-01T16:27:39.648794,0.9985353350639343,-0.012304755859076977,-0.05268314480781555,-0.0005502172280102968,-0.205078125,0.91455078125,0.31591796875
2023-08-01T16:27:39.648794,0.9985405206680298,-0.012236669659614563,-0.05259910970926285,-0.000627674802672118,-0.205078125,0.91455078125,0.31591796875
2023-08-01T16:27:39.662767,0.9985405206680298,-0.012236669659614563,-0.05259910970926285,-0.000627674802672118,-0.205078125,0.9208984375,0.31201171875
2023-08-01T16:27:39.663763,0.9985469579696655,-0.012179882265627384,-0.05248977988958359,-0.000705094076693058,-0.205078125,0.9208984375,0.31201171875
2023-08-01T16:27:39.670223,0.9985469579696655,-0.012179882265627384,-0.05248977988958359,-0.000705094076693058,-0.20361328125,0.9228515625,0.30908203125
2023-08-01T16:27:39.671223,0.9985544681549072,-0.012097078375518322,-0.05236463621258736,-0.0007760682492516935,-0.20361328125,0.9228515625,0.30908203125
2023-08-01T16:27:39.685733,0.9985544681549072,-0.012097078375518322,-0.05236463621258736,-0.0007760682492516935,-0.20751953125,0.92041015625,0.306640625
2023-08-01T16:27:39.685733,0.9985632300376892,-0.011998490430414677,-0.0522184781730175,-0.0008464701822958887,-0.20751953125,0.92041015625,0.306640625
2023-08-01T16:27:39.693749,0.9985632300376892,-0.011998490430414677,-0.0522184781730175,-0.0008464701822958887,-0.21044921875,0.91943359375,0.30322265625
2023-08-01T16:27:39.693749,0.9985735416412354,-0.011911486275494099,-0.052040524780750275,-0.0008967763860709965,-0.21044921875,0.91943359375,0.30322265625
2023-08-01T16:27:39.700761,0.9985735416412354,-0.011911486275494099,-0.052040524780750275,-0.0008967763860709965,-0.208984375,0.92138671875,0.29931640625
2023-08-01T16:27:39.701759,0.9985848069190979,-0.011855995282530785,-0.05183625593781471,-0.0009490397060289979,-0.208984375,0.92138671875,0.29931640625
2023-08-01T16:27:39.708989,0.9985848069190979,-0.011855995282530785,-0.05183625593781471,-0.0009490397060289979,-0.20654296875,0.9228515625,0.29931640625
2023-08-01T16:27:39.708989,0.9985965490341187,-0.011855780147016048,-0.05161028727889061,-0.0009517226135358214,-0.20654296875,0.9228515625,0.29931640625
2023-08-01T16:27:39.722978,0.9985965490341187,-0.011855780147016048,-0.05161028727889061,-0.0009517226135358214,-0.2041015625,0.92578125,0.30029296875
2023-08-01T16:27:39.723971,0.9986071586608887,-0.01185558084398508,-0.05140288546681404,-0.0009541847393848002,-0.2041015625,0.92578125,0.30029296875
2023-08-01T16:27:39.730497,0.9986071586608887,-0.01185558084398508,-0.05140288546681404,-0.0009541847393848002,-0.205078125,0.9287109375,0.3046875
2023-08-01T16:27:39.731481,0.9986177086830139,-0.011855385266244411,-0.05119793862104416,-0.000956617936026305,-0.205078125,0.9287109375,0.3046875
2023-08-01T16:27:39.738478,0.9986177086830139,-0.011855385266244411,-0.05119793862104416,-0.000956617936026305,-0.205078125,0.9208984375,0.3076171875
2023-08-01T16:27:39.738478,0.9986306428909302,-0.011855144053697586,-0.05094568058848381,-0.0009596126619726419,-0.205078125,0.9208984375,0.3076171875
2023-08-01T16:27:39.753309,0.9986306428909302,-0.011855144053697586,-0.05094568058848381,-0.0009596126619726419,-0.203125,0.91796875,0.30810546875
2023-08-01T16:27:39.754308,0.9986464381217957,-0.011854846030473709,-0.050635598599910736,-0.0009632937726564705,-0.203125,0.91796875,0.30810546875
2023-08-01T16:27:39.760804,0.9986464381217957,-0.011854846030473709,-0.050635598599910736,-0.0009632937726564705,-0.2060546875,0.9189453125,0.30810546875
2023-08-01T16:27:39.760804,0.9986609816551208,-0.01185456570237875,-0.050346530973911285,-0.0009667250560596585,-0.2060546875,0.9189453125,0.30810546875
2023-08-01T16:27:39.769472,0.9986609816551208,-0.01185456570237875,-0.050346530973911285,-0.0009667250560596585,-0.212890625,0.923828125,0.31298828125
2023-08-01T16:27:39.769472,0.9986740946769714,-0.011854313313961029,-0.05008593201637268,-0.0009698185021989048,-0.212890625,0.923828125,0.31298828125
2023-08-01T16:27:39.782983,0.9986740946769714,-0.011854313313961029,-0.05008593201637268,-0.0009698185021989048,-0.20556640625,0.92578125,0.322265625
2023-08-01T16:27:39.783977,0.9986839890480042,-0.011857487261295319,-0.049889128655195236,-0.0009050708031281829,-0.20556640625,0.92578125,0.322265625
2023-08-01T16:27:39.797899,0.9986839890480042,-0.011857487261295319,-0.049889128655195236,-0.0009050708031281829,-0.19921875,0.92431640625,0.3271484375
2023-08-01T16:27:39.798928,0.9986898303031921,-0.011803126893937588,-0.04978714883327484,-0.0008182317833416164,-0.19921875,0.92431640625,0.3271484375
2023-08-01T16:27:39.798928,0.9986898303031921,-0.011803126893937588,-0.04978714883327484,-0.0008182317833416164,-0.20068359375,0.923828125,0.32861328125
2023-08-01T16:27:39.805910,0.998692512512207,-0.011805704794824123,-0.04973400756716728,-0.0007662818534299731,-0.20068359375,0.923828125,0.32861328125
2023-08-01T16:27:39.813445,0.998692512512207,-0.011805704794824123,-0.04973400756716728,-0.0007662818534299731,-0.19677734375,0.92041015625,0.32421875
2023-08-01T16:27:39.813445,0.9986964464187622,-0.011809350922703743,-0.04965338110923767,-0.0006927477079443634,-0.19677734375,0.92041015625,0.32421875
2023-08-01T16:27:39.820443,0.9986964464187622,-0.011809350922703743,-0.04965338110923767,-0.0006927477079443634,-0.19482421875,0.91650390625,0.32275390625
2023-08-01T16:27:39.821441,0.9987029433250427,-0.011813879013061523,-0.04952334240078926,-0.0006013993988744915,-0.19482421875,0.91650390625,0.32275390625
2023-08-01T16:27:39.827940,0.9987029433250427,-0.011813879013061523,-0.04952334240078926,-0.0006013993988744915,-0.1943359375,0.9189453125,0.31982421875
2023-08-01T16:27:39.829157,0.9987099766731262,-0.011813793331384659,-0.04938145726919174,-0.0006030778167769313,-0.1943359375,0.9189453125,0.31982421875
2023-08-01T16:27:39.843012,0.9987099766731262,-0.011813793331384659,-0.04938145726919174,-0.0006030778167769313,-0.19287109375,0.919921875,0.31591796875
2023-08-01T16:27:39.844009,0.9987181425094604,-0.011813693679869175,-0.04921659827232361,-0.0006050279480405152,-0.19287109375,0.919921875,0.31591796875
2023-08-01T16:27:39.850314,0.9987181425094604,-0.011813693679869175,-0.04921659827232361,-0.0006050279480405152,-0.1875,0.9208984375,0.3154296875
2023-08-01T16:27:39.851311,0.9987257719039917,-0.011813599616289139,-0.0490618571639061,-0.0006068583461456001,-0.1875,0.9208984375,0.3154296875
2023-08-01T16:27:39.857799,0.9987257719039917,-0.011813599616289139,-0.0490618571639061,-0.0006068583461456001,-0.18505859375,0.91943359375,0.31689453125
2023-08-01T16:27:39.858879,0.9987316131591797,-0.011755010113120079,-0.04895554110407829,-0.000605241279117763,-0.18505859375,0.91943359375,0.31689453125
2023-08-01T16:27:39.872745,0.9987316131591797,-0.011755010113120079,-0.04895554110407829,-0.000605241279117763,-0.193359375,0.91650390625,0.31640625
2023-08-01T16:27:39.873743,0.9987316131591797,-0.011755010113120079,-0.04895554110407829,-0.000605241279117763,-0.193359375,0.91650390625,0.31640625
2023-08-01T16:27:39.880261,0.9987316131591797,-0.011755010113120079,-0.04895554110407829,-0.000605241279117763,-0.19482421875,0.91845703125,0.3125
2023-08-01T16:27:39.881257,0.9987316131591797,-0.011755010113120079,-0.04895554110407829,-0.000605241279117763,-0.19482421875,0.91845703125,0.3125
2023-08-01T16:27:39.887746,0.9987316131591797,-0.011755010113120079,-0.04895554110407829,-0.000605241279117763,-0.1953125,0.91650390625,0.31103515625
2023-08-01T16:27:39.888776,0.9987325072288513,-0.011681405827403069,-0.048955585807561874,-0.0006016333936713636,-0.1953125,0.91650390625,0.31103515625
2023-08-01T16:27:39.903767,0.9987325072288513,-0.011681405827403069,-0.048955585807561874,-0.0006016333936713636,-0.19580078125,0.91943359375,0.30859375
2023-08-01T16:27:39.903767,0.9987324476242065,-0.011676509864628315,-0.04895675554871559,-0.0007015126757323742,-0.19580078125,0.91943359375,0.30859375
2023-08-01T16:27:39.911041,0.9987324476242065,-0.011676509864628315,-0.04895675554871559,-0.0007015126757323742,-0.19677734375,0.92236328125,0.3095703125
2023-08-01T16:27:39.911041,0.9987323880195618,-0.01167187187820673,-0.048957861959934235,-0.0007961349911056459,-0.19677734375,0.92236328125,0.3095703125
2023-08-01T16:27:39.918052,0.9987323880195618,-0.01167187187820673,-0.048957861959934235,-0.0007961349911056459,-0.2001953125,0.919921875,0.310546875
2023-08-01T16:27:39.919127,0.9987322092056274,-0.011667490005493164,-0.04895889759063721,-0.0008855002233758569,-0.2001953125,0.919921875,0.310546875
2023-08-01T16:27:39.925621,0.9987322092056274,-0.011667490005493164,-0.04895889759063721,-0.0008855002233758569,-0.19970703125,0.9208984375,0.3134765625
2023-08-01T16:27:39.933501,0.9987321496009827,-0.011662796139717102,-0.048960015177726746,-0.00098125240765512,-0.19970703125,0.9208984375,0.3134765625
2023-08-01T16:27:39.941021,0.9987321496009827,-0.011662796139717102,-0.048960015177726746,-0.00098125240765512,-0.20556640625,0.91943359375,0.31396484375
2023-08-01T16:27:39.941021,0.9987320899963379,-0.011658930219709873,-0.048960935324430466,-0.001060103764757514,-0.20556640625,0.91943359375,0.31396484375
2023-08-01T16:27:39.948043,0.9987320899963379,-0.011658930219709873,-0.048960935324430466,-0.001060103764757514,-0.208984375,0.91455078125,0.31005859375
2023-08-01T16:27:39.948043,0.9987320899963379,-0.011658930219709873,-0.048960935324430466,-0.001060103764757514,-0.208984375,0.91455078125,0.31005859375
2023-08-01T16:27:39.956257,0.9987320899963379,-0.011658930219709873,-0.048960935324430466,-0.001060103764757514,-0.2060546875,0.9140625,0.3056640625
2023-08-01T16:27:39.956257,0.9987286329269409,-0.01171155460178852,-0.04901875555515289,-0.0010620050597935915,-0.2060546875,0.9140625,0.3056640625
2023-08-01T16:27:39.970813,0.9987286329269409,-0.01171155460178852,-0.04901875555515289,-0.0010620050597935915,-0.20361328125,0.9130859375,0.302734375
2023-08-01T16:27:39.970813,0.9987280368804932,-0.011764117516577244,-0.049018699675798416,-0.0010645849397405982,-0.20361328125,0.9130859375,0.302734375
2023-08-01T16:27:39.977814,0.9987280368804932,-0.011764117516577244,-0.049018699675798416,-0.0010645849397405982,-0.2041015625,0.9140625,0.3046875
2023-08-01T16:27:39.978908,0.9987273812294006,-0.011821937747299671,-0.04901863634586334,-0.0010674227960407734,-0.2041015625,0.9140625,0.3046875
2023-08-01T16:27:39.985802,0.9987273812294006,-0.011821937747299671,-0.04901863634586334,-0.0010674227960407734,-0.21044921875,0.9208984375,0.30859375
2023-08-01T16:27:39.992898,0.9987273812294006,-0.011821937747299671,-0.04901863634586334,-0.0010674227960407734,-0.21044921875,0.9208984375,0.30859375
2023-08-01T16:27:40.001281,0.9987273812294006,-0.011821937747299671,-0.04901863634586334,-0.0010674227960407734,-0.2060546875,0.91943359375,0.31591796875
2023-08-01T16:27:40.001281,0.9987310171127319,-0.011821858584880829,-0.04894420877099037,-0.0010683038271963596,-0.2060546875,0.91943359375,0.31591796875
2023-08-01T16:27:40.007769,0.9987310171127319,-0.011821858584880829,-0.04894420877099037,-0.0010683038271963596,-0.2021484375,0.91650390625,0.3154296875
2023-08-01T16:27:40.008808,0.9987343549728394,-0.011821785941720009,-0.04887591674923897,-0.0010691122151911259,-0.2021484375,0.91650390625,0.3154296875
2023-08-01T16:27:40.015793,0.9987343549728394,-0.011821785941720009,-0.04887591674923897,-0.0010691122151911259,-0.208984375,0.90966796875,0.31787109375
2023-08-01T16:27:40.015793,0.9987376928329468,-0.011821713298559189,-0.048807624727487564,-0.001069920603185892,-0.208984375,0.90966796875,0.31787109375
2023-08-01T16:27:40.031368,0.9987376928329468,-0.011821713298559189,-0.048807624727487564,-0.001069920603185892,-0.21337890625,0.9052734375,0.31982421875
2023-08-01T16:27:40.038364,0.9987376928329468,-0.011821713298559189,-0.048807624727487564,-0.001069920603185892,-0.21337890625,0.9052734375,0.31982421875
2023-08-01T16:27:40.038364,0.9987376928329468,-0.011821713298559189,-0.048807624727487564,-0.001069920603185892,-0.2099609375,0.908203125,0.31689453125
2023-08-01T16:27:40.039364,0.9987325668334961,-0.011821825988590717,-0.048912812024354935,-0.001068675541318953,-0.2099609375,0.908203125,0.31689453125
2023-08-01T16:27:40.045347,0.9987325668334961,-0.011821825988590717,-0.048912812024354935,-0.001068675541318953,-0.2080078125,0.91259765625,0.31005859375
2023-08-01T16:27:40.045347,0.9987276196479797,-0.011821934022009373,-0.04901393502950668,-0.0010674785589799285,-0.2080078125,0.91259765625,0.31005859375
2023-08-01T16:27:40.060873,0.9987276196479797,-0.011821934022009373,-0.04901393502950668,-0.0010674785589799285,-0.2109375,0.91796875,0.30517578125
2023-08-01T16:27:40.060873,0.9987276792526245,-0.011824972927570343,-0.049013201147317886,-0.0010055602760985494,-0.2109375,0.91796875,0.30517578125
2023-08-01T16:27:40.067912,0.9987276792526245,-0.011824972927570343,-0.049013201147317886,-0.0010055602760985494,-0.2080078125,0.9189453125,0.3056640625
2023-08-01T16:27:40.068898,0.9987313151359558,-0.011824898421764374,-0.048938773572444916,-0.0010064415400847793,-0.2080078125,0.9189453125,0.3056640625
2023-08-01T16:27:40.075888,0.9987313151359558,-0.011824898421764374,-0.048938773572444916,-0.0010064415400847793,-0.203125,0.91455078125,0.30517578125
2023-08-01T16:27:40.075888,0.9987379908561707,-0.01182476058602333,-0.04880214110016823,-0.0010080592473968863,-0.203125,0.91455078125,0.30517578125
2023-08-01T16:27:40.090645,0.9987379908561707,-0.01182476058602333,-0.04880214110016823,-0.0010080592473968863,-0.2021484375,0.912109375,0.306640625
2023-08-01T16:27:40.091643,0.9987469911575317,-0.011740477755665779,-0.04863930866122246,-0.0010058777406811714,-0.2021484375,0.912109375,0.306640625
2023-08-01T16:27:40.098639,0.9987469911575317,-0.011740477755665779,-0.04863930866122246,-0.0010058777406811714,-0.203125,0.9140625,0.31298828125
2023-08-01T16:27:40.098639,0.9987566471099854,-0.01165092084556818,-0.0484606996178627,-0.0010036255698651075,-0.203125,0.9140625,0.31298828125
2023-08-01T16:27:40.105621,0.9987566471099854,-0.01165092084556818,-0.0484606996178627,-0.0010036255698651075,-0.197265625,0.91455078125,0.31396484375
2023-08-01T16:27:40.105621,0.9987645745277405,-0.011561401188373566,-0.04831889644265175,-0.0010009441757574677,-0.197265625,0.91455078125,0.31396484375
2023-08-01T16:27:40.120139,0.9987645745277405,-0.011561401188373566,-0.04831889644265175,-0.0010009441757574677,-0.1923828125,0.91845703125,0.31884765625
2023-08-01T16:27:40.121136,0.9987697005271912,-0.011467781849205494,-0.04823465272784233,-0.0010613891063258052,-0.1923828125,0.91845703125,0.31884765625
2023-08-01T16:27:40.128154,0.9987697005271912,-0.011467781849205494,-0.04823465272784233,-0.0010613891063258052,-0.19384765625,0.919921875,0.3193359375
2023-08-01T16:27:40.129188,0.998770534992218,-0.011386641301214695,-0.04823562502861023,-0.0011350450804457068,-0.19384765625,0.919921875,0.3193359375
2023-08-01T16:27:40.135179,0.998770534992218,-0.011386641301214695,-0.04823562502861023,-0.0011350450804457068,-0.19580078125,0.916015625,0.32177734375
2023-08-01T16:27:40.136176,0.9987711310386658,-0.011325289495289326,-0.048236358910799026,-0.0011907346779480577,-0.19580078125,0.916015625,0.32177734375
2023-08-01T16:27:40.151314,0.9987711310386658,-0.011325289495289326,-0.048236358910799026,-0.0011907346779480577,-0.19287109375,0.9169921875,0.31884765625
2023-08-01T16:27:40.152312,0.9987709522247314,-0.01132249552756548,-0.04823700711131096,-0.001248560263775289,-0.19287109375,0.9169921875,0.31884765625
2023-08-01T16:27:40.159079,0.9987709522247314,-0.01132249552756548,-0.04823700711131096,-0.001248560263775289,-0.19775390625,0.91552734375,0.31005859375
2023-08-01T16:27:40.160078,0.9987708330154419,-0.011317417956888676,-0.04823819920420647,-0.0013537006452679634,-0.19775390625,0.91552734375,0.31005859375
2023-08-01T16:27:40.166060,0.9987708330154419,-0.011317417956888676,-0.04823819920420647,-0.0013537006452679634,-0.2060546875,0.91845703125,0.31298828125
2023-08-01T16:27:40.166060,0.9987706542015076,-0.011312086135149002,-0.04823945090174675,-0.0014640981098636985,-0.2060546875,0.91845703125,0.31298828125
2023-08-01T16:27:40.189435,0.9987706542015076,-0.011312086135149002,-0.04823945090174675,-0.0014640981098636985,-0.20458984375,0.92333984375,0.30859375
2023-08-01T16:27:40.189435,0.9987667798995972,-0.011309662833809853,-0.048318952322006226,-0.0015157728921622038,-0.20458984375,0.92333984375,0.30859375
2023-08-01T16:27:40.190437,0.9987667798995972,-0.011309662833809853,-0.048318952322006226,-0.0015157728921622038,-0.19921875,0.9208984375,0.30712890625
2023-08-01T16:27:40.203426,0.9987611770629883,-0.011309838853776455,-0.048434656113386154,-0.0015144626377150416,-0.19921875,0.9208984375,0.30712890625
2023-08-01T16:27:40.205421,0.9987611770629883,-0.011309838853776455,-0.048434656113386154,-0.0015144626377150416,-0.1953125,0.9150390625,0.31298828125
2023-08-01T16:27:40.206929,0.998755693435669,-0.011375258676707745,-0.04852994158864021,-0.0015797868836671114,-0.1953125,0.9150390625,0.31298828125
2023-08-01T16:27:40.213440,0.998755693435669,-0.011375258676707745,-0.04852994158864021,-0.0015797868836671114,-0.193359375,0.90966796875,0.318359375
2023-08-01T16:27:40.214437,0.9987499117851257,-0.011428619734942913,-0.0486363023519516,-0.0015811591874808073,-0.193359375,0.90966796875,0.318359375
2023-08-01T16:27:40.218446,0.9987499117851257,-0.011428619734942913,-0.0486363023519516,-0.0015811591874808073,-0.19384765625,0.91162109375,0.322265625
2023-08-01T16:27:40.220443,0.9987428784370422,-0.011493828147649765,-0.04876319319009781,-0.0016513813752681017,-0.19384765625,0.91162109375,0.322265625
2023-08-01T16:27:40.226937,0.9987428784370422,-0.011493828147649765,-0.04876319319009781,-0.0016513813752681017,-0.19580078125,0.90966796875,0.31982421875
2023-08-01T16:27:40.228443,0.9987378716468811,-0.011489886790513992,-0.04886409267783165,-0.001734340563416481,-0.19580078125,0.90966796875,0.31982421875
2023-08-01T16:27:40.233433,0.9987378716468811,-0.011489886790513992,-0.04886409267783165,-0.001734340563416481,-0.20068359375,0.91162109375,0.31298828125
