Timestamp,Index,Frame ID,w,x,y,z,ax,ay,az,x_0,y_0,z_0,x_1,y_1,z_1,x_2,y_2,z_2,x_3,y_3,z_3,x_4,y_4,z_4,x_5,y_5,z_5,x_6,y_6,z_6,x_7,y_7,z_7,x_8,y_8,z_8,x_9,y_9,z_9,x_10,y_10,z_10,x_11,y_11,z_11,x_12,y_12,z_12,x_13,y_13,z_13,x_14,y_14,z_14,x_15,y_15,z_15,x_16,y_16,z_16,x_17,y_17,z_17,x_18,y_18,z_18,x_19,y_19,z_19,x_20,y_20,z_20
2023-08-01 16:24:32.141300,0,0,0.9999806880950928,-0.0054723084904253,-0.0004393825656734,-0.0029306092765182,0.02978515625,0.96484375,0.1669921875,0.5582993626594543,0.7782224416732788,-2.547966744259611e-07,0.5239927172660828,0.7150610685348511,0.0033758387435227633,0.5168877243995667,0.6281452178955078,0.008341319859027863,0.5136746168136597,0.5616368055343628,0.0068458495661616325,0.5225307941436768,0.5072381496429443,0.0063323816284537315,0.5803754925727844,0.5941261053085327,0.045326583087444305,0.5889259576797485,0.5349301099777222,0.039582815021276474,0.5763557553291321,0.5057728886604309,0.02753083035349846,0.5618303418159485,0.49283233284950256,0.018949106335639954,0.6087766289710999,0.6017112731933594,0.03286093845963478,0.6235942840576172,0.5303676128387451,0.024804702028632164,0.604174017906189,0.4981410503387451,0.008726428262889385,0.5761337876319885,0.4918118119239807,-0.0008479718235321343,0.6333191394805908,0.6184945106506348,0.015764975920319557,0.6583665013313293,0.5376488566398621,0.004006498027592897,0.6336341500282288,0.5014397501945496,-0.009324939921498299,0.6028321385383606,0.49406832456588745,-0.015690399333834648,0.6509589552879333,0.6400203108787537,-0.0020284659694880247,0.6465798020362854,0.5664152503013611,-0.016874469816684723,0.6194279789924622,0.5280610918998718,-0.027654482051730156,0.5916048288345337,0.5124495625495911,-0.03292592987418175
2023-08-01 16:24:32.246069,1,1,0.9999794363975524,-0.0057081426493823,-9.570023394189776e-05,-0.0029326861258596,0.03369140625,0.978515625,0.1787109375,0.5564355254173279,0.7878314852714539,-3.1709450354355795e-07,0.5239991545677185,0.7188032865524292,0.002260947600007057,0.518330454826355,0.631058931350708,0.005097890272736549,0.5157262682914734,0.5649375319480896,0.0017587736947461963,0.524116039276123,0.5105820894241333,-0.0005464534624479711,0.5855050683021545,0.59310382604599,0.03831194341182709,0.5924009084701538,0.5282342433929443,0.02773740328848362,0.5769749879837036,0.5001677870750427,0.013177348300814629,0.5601620674133301,0.49293604493141174,0.003993122838437557,0.6125156879425049,0.601288378238678,0.02651095576584339,0.6268423199653625,0.5243349671363831,0.014635372906923294,0.6039742827415466,0.4956669509410858,-0.002363458974286914,0.5745916962623596,0.4944772720336914,-0.011909432709217072,0.6359139084815979,0.6187528967857361,0.010462616570293903,0.662898063659668,0.5334647297859192,-0.0034280377440154552,0.6345475912094116,0.49933111667633057,-0.015101366676390171,0.6013318300247192,0.4948297142982483,-0.019889483228325844,0.6513487100601196,0.6417973637580872,-0.006162981502711773,0.6494407653808594,0.5670239925384521,-0.02045617625117302,0.6232476234436035,0.5283806324005127,-0.02862222120165825,0.5965360403060913,0.5109993815422058,-0.03163381665945053
2023-08-01 16:24:32.318239,2,2,0.9999772906303406,-0.0061233881860971,9.562799823470414e-05,-0.0028021917678415,0.033203125,0.98046875,0.17919921875,0.5571122765541077,0.7955477237701416,-3.8053107687119336e-07,0.5238169431686401,0.7248130440711975,0.0045211161486804485,0.5179723501205444,0.6332862377166748,0.010389456525444984,0.5161172151565552,0.5641791820526123,0.009575030766427517,0.5236493349075317,0.5092466473579407,0.009655952453613281,0.5826593637466431,0.5971304178237915,0.04555066302418709,0.5922365784645081,0.5336054563522339,0.03838132694363594,0.5756772756576538,0.5059915781021118,0.0253912340849638,0.5571640133857727,0.49663493037223816,0.01681186817586422,0.6083806753158569,0.6034446358680725,0.0339263379573822,0.6223464608192444,0.5267761945724487,0.02488405629992485,0.5989944934844971,0.4984380006790161,0.00840739905834198,0.5695383548736572,0.4932750165462494,-0.0013386892387643456,0.6326177716255188,0.6182253360748291,0.018003132194280624,0.6584264039993286,0.5316097736358643,0.005693611688911915,0.6304944753646851,0.5023994445800781,-0.006218844559043646,0.5975481271743774,0.499330073595047,-0.011638958007097244,0.6521152257919312,0.6378805637359619,0.0016921279020607471,0.645314633846283,0.5629327893257141,-0.010774603113532066,0.617496132850647,0.5289842486381531,-0.01843152940273285,0.5900888442993164,0.5134066343307495,-0.021749835461378098
2023-08-01 16:24:32.385378,3,3,0.9999785423278807,-0.0061231884174048,0.0001256581890629,-0.002339155646041,0.0283203125,0.966796875,0.17333984375,0.553656816482544,0.8013667464256287,-3.525024681039213e-07,0.5230789184570312,0.7255293130874634,0.0033411718904972076,0.5184400081634521,0.6331057548522949,0.007359739392995834,0.5160937309265137,0.565405547618866,0.004644773900508881,0.5229791402816772,0.5088924169540405,0.0032166189048439264,0.5839381814002991,0.5945098996162415,0.04251924157142639,0.5934537649154663,0.528375506401062,0.0314011387526989,0.5753306746482849,0.5012251734733582,0.016092894598841667,0.554731011390686,0.4933665692806244,0.00665315194055438,0.6096974611282349,0.6017264723777771,0.03049173764884472,0.6255702376365662,0.5215870141983032,0.017747653648257256,0.6001660823822021,0.49494674801826477,0.0003515279677230865,0.5686101913452148,0.4945780634880066,-0.008981242775917053,0.6331915855407715,0.6179804801940918,0.01394282653927803,0.6612666249275208,0.5306621193885803,0.0005041075055487454,0.6313364505767822,0.49915826320648193,-0.010856088250875473,0.5960546731948853,0.4959368407726288,-0.015392160974442959,0.6503539681434631,0.6402685642242432,-0.0033469179179519415,0.6477625370025635,0.5672787427902222,-0.01545525249093771,0.6204573512077332,0.5310444235801697,-0.02272764965891838,0.592074453830719,0.5141310691833496,-0.025414306670427322
2023-08-01 16:24:32.458180,4,4,0.9999799728393556,-0.0059588789008557,0.0002589802024886,-0.0021127935033291,0.04541015625,0.97412109375,0.16259765625,0.5553848147392273,0.8083584904670715,-3.825606427199091e-07,0.5233609676361084,0.7316803336143494,0.005965624935925007,0.5183569192886353,0.6358389258384705,0.012886473909020424,0.5163998603820801,0.5663028955459595,0.012443349696695805,0.5225831866264343,0.5108159780502319,0.013390296138823032,0.5829579830169678,0.5981991291046143,0.05008980259299278,0.5917090773582458,0.5310842394828796,0.042104870080947876,0.5733445286750793,0.5034043192863464,0.028102010488510132,0.552452802658081,0.4945034980773926,0.019313817843794823,0.6073242425918579,0.6035301685333252,0.03767138347029686,0.6215177774429321,0.5231917500495911,0.028094539418816566,0.5966082215309143,0.4956468641757965,0.011691084131598473,0.5653179287910461,0.49320363998413086,0.0027118846774101257,0.6310938000679016,0.6171243786811829,0.020664595067501068,0.6553241014480591,0.5292339324951172,0.009824920445680618,0.626981258392334,0.4990575611591339,-0.00045283001963980496,0.5931890606880188,0.49642491340637207,-0.0045961360447108746,0.6513394117355347,0.6366276741027832,0.0029165400192141533,0.6490619778633118,0.5619823932647705,-0.006173265632241964,0.6226760149002075,0.5276600122451782,-0.011244961991906166,0.5945574641227722,0.5126702189445496,-0.012826157733798027
2023-08-01 16:24:32.517147,5,5,0.9999774694442748,-0.00627047335729,5.244601561571472e-05,-0.0024124772753566,0.033203125,0.9716796875,0.16943359375,0.5525805354118347,0.8103159070014954,-3.448086829394015e-07,0.5227510929107666,0.7311601042747498,0.006225943099707365,0.5172092318534851,0.6370483636856079,0.012697773054242134,0.5152320861816406,0.5690813660621643,0.011880027130246162,0.5227436423301697,0.5147706866264343,0.012190662324428558,0.5818901062011719,0.596839189529419,0.049978140741586685,0.5920743942260742,0.5317543745040894,0.04193595424294472,0.5752527117729187,0.504306435585022,0.027672331780195236,0.5547939538955688,0.494891881942749,0.01878570206463337,0.6072021722793579,0.6033281087875366,0.0374947264790535,0.6247060894966125,0.5249273180961609,0.02794203907251358,0.6026281118392944,0.4967419505119324,0.01088722888380289,0.5721517205238342,0.4940495491027832,0.00146451685577631,0.6310961842536926,0.6186208128929138,0.020506367087364197,0.6582866311073303,0.5350229144096375,0.010402290150523186,0.6327152252197266,0.5023579597473145,-0.0007722620503045619,0.5991792678833008,0.4968867599964142,-0.005789289250969887,0.6503445506095886,0.6403907537460327,0.002849068958312273,0.6488796472549438,0.5696320533752441,-0.005425766576081514,0.6246131658554077,0.5340625047683716,-0.010941865853965282,0.5970351696014404,0.5162091255187988,-0.012992867268621922
2023-08-01 16:24:32.577209,6,6,0.9999790191650392,-0.0060513797216117,-0.0007485212991014,-0.0022125612013041,0.02294921875,0.9716796875,0.1650390625,0.5522384643554688,0.8081151247024536,-3.416024298985576e-07,0.5228145718574524,0.7287768721580505,0.0023739561438560486,0.5173721313476562,0.6357609033584595,0.005767893046140671,0.5152527689933777,0.5676417350769043,0.002944907173514366,0.5230162739753723,0.5121719241142273,0.0014144559390842915,0.5814900398254395,0.5949020385742188,0.040984153747558594,0.5917855501174927,0.5278005599975586,0.029559601098299026,0.5735908150672913,0.500713586807251,0.013995415531098843,0.5520586371421814,0.4924296736717224,0.004605553112924099,0.6073896288871765,0.6020150780677795,0.03019615449011326,0.622712254524231,0.5223361253738403,0.018608534708619118,0.5987874865531921,0.4952749013900757,0.001600911607965827,0.5680789947509766,0.4923931360244751,-0.008013180457055569,0.6314327120780945,0.6187031269073486,0.014908981509506702,0.6578854322433472,0.5342018604278564,0.0030460781417787075,0.6300245523452759,0.5023446083068848,-0.007777387276291847,0.5955331325531006,0.49626585841178894,-0.012681392952799797,0.6495247483253479,0.6427091360092163,-0.0011934346985071898,0.6452986001968384,0.5727876424789429,-0.011023573577404022,0.6199526786804199,0.5392120480537415,-0.016839412972331047,0.5926644206047058,0.5218877196311951,-0.018991298973560333
2023-08-01 16:24:32.642994,7,7,0.9999793171882628,-0.0059645227156579,-0.0017730802064761,-0.001658919150941,0.029296875,0.97021484375,0.16455078125,0.5532236695289612,0.8074567914009094,-3.660735501398449e-07,0.5228912234306335,0.7282279133796692,0.00537470169365406,0.5173624157905579,0.6349868774414062,0.010487676598131657,0.5154654383659363,0.566749095916748,0.008475499227643013,0.5224769711494446,0.5119274854660034,0.007589971646666527,0.5825055241584778,0.5954727530479431,0.04561789706349373,0.5925214290618896,0.5298729538917542,0.035261236131191254,0.5741515755653381,0.5026419758796692,0.020252496004104614,0.552629828453064,0.4944222569465637,0.011119728907942772,0.6082014441490173,0.6021126508712769,0.03310451656579971,0.6236312389373779,0.5225424766540527,0.022173495963215828,0.5988157987594604,0.4964592456817627,0.005836422089487314,0.5679250359535217,0.49483999609947205,-0.0031630038283765316,0.6320394277572632,0.6178281903266907,0.01608363538980484,0.6594393253326416,0.5311617255210876,0.004135100170969963,0.6302521228790283,0.4999479651451111,-0.005985458847135305,0.595507800579071,0.4959624409675598,-0.010089073330163956,0.6498568654060364,0.6402416229248047,-0.00160387868527323,0.6461603045463562,0.5671999454498291,-0.012090935371816158,0.619585394859314,0.5328986048698425,-0.01779383234679699,0.5919371247291565,0.5163640379905701,-0.019601600244641304
2023-08-01 16:24:32.704561,8,8,0.9999743103981018,-0.0059688426554203,-0.0038473135791718,-0.0010024671209976,0.052734375,0.96923828125,0.1708984375,0.5536129474639893,0.8082318305969238,-3.690323922000971e-07,0.5230911374092102,0.7301095128059387,0.006591975223273039,0.5177924633026123,0.6367750763893127,0.013043789193034172,0.516093909740448,0.568305492401123,0.011934018693864346,0.522729754447937,0.5139371752738953,0.012058231979608536,0.5824977159500122,0.5956488847732544,0.04933314770460129,0.5923692584037781,0.5281581878662109,0.040023498237133026,0.5740570425987244,0.5007612109184265,0.025243164971470833,0.5521911978721619,0.4935021996498108,0.016356252133846283,0.6076196432113647,0.6013000011444092,0.036537837237119675,0.6241431832313538,0.5203101634979248,0.025790873914957047,0.5997350811958313,0.4935671091079712,0.008608730509877205,0.5678755640983582,0.4934327006340027,-0.0005006070132367313,0.6314634084701538,0.6161345839500427,0.01928333193063736,0.6594275236129761,0.5301117897033691,0.00838727317750454,0.6322304606437683,0.498782753944397,-0.002311525633558631,0.5980052947998047,0.49584484100341797,-0.006611939985305071,0.6506911516189575,0.6377474069595337,0.0013420486357063055,0.6511214971542358,0.5658443570137024,-0.007727269548922777,0.6266267895698547,0.5299458503723145,-0.013330773450434208,0.599102258682251,0.5131785869598389,-0.015093511901795864
2023-08-01 16:24:32.773213,9,9,0.9999436736106871,-0.0060506234876811,-0.0087088886648416,-0.0004833430284634,0.048828125,0.97509765625,0.1650390625,0.5543832182884216,0.8097144365310669,-3.61378141633395e-07,0.5240436792373657,0.7309849858283997,0.005931182764470577,0.5179259181022644,0.6366832852363586,0.012263801880180836,0.5157016515731812,0.5673424005508423,0.011074426583945751,0.5233684778213501,0.5139744877815247,0.011087107472121716,0.5820683240890503,0.5964260101318359,0.04994499310851097,0.5917118787765503,0.5301499366760254,0.040580011904239655,0.5746455788612366,0.5028165578842163,0.025416944175958633,0.5536535978317261,0.494811475276947,0.016238229349255562,0.6070624589920044,0.6013082265853882,0.03750520572066307,0.6234949231147766,0.5217047929763794,0.026683492586016655,0.6002064943313599,0.49439284205436707,0.009175600484013557,0.568930983543396,0.49294355511665344,-0.00016918143955990672,0.6311102509498596,0.6156863570213318,0.020448528230190277,0.6582850813865662,0.5315407514572144,0.009738324210047722,0.6327944397926331,0.49982112646102905,-0.001092471182346344,0.5996828079223633,0.49601149559020996,-0.005462311673909426,0.6508486270904541,0.6373509764671326,0.0025767944753170013,0.6532678008079529,0.5656827688217163,-0.005652233958244324,0.6304162740707397,0.5289121270179749,-0.010810659267008305,0.603624165058136,0.5112811923027039,-0.012382018379867077
2023-08-01 16:24:32.865953,10,10,0.9995850324630736,-0.0071402443572878,-0.0278331786394119,0.0020133471116423,0.00537109375,0.97705078125,0.15283203125,0.5527714490890503,0.8072395324707031,-3.1966513347470027e-07,0.5234564542770386,0.7277133464813232,0.004199732095003128,0.5174121260643005,0.6351143717765808,0.00890254694968462,0.5162033438682556,0.566841185092926,0.006687385495752096,0.5262390375137329,0.5126089453697205,0.005638988688588142,0.5811623930931091,0.5932101607322693,0.04621076211333275,0.5919348001480103,0.5293011665344238,0.03657850623130798,0.5765792727470398,0.5019916296005249,0.02158704213798046,0.5576721429824829,0.4925529360771179,0.012278134003281593,0.6068772673606873,0.6002766489982605,0.03433476760983467,0.6254169940948486,0.5227816700935364,0.023557079955935478,0.6034336090087891,0.49609214067459106,0.00653311749920249,0.5731597542762756,0.4941830635070801,-0.0028073315043002367,0.6308121681213379,0.6167075634002686,0.01786285825073719,0.6589660048484802,0.5344051122665405,0.006830740720033646,0.6331601142883301,0.5021920204162598,-0.004012952093034983,0.5997990965843201,0.4973013997077942,-0.008706807158887386,0.6493130326271057,0.6400707364082336,0.0005607866332866251,0.6491641998291016,0.5700578689575195,-0.008413790725171566,0.6252610683441162,0.5348743796348572,-0.013943146914243698,0.598109781742096,0.5180917978286743,-0.01586928404867649
2023-08-01 16:24:32.947091,11,11,0.9991323947906494,-0.0078976321965456,-0.0405270271003246,0.0054407576099038,0.0625,0.962890625,0.1083984375,0.5536540150642395,0.8060195446014404,-3.162461155170604e-07,0.5240582823753357,0.728060245513916,0.004060657229274511,0.5175954103469849,0.6356050372123718,0.009355026297271252,0.5165113210678101,0.5672149658203125,0.007601553574204445,0.5256339907646179,0.5120887756347656,0.007094991859048605,0.5814253687858582,0.594152569770813,0.04806292802095413,0.5915279388427734,0.5303555727005005,0.03933269530534744,0.5775140523910522,0.5039263367652893,0.024727744981646538,0.5600602030754089,0.4951612949371338,0.015679122880101204,0.6070126295089722,0.6002039909362793,0.036722153425216675,0.6233852505683899,0.5229885578155518,0.026822039857506752,0.602561354637146,0.49717432260513306,0.010050787590444088,0.5740273594856262,0.49566423892974854,0.0009120820323005319,0.6308900713920593,0.6155927181243896,0.020719580352306366,0.6573710441589355,0.5333171486854553,0.010642371140420437,0.6327375173568726,0.5037245750427246,0.0010929584968835115,0.60111403465271,0.5013844966888428,-0.0025170857552438974,0.6502854824066162,0.6380883455276489,0.0037431810051202774,0.6531033515930176,0.5664727687835693,-0.004053881391882896,0.6306372880935669,0.5309913754463196,-0.008239774033427238,0.6043887138366699,0.5150285959243774,-0.00909295491874218
2023-08-01 16:24:33.034225,12,12,0.9986799955368042,-0.008209403604269,-0.0501663722097873,0.0073512345552444,0.06640625,0.97705078125,0.162109375,0.5521721839904785,0.8064466714859009,-2.910232410613389e-07,0.5219178795814514,0.7308409810066223,0.00035019719507545233,0.5156968235969543,0.6345623731613159,0.0044891745783388615,0.5149772763252258,0.5643061399459839,0.002493599196895957,0.5243670344352722,0.5107530355453491,0.0018517428543418646,0.5764100551605225,0.5943162441253662,0.042284172028303146,0.5861385464668274,0.5330965518951416,0.03175894916057587,0.575702965259552,0.5048806667327881,0.016155170276761055,0.559694766998291,0.49270325899124146,0.006493707653135061,0.602946400642395,0.5997676849365234,0.03262481838464737,0.619812548160553,0.5251902937889099,0.020037617534399033,0.6026331782341003,0.4993138015270233,0.0023957453668117523,0.5746293067932129,0.49747583270072937,-0.006676007993519306,0.6278005838394165,0.6144543290138245,0.01824774220585823,0.653067946434021,0.5358636379241943,0.006452435161918402,0.6329092383384705,0.5045262575149536,-0.004250857047736645,0.6020628213882446,0.4999151825904846,-0.00810687243938446,0.6483702659606934,0.6368823647499084,0.002606999594718218,0.6539088487625122,0.5679123997688293,-0.0059748743660748005,0.6364672780036926,0.5299046635627747,-0.011082866229116917,0.6118813753128052,0.5107524991035461,-0.012358604930341244
2023-08-01 16:24:33.107781,13,13,0.99857097864151,-0.0079338606446981,-0.0520663894712924,0.0090581774711608,0.09033203125,0.96533203125,0.1494140625,0.5520481467247009,0.8029015064239502,-2.9100073106747004e-07,0.5224078297615051,0.7270039319992065,0.0004191723419353366,0.515919029712677,0.6331102848052979,0.003914421424269676,0.5148298144340515,0.5641943216323853,0.0011990590719506145,0.5256463289260864,0.511120617389679,-1.1699539754772559e-05,0.5764439702033997,0.5932662487030029,0.042457811534404755,0.5867511034011841,0.5332372188568115,0.030894428491592407,0.5742640495300293,0.5071661472320557,0.014954023994505405,0.557458758354187,0.49982255697250366,0.005473176948726177,0.6024837493896484,0.597324788570404,0.03295605257153511,0.6199835538864136,0.5233699083328247,0.019999587908387184,0.6009248495101929,0.4993894100189209,0.0028041768819093704,0.573051929473877,0.5011956691741943,-0.005654136184602976,0.6272092461585999,0.6116763949394226,0.018611738458275795,0.6536805629730225,0.5324365496635437,0.006397344172000885,0.6313113570213318,0.502335250377655,-0.003547522472217679,0.6004161834716797,0.5008000731468201,-0.006493855733424425,0.6476050615310669,0.6344729065895081,0.00303075578995049,0.6533132195472717,0.565865159034729,-0.006222666706889868,0.6345189809799194,0.5286579132080078,-0.01124892570078373,0.6097801923751831,0.5112787485122681,-0.012021813541650772
2023-08-01 16:24:33.176103,14,14,0.9984541535377502,-0.0086785657331347,-0.0539424568414688,0.0102101266384124,0.07177734375,0.9736328125,0.1796875,0.5536133050918579,0.8066972494125366,-2.7027414262192906e-07,0.5232778191566467,0.730832576751709,0.0011667389189824462,0.5156373381614685,0.6352602243423462,0.006216171197593212,0.5146482586860657,0.5630479454994202,0.004599129781126976,0.5282098054885864,0.5085113048553467,0.00448601832613349,0.5749244093894958,0.5970380306243896,0.04925353825092316,0.5856305360794067,0.5384394526481628,0.04070712998509407,0.5753673911094666,0.51054847240448,0.025981353595852852,0.5598923563957214,0.49748727679252625,0.016701847314834595,0.6018502116203308,0.6014639139175415,0.0394895076751709,0.6203116774559021,0.5279607772827148,0.027704179286956787,0.6031273603439331,0.5020570755004883,0.009636614471673965,0.5751074552536011,0.5014691948890686,0.0006686051492579281,0.6267010569572449,0.6145888566970825,0.024699371308088303,0.6529579758644104,0.5367893576622009,0.013011899776756763,0.6321371793746948,0.5055288672447205,0.0018540150485932827,0.6011568903923035,0.5020790696144104,-0.0016803533071652055,0.6476382613182068,0.6345278024673462,0.008713017217814922,0.654511034488678,0.5650867819786072,0.00023775968293193728,0.6365382075309753,0.526611328125,-0.005007118918001652,0.6117299199104309,0.5085201263427734,-0.006073674187064171
2023-08-01 16:24:33.229870,15,15,0.998400330543518,-0.0086043048650026,-0.0547798536717891,0.0110428566113114,0.0625,0.9736328125,0.1806640625,0.5527650713920593,0.8038574457168579,-2.4748274540797865e-07,0.5219075083732605,0.7297212481498718,-0.0004802806652151048,0.5146352648735046,0.6346602439880371,0.003708433825522661,0.5145866870880127,0.5622368454933167,0.00181497388985008,0.526714563369751,0.5056586861610413,0.0018890195060521364,0.5744173526763916,0.5924201607704163,0.046450529247522354,0.5842023491859436,0.5346472859382629,0.03804770112037659,0.5737246870994568,0.5083907246589661,0.023670218884944916,0.5593816637992859,0.4969700574874878,0.014443399384617805,0.6002649068832397,0.5956249833106995,0.03778470680117607,0.6167566180229187,0.5229508876800537,0.026789121329784393,0.5997802019119263,0.49918332695961,0.009963181801140308,0.5731806755065918,0.5022059082984924,0.0016529549611732364,0.624286413192749,0.608864426612854,0.024108001962304115,0.648004949092865,0.5315764546394348,0.0136049659922719,0.6283353567123413,0.5029542446136475,0.004172577988356352,0.5993131995201111,0.5038867592811584,0.0016128479037433863,0.6457688808441162,0.6304764151573181,0.008916834369301796,0.6553491353988647,0.562131404876709,0.0009609520784579217,0.6390362977981567,0.5234618782997131,-0.003751203417778015,0.614651083946228,0.5072872638702393,-0.004394359886646271
2023-08-01 16:24:33.289391,16,16,0.9982370138168336,-0.0081781931221485,-0.0574639849364757,0.0124120526015758,0.06787109375,0.97119140625,0.16162109375,0.5510808825492859,0.8022069334983826,-2.5631473477005784e-07,0.5214595198631287,0.7264829277992249,-0.000274800811894238,0.5143710970878601,0.6330588459968567,0.0035728714428842068,0.5139195919036865,0.562616765499115,0.0013419523602351546,0.5275258421897888,0.5085715651512146,0.0006916410056874156,0.5733236074447632,0.5941512584686279,0.04454582557082176,0.583167314529419,0.5369267463684082,0.03566119074821472,0.5734041929244995,0.5096222758293152,0.021094897761940956,0.5592482089996338,0.49674904346466064,0.011704211123287678,0.6001167893409729,0.597430408000946,0.03558598458766937,0.6170911192893982,0.5252546072006226,0.02404765598475933,0.5999709963798523,0.500116229057312,0.0068917726166546345,0.5724899172782898,0.5003713965415955,-0.0017706925282254815,0.6250681281089783,0.610669732093811,0.021835628896951675,0.6504031419754028,0.5333565473556519,0.010564169846475124,0.6302891969680786,0.5026007294654846,0.0006564506329596043,0.5998911261558533,0.5003831386566162,-0.0022740827407687902,0.6458023190498352,0.6318503022193909,0.006739337462931871,0.6528095602989197,0.5635406374931335,-0.00185239571146667,0.6358140707015991,0.5246958136558533,-0.006676835473626852,0.6112245917320251,0.5068651437759399,-0.007370219565927982
2023-08-01 16:24:33.354573,17,17,0.9982274174690248,-0.0082500157877802,-0.0573455542325973,0.0136220762506127,0.09375,0.95654296875,0.16015625,0.5511854290962219,0.8026987910270691,-2.582859224276035e-07,0.5223121643066406,0.7265483736991882,0.00035969630698673427,0.5149189829826355,0.6319310665130615,0.004526359029114246,0.5136671662330627,0.5607592463493347,0.0022640519309788942,0.5261453986167908,0.5049987435340881,0.001563766272738576,0.5735862255096436,0.5936771035194397,0.046915534883737564,0.5834230184555054,0.5364544987678528,0.0383898988366127,0.573334813117981,0.5095090270042419,0.023787623271346092,0.558988630771637,0.4960499107837677,0.014199096709489822,0.5999842286109924,0.5966777205467224,0.03747761249542236,0.6161926984786987,0.5249015092849731,0.026415832340717316,0.5985611081123352,0.4996962547302246,0.009173465892672539,0.5712604522705078,0.4986177682876587,0.00030889007030054927,0.6247595548629761,0.6097453236579895,0.023110339418053627,0.6499078273773193,0.5312975645065308,0.012029815465211868,0.6294704675674438,0.5008323192596436,0.0024639542680233717,0.5990480184555054,0.4981342554092407,-0.0002450502070132643,0.6457971930503845,0.6313342452049255,0.007385551929473877,0.6529272794723511,0.5622339248657227,-0.0012359207030385733,0.6357975006103516,0.5237513780593872,-0.005832083523273468,0.611260712146759,0.5060454607009888,-0.006325406488031149
2023-08-01 16:24:33.415035,18,18,0.9981761574745178,-0.0080549148842692,-0.0581228882074356,0.0141835799440741,0.08935546875,0.96923828125,0.15185546875,0.5510474443435669,0.8021333813667297,-2.7048588435718557e-07,0.5215696096420288,0.7264647483825684,0.0008057958330027759,0.5146687030792236,0.6324052214622498,0.005261722486466169,0.5133417248725891,0.5615994930267334,0.0032661210279911757,0.5262614488601685,0.5072533488273621,0.0028046988882124424,0.5735113024711609,0.5930085182189941,0.04646141082048416,0.5830128788948059,0.5345889329910278,0.03712614253163338,0.572431206703186,0.506888747215271,0.022275112569332123,0.5574445128440857,0.4945219159126282,0.012927493080496788,0.5998274087905884,0.5962983965873718,0.03688409551978111,0.6174138784408569,0.523076593875885,0.02471310831606388,0.5994757413864136,0.4982103109359741,0.007579424884170294,0.5713388919830322,0.4987648129463196,-0.0006320434040389955,0.6245879530906677,0.6095343828201294,0.022382039576768875,0.6501679420471191,0.5312972068786621,0.010814026929438114,0.6294310092926025,0.5006386041641235,0.0011232811957597733,0.5986781120300293,0.4978843927383423,-0.0013854483840987086,0.6454278826713562,0.630943775177002,0.006558693945407867,0.652941107749939,0.5624843835830688,-0.0019344427855685353,0.635427713394165,0.5236772298812866,-0.0066496506333351135,0.6104794144630432,0.5049796104431152,-0.0071953944861888885
2023-08-01 16:24:33.477931,19,19,0.9981447458267212,-0.008105868473649,-0.0586532019078731,0.0141844460740685,0.06982421875,0.97509765625,0.162109375,0.5511113405227661,0.8012791872024536,-2.6152673626711476e-07,0.5212773680686951,0.7261280417442322,-0.00044651428470388055,0.5142634510993958,0.6311700940132141,0.003658852307125926,0.5125746726989746,0.5608880519866943,0.0016140758525580168,0.5234159231185913,0.5062669515609741,0.0012079367879778147,0.5723235011100769,0.5920345187187195,0.04471522569656372,0.5811569094657898,0.5333962440490723,0.03509123995900154,0.5705621838569641,0.5060815811157227,0.020104557275772095,0.556135892868042,0.4936959743499756,0.010618007741868496,0.5980843305587769,0.5944517850875854,0.035861410200595856,0.6147341728210449,0.5212463736534119,0.02358555793762207,0.5967431664466858,0.4966561794281006,0.006586573086678982,0.569756805896759,0.4969642758369446,-0.0016815143171697855,0.6226019859313965,0.6070905923843384,0.022015884518623352,0.6473516225814819,0.5282866358757019,0.010447840206325054,0.6266323328018188,0.49892231822013855,0.0009192015277221799,0.5970250368118286,0.497494637966156,-0.0015658688498660922,0.6439647078514099,0.6281749606132507,0.006713636685162783,0.6520604491233826,0.5595039129257202,-0.0016199134988710284,0.6347598433494568,0.5213373899459839,-0.006213903892785311,0.6105356812477112,0.5035954117774963,-0.006770797539502382
2023-08-01 16:24:33.536880,20,20,0.998205065727234,-0.0081895012408494,-0.0575899705290794,0.0142495557665824,0.052734375,0.974609375,0.17822265625,0.5513051152229309,0.8034242391586304,-2.553316562625696e-07,0.5203256011009216,0.7280380725860596,-0.0016756798140704632,0.5131059288978577,0.6332818269729614,0.0016439363826066256,0.5124752521514893,0.561676561832428,-0.0009770606411620975,0.5254998207092285,0.5067316293716431,-0.001719490042887628,0.5712164044380188,0.5924836993217468,0.04366534948348999,0.5807582139968872,0.5325809121131897,0.03334242105484009,0.5702296495437622,0.5052639245986938,0.018070679157972336,0.5557520985603333,0.49393999576568604,0.00851934589445591,0.5976222157478333,0.595085859298706,0.035350799560546875,0.6130209565162659,0.5213149785995483,0.022426670417189598,0.5959530472755432,0.49640244245529175,0.004787043668329716,0.5692403316497803,0.4978688061237335,-0.0038660410791635513,0.6223751306533813,0.6076133847236633,0.021978309378027916,0.6460329294204712,0.5295600295066833,0.009908369742333889,0.625880777835846,0.49985888600349426,-0.0001291148946620524,0.5958932042121887,0.49925217032432556,-0.0028813397511839867,0.643729567527771,0.6284494400024414,0.007061193231493235,0.651051938533783,0.5611319541931152,-0.0016840628813952208,0.6347926259040833,0.5215508937835693,-0.006891523953527212,0.610858142375946,0.5028321743011475,-0.007808046881109476
2023-08-01 16:24:33.603196,21,21,0.9982101321220398,-0.0076490323990583,-0.0577271431684494,0.0136210760101675,0.0703125,0.98046875,0.15087890625,0.548427402973175,0.8001537322998047,-2.593168062503537e-07,0.5189805030822754,0.7250826954841614,-0.0006896575796417892,0.5127016305923462,0.6311183571815491,0.002519558183848858,0.5123701095581055,0.5614689588546753,-0.00019287441682536155,0.5242213606834412,0.5071171522140503,-0.0011308126850053668,0.5722844004631042,0.5884904265403748,0.04210523143410683,0.5822976231575012,0.530222475528717,0.03133489564061165,0.5710836052894592,0.5033625960350037,0.015880189836025238,0.5549634695053101,0.4916977286338806,0.006386547349393368,0.5984801650047302,0.5914139747619629,0.03324852138757706,0.6156473755836487,0.5196849703788757,0.02036544680595398,0.5974478721618652,0.4948187470436096,0.003404686227440834,0.5689584016799927,0.49554741382598877,-0.004652629606425762,0.6228961944580078,0.6049004793167114,0.01959112472832203,0.6480469703674316,0.5286145806312561,0.007926209829747677,0.6279661655426025,0.498290479183197,-0.0011005302658304572,0.5977141857147217,0.4963359236717224,-0.003142773872241378,0.6430360674858093,0.627240777015686,0.004487403202801943,0.6514220833778381,0.5604994297027588,-0.003718998283147812,0.6357945799827576,0.5211830735206604,-0.007893526926636696,0.6122190952301025,0.5023026466369629,-0.007901967503130436
2023-08-01 16:24:33.664174,22,22,0.9982588291168212,-0.0077869049273431,-0.0568652488291263,0.01360718999058,0.078125,0.96337890625,0.16259765625,0.5495848059654236,0.800557017326355,-2.710766295876965e-07,0.5193760991096497,0.723556399345398,0.00224051671102643,0.5116333961486816,0.6301153302192688,0.00700425123795867,0.510737955570221,0.5609399080276489,0.005344970151782036,0.5222757458686829,0.5105064511299133,0.004867528099566698,0.570431649684906,0.5886411070823669,0.04523404687643051,0.5799136757850647,0.5316600203514099,0.03718433156609535,0.5713741183280945,0.505599319934845,0.02332117408514023,0.5586892366409302,0.49392732977867126,0.014145845547318459,0.5979366302490234,0.5937552452087402,0.03506346419453621,0.613726019859314,0.5216447114944458,0.023770788684487343,0.5980954170227051,0.49772724509239197,0.006606306880712509,0.5722677707672119,0.49766695499420166,-0.0022225058637559414,0.6233433485031128,0.6088420152664185,0.020440125837922096,0.6496119499206543,0.5308519005775452,0.008954457938671112,0.6302839517593384,0.5003995895385742,-0.0018359796376898885,0.6000391840934753,0.49716174602508545,-0.005651817191392183,0.6437916159629822,0.6321110725402832,0.004855248611420393,0.6481661796569824,0.564713180065155,-0.004466840997338295,0.630784809589386,0.5262385010719299,-0.010325901210308075,0.6068161129951477,0.5062177181243896,-0.011917287483811378
2023-08-01 16:24:33.725290,23,23,0.9983065128326416,-0.007924735546112,-0.0560054965317249,0.013593204319477,0.0869140625,0.9638671875,0.16357421875,0.5496081709861755,0.7979451417922974,-2.676541157597967e-07,0.5198466181755066,0.7253550291061401,-0.0002629971713759005,0.5125863552093506,0.6296870708465576,0.003331257263198495,0.5112505555152893,0.5595672726631165,0.0009413407533429563,0.5236114263534546,0.506472110748291,0.00014923345588613302,0.5717279314994812,0.5867318511009216,0.04207950457930565,0.5817157626152039,0.5286506414413452,0.03151581436395645,0.5716003179550171,0.5029096007347107,0.01632613316178322,0.5571843385696411,0.49430209398269653,0.007093987427651882,0.5981780886650085,0.590446949005127,0.03311861678957939,0.614736020565033,0.5174538493156433,0.02021154575049877,0.5974138379096985,0.49449294805526733,0.003145873313769698,0.570342481136322,0.49827471375465393,-0.004861544352024794,0.6229315996170044,0.6049267649650574,0.01944713667035103,0.6474395394325256,0.526971161365509,0.007641986478120089,0.627327561378479,0.4981195628643036,-0.0018588772509247065,0.5978599786758423,0.49812382459640503,-0.004225810524076223,0.6436036229133606,0.6284174919128418,0.004475651774555445,0.6507447957992554,0.5597229599952698,-0.004305387381464243,0.6343610286712646,0.5213561058044434,-0.00900073628872633,0.611062228679657,0.5039799213409424,-0.009347563609480858
2023-08-01 16:24:33.788176,24,24,0.998319149017334,-0.0075903837569057,-0.0558211505413055,0.0136106656864285,0.08740234375,0.96875,0.15380859375,0.5517221093177795,0.7975255250930786,-2.6032131472675246e-07,0.5212457776069641,0.7225067615509033,0.0014331210404634476,0.5123417377471924,0.6286075115203857,0.005445593502372503,0.5102776288986206,0.5591183304786682,0.003254776354879141,0.5245814919471741,0.5089279413223267,0.002414591843262315,0.5709483027458191,0.5864906907081604,0.04360722750425339,0.5811432600021362,0.5278272032737732,0.034307144582271576,0.5717686414718628,0.5016393065452576,0.019902555271983147,0.5582207441329956,0.4918746054172516,0.010913453996181488,0.5979294180870056,0.5916836261749268,0.033997878432273865,0.6142809987068176,0.5178606510162354,0.021838700398802757,0.5983726382255554,0.49332737922668457,0.004493712913244963,0.5722271203994751,0.49446049332618713,-0.004054002929478884,0.6233824491500854,0.6066927313804626,0.01992439292371273,0.6488196849822998,0.5279604196548462,0.008255182765424252,0.6296473741531372,0.4979206919670105,-0.0022306530736386776,0.5998520851135254,0.49590885639190674,-0.005549355875700712,0.6442362070083618,0.6296114325523376,0.00486326590180397,0.6476174592971802,0.5610859990119934,-0.004265391267836094,0.6310739517211914,0.5224409699440002,-0.009805162437260151,0.6083061099052429,0.5026422739028931,-0.010961596854031086
2023-08-01 16:24:33.852979,25,25,0.9984040856361388,-0.0073519903235137,-0.0544870309531688,0.0128965023905038,0.0634765625,0.9736328125,0.15966796875,0.5512428283691406,0.7959705591201782,-2.5295796035607054e-07,0.5207152962684631,0.723064661026001,0.0008759414195083082,0.5123308300971985,0.6281813383102417,0.004937336780130863,0.5106198191642761,0.559831440448761,0.0030351271852850914,0.5215701460838318,0.5087696313858032,0.0024474712554365396,0.5711126923561096,0.5845636129379272,0.041513945907354355,0.5807839632034302,0.5270667672157288,0.03210024535655975,0.5719202160835266,0.5008183717727661,0.017902951687574387,0.559230625629425,0.4912862181663513,0.009152082726359367,0.5984463691711426,0.589436411857605,0.03191434592008591,0.6149514317512512,0.5156292915344238,0.019682198762893677,0.5993716716766357,0.49311673641204834,0.003244425170123577,0.5738559365272522,0.49780213832855225,-0.004354615695774555,0.6238604784011841,0.604111909866333,0.01790192909538746,0.6476904153823853,0.5260435938835144,0.00667117303237319,0.6282830238342285,0.497200608253479,-0.002556219231337309,0.5992934703826904,0.49720078706741333,-0.004929785616695881,0.6448625326156616,0.6274893879890442,0.0027450677007436752,0.6493018269538879,0.5586428046226501,-0.005422196816653013,0.6330307722091675,0.520052433013916,-0.009693803265690804,0.6103746891021729,0.5015556812286377,-0.009992447681725025
2023-08-01 16:24:33.931867,26,26,0.9984293580055236,-0.0068959635682404,-0.0539335533976554,0.0135093191638588,0.08154296875,0.97119140625,0.18359375,0.5516639351844788,0.7973470091819763,-2.6914844397651905e-07,0.5211049318313599,0.7233930230140686,0.0028432870749384165,0.5126532316207886,0.6284292936325073,0.008507420308887959,0.510338306427002,0.5591726899147034,0.007501563057303429,0.5212870240211487,0.5085476636886597,0.007545921020209789,0.5720754861831665,0.587797999382019,0.0470244325697422,0.5803952217102051,0.5300709009170532,0.03952649608254433,0.5716302990913391,0.503573477268219,0.025986632332205772,0.5593351125717163,0.4932592511177063,0.01718706078827381,0.599693775177002,0.592799186706543,0.03642918914556503,0.6155176162719727,0.5191410779953003,0.024607710540294647,0.5990667343139648,0.4945802688598633,0.00682675838470459,0.572381854057312,0.49775058031082153,-0.0018015182577073574,0.6251792907714844,0.6074617505073547,0.021379224956035614,0.6501044034957886,0.528732180595398,0.009615026414394379,0.6297912001609802,0.49824315309524536,-0.0019323385786265135,0.5995515584945679,0.4976244568824768,-0.0058325170539319515,0.6458719968795776,0.6298273205757141,0.005451503675431013,0.6489332318305969,0.5609915852546692,-0.004024434369057417,0.6305077075958252,0.5225809216499329,-0.010180048644542694,0.6062816381454468,0.5049017667770386,-0.011775095015764236
2023-08-01 16:24:34.009917,27,27,0.998434841632843,-0.0064201885834336,-0.0538528375327587,0.0136608872562646,0.0732421875,0.96630859375,0.18017578125,0.5513436198234558,0.7958595156669617,-2.7120856316287245e-07,0.5207800269126892,0.7230266332626343,0.0006149866385385394,0.5133833885192871,0.6294665336608887,0.004070997703820467,0.5103256702423096,0.562002420425415,0.0014252813998609781,0.519472599029541,0.5109227895736694,0.00023240427253767848,0.5738512873649597,0.5851951241493225,0.04094146564602852,0.5845902562141418,0.5249783992767334,0.029800429940223694,0.5732508301734924,0.499807208776474,0.014515215530991554,0.5584550499916077,0.4939269721508026,0.005430049262940884,0.6002197861671448,0.5899749398231506,0.031078891828656197,0.6185430288314819,0.5138548016548157,0.017151834443211555,0.5993393063545227,0.4922534227371216,0.0001506348344264552,0.5713890790939331,0.4991607069969177,-0.007436686661094427,0.6245067715644836,0.6049971580505371,0.016635237261652946,0.6498745083808899,0.5248062014579773,0.004649618174880743,0.6271725296974182,0.49708086252212524,-0.005010484252125025,0.5966113805770874,0.49877098202705383,-0.007579347584396601,0.6443183422088623,0.628537654876709,0.0009529551025480032,0.6495274305343628,0.5592830181121826,-0.007767855189740658,0.6309514045715332,0.5222222208976746,-0.012621425092220306,0.6070765852928162,0.5055441856384277,-0.01329624280333519
2023-08-01 16:24:34.086949,28,28,0.9984273314476012,-0.006210942286998,-0.0538369752466678,0.014352723956108,0.0869140625,0.96875,0.16845703125,0.5515059232711792,0.7970953583717346,-2.7051905249209085e-07,0.520973801612854,0.720333993434906,0.0031911716796457767,0.51295405626297,0.6286254525184631,0.008433991111814976,0.5107454657554626,0.5611423254013062,0.0066968826577067375,0.5218051671981812,0.5110495090484619,0.006234617438167334,0.5716405510902405,0.5868416428565979,0.04733537137508392,0.5835462212562561,0.5278157591819763,0.03850666806101799,0.5740697383880615,0.502090334892273,0.024334216490387917,0.5614154934883118,0.49389609694480896,0.015470709651708603,0.5982784628868103,0.5920335054397583,0.035992976278066635,0.6179229021072388,0.5155693888664246,0.023036200553178787,0.5999922752380371,0.4926406741142273,0.005793693941086531,0.5727033615112305,0.4992940425872803,-0.0019996999762952328,0.6229257583618164,0.6063544750213623,0.019961146637797356,0.6494590640068054,0.5259956121444702,0.008007077500224113,0.6269895434379578,0.49826788902282715,-0.0026877745985984802,0.5962835550308228,0.5018174052238464,-0.005837690085172653,0.6443001627922058,0.6283214092254639,0.0028606844134628773,0.6514177322387695,0.5586788654327393,-0.006127603817731142,0.6308578252792358,0.522775411605835,-0.011530344374477863,0.6042422652244568,0.5093554258346558,-0.012664150446653366
2023-08-01 16:24:34.166159,29,29,0.9984246492385864,-0.0063524805009365,-0.0534934885799884,0.0156943835318088,0.08642578125,0.96923828125,0.1630859375,0.5513515472412109,0.7977879643440247,-2.697688046282565e-07,0.5204591751098633,0.7237727642059326,0.003077518893405795,0.5125200152397156,0.6308320760726929,0.008128720335662365,0.5105510354042053,0.563568115234375,0.006393446121364832,0.5214261412620544,0.5138290524482727,0.005917680915445089,0.5715150237083435,0.5860673189163208,0.045810069888830185,0.5829557776451111,0.5271413326263428,0.03686998784542084,0.5731092095375061,0.5015599727630615,0.022649897262454033,0.5597181916236877,0.49310123920440674,0.0138328168541193,0.5982170701026917,0.5910933017730713,0.034651000052690506,0.6169309616088867,0.5152240991592407,0.02176707051694393,0.5993719696998596,0.49249017238616943,0.004578649066388607,0.5723651647567749,0.49852219223976135,-0.003203785978257656,0.6229997277259827,0.6054868698120117,0.01897444948554039,0.6482296586036682,0.5262218713760376,0.007397436536848545,0.6265159249305725,0.4985220432281494,-0.0030126390047371387,0.5962084531784058,0.5008788108825684,-0.006046229973435402,0.6443026065826416,0.627787709236145,0.0022352987434715033,0.6511421203613281,0.5581793189048767,-0.006112328730523586,0.6322302222251892,0.5210302472114563,-0.011105225421488285,0.6069240570068359,0.50525963306427,-0.012027046643197536
2023-08-01 16:24:34.230312,30,30,0.998461127281189,-0.0064961169846355,-0.0528155863285064,0.0156137198209762,0.0693359375,0.97216796875,0.16650390625,0.5502533912658691,0.7974447011947632,-2.620013788146025e-07,0.5196490287780762,0.7246894240379333,0.0023152094800025225,0.5121226906776428,0.631148636341095,0.006577370222657919,0.5102366805076599,0.5632439851760864,0.004384597763419151,0.5233712196350098,0.5157802104949951,0.0033484273590147495,0.5724208950996399,0.5864879488945007,0.0422477051615715,0.584876298904419,0.5280975103378296,0.032650064677000046,0.5753052234649658,0.5016233921051025,0.018566962331533432,0.5624756217002869,0.49345067143440247,0.009912974201142788,0.5992463231086731,0.5924600958824158,0.03122866339981556,0.6204964518547058,0.515323281288147,0.017906172201037407,0.6028038859367371,0.4915948510169983,0.0016533468151465058,0.5755329728126526,0.49863773584365845,-0.0053066955879330635,0.6237951517105103,0.607957661151886,0.01579829677939415,0.65116286277771,0.5272095203399658,0.0038327043876051903,0.6287992596626282,0.49778127670288086,-0.005966018419712782,0.5980942249298096,0.4997987747192383,-0.008529354818165302,0.6438448429107666,0.6312952637672424,-0.0006860282155685127,0.6492881178855896,0.5612524151802063,-0.009738770313560963,0.6291762590408325,0.5242511034011841,-0.014835006557404995,0.6034836173057556,0.5091598629951477,-0.015702268108725548
2023-08-01 16:24:34.292233,31,31,0.9984762072563172,-0.0065075471065938,-0.0524930991232395,0.0157325100153684,0.09521484375,0.96533203125,0.16455078125,0.55132657289505,0.7960144877433777,-2.721261296301236e-07,0.5199678540229797,0.7243585586547852,0.0016771347727626562,0.5124803185462952,0.6307947039604187,0.005238323472440243,0.5100680589675903,0.5642313361167908,0.0027306941337883472,0.5178863406181335,0.5170860290527344,0.0012130709365010262,0.5722239017486572,0.5828190445899963,0.03707709535956383,0.5846759676933289,0.5235984921455383,0.025969060137867928,0.5747991800308228,0.49886858463287354,0.011670982465147972,0.5628029704093933,0.4950518012046814,0.003218621714040637,0.5994806289672852,0.5901733636856079,0.026105714961886406,0.6199229955673218,0.5126529932022095,0.011788828298449516,0.601665198802948,0.4912889897823334,-0.0040681022219359875,0.5756058096885681,0.5015690922737122,-0.010723122395575047,0.6243755221366882,0.607514500617981,0.010911763645708561,0.6520432829856873,0.5263552069664001,-0.0018203483195975423,0.6284278631210327,0.4987504780292511,-0.011651292443275452,0.5984993577003479,0.5035114884376526,-0.014419912360608578,0.6444259285926819,0.6330789923667908,-0.005256997887045145,0.6465333104133606,0.5634693503379822,-0.015030008740723133,0.6244211792945862,0.5282721519470215,-0.02045220509171486,0.5991749167442322,0.5148962736129761,-0.021618399769067764
2023-08-01 16:24:34.346893,32,32,0.9984833002090454,-0.0065096882171928,-0.0523572005331516,0.0157316252589225,0.08056640625,0.96923828125,0.17333984375,0.5501204133033752,0.7950711250305176,-2.7498666099745606e-07,0.5197059512138367,0.7212731838226318,0.0014040414243936539,0.5114194750785828,0.6295763254165649,0.003979316912591457,0.5080854296684265,0.5639373064041138,0.00016662845155224204,0.5194371342658997,0.5186816453933716,-0.002629257505759597,0.5726668238639832,0.5832608342170715,0.038230668753385544,0.5851539969444275,0.5256751179695129,0.02631368860602379,0.5753189921379089,0.5021695494651794,0.010764808394014835,0.5631698369979858,0.49789366126060486,0.0012943968176841736,0.5998071432113647,0.5900664925575256,0.02693234197795391,0.6206272840499878,0.5126966238021851,0.011022454127669334,0.6010441780090332,0.49256232380867004,-0.006454381160438061,0.5734024047851562,0.5031383037567139,-0.0139755355194211,0.624769926071167,0.6066904664039612,0.011329751461744308,0.6531924605369568,0.5243817567825317,-0.002405300736427307,0.6283448934555054,0.49930423498153687,-0.013060474768280983,0.5973518490791321,0.5063531994819641,-0.016056517139077187,0.6447358131408691,0.6322485208511353,-0.005293367430567741,0.6483556628227234,0.5629875063896179,-0.015197008848190308,0.6250877380371094,0.529644250869751,-0.020776644349098206,0.5982675552368164,0.5186702609062195,-0.021979548037052155
2023-08-01 16:24:34.413596,33,33,0.9985244274139404,-0.0065632737241685,-0.0516506843268871,0.0154288168996572,0.0927734375,0.97509765625,0.1552734375,0.5498483180999756,0.796525776386261,-2.8833915166615043e-07,0.5194402933120728,0.7218747138977051,0.002826608484610915,0.5119020342826843,0.6295262575149536,0.006455843336880207,0.5085694789886475,0.5635378360748291,0.003164005698636174,0.5189419984817505,0.5181275010108948,0.000960957317147404,0.5723092555999756,0.5835110545158386,0.04076312482357025,0.586452841758728,0.5221897959709167,0.02852576971054077,0.5758792161941528,0.49852892756462097,0.01293365377932787,0.5624462366104126,0.4964701235294342,0.003846926148980856,0.5985378623008728,0.589903712272644,0.028897501528263092,0.6204259395599365,0.5104405879974365,0.013182044960558414,0.6003897190093994,0.4896523058414459,-0.004019756801426411,0.5725532174110413,0.501235842704773,-0.01114293746650219,0.6235416531562805,0.6057416796684265,0.012620859779417515,0.6523773670196533,0.5217559933662415,-0.0006743957637809217,0.6269749402999878,0.4975771903991699,-0.01098793838173151,0.5957181453704834,0.5063384771347046,-0.013656359165906906,0.6449488401412964,0.6305868029594421,-0.004673736169934273,0.6501259207725525,0.5605220198631287,-0.013881826773285866,0.6265537142753601,0.528274416923523,-0.018859244883060455,0.599294900894165,0.5191552639007568,-0.019628172740340233
2023-08-01 16:24:34.474218,34,34,0.9985482692718506,-0.0066432007588446,-0.0512915328145027,0.0150431208312511,0.06884765625,0.9658203125,0.16943359375,0.5505833029747009,0.7972397804260254,-2.8028446763528336e-07,0.5195976495742798,0.726604163646698,-0.0005364760872907937,0.5110360980033875,0.6322097182273865,0.0013099968200549483,0.5080353617668152,0.564882755279541,-0.0028455033898353577,0.5201703310012817,0.5195505023002625,-0.005497519858181477,0.5704878568649292,0.5801877975463867,0.03386577218770981,0.5851057767868042,0.5158522725105286,0.018654096871614456,0.5745673179626465,0.49287018179893494,0.0017066920408979058,0.5598534345626831,0.49454692006111145,-0.007421527057886124,0.5964170694351196,0.5866397619247437,0.02399684302508831,0.6166658401489258,0.5062617063522339,0.006228630896657705,0.5984286069869995,0.48650580644607544,-0.011478404514491558,0.5717731714248657,0.5007553696632385,-0.018540196120738983,0.6216599941253662,0.6024914979934692,0.009696247056126595,0.649258017539978,0.5201777815818787,-0.0045112380757927895,0.6262065172195435,0.49815961718559265,-0.014979736879467964,0.5960437655448914,0.5096944570541382,-0.017453258857131004,0.6442003846168518,0.6282015442848206,-0.0058496324345469475,0.6507865190505981,0.5609492659568787,-0.01488819532096386,0.6306836009025574,0.527974009513855,-0.020015936344861984,0.6050469875335693,0.5179402828216553,-0.02070005238056183
2023-08-01 16:24:34.535459,35,35,0.998545229434967,-0.006426693405956,-0.051345407962799,0.015154717490077,0.0869140625,0.97021484375,0.16162109375,0.5495149493217468,0.7985970973968506,-2.9410392698991927e-07,0.5191028118133545,0.7286915183067322,0.001536073861643672,0.5107119083404541,0.6334251165390015,0.005059263668954372,0.5084303617477417,0.5662781000137329,0.002245677635073662,0.5189802646636963,0.5206180810928345,0.0006776119698770344,0.5700931549072266,0.5807275772094727,0.03721488639712334,0.5835335850715637,0.517264187335968,0.02440015599131584,0.5727763772010803,0.49361053109169006,0.008750938810408115,0.5576415061950684,0.4929708242416382,-2.3605186925124144e-06,0.5960833430290222,0.5877712368965149,0.026307854801416397,0.6156789660453796,0.5083422064781189,0.010197330266237259,0.5974350571632385,0.4874522089958191,-0.007204321678727865,0.5699616074562073,0.5001590847969055,-0.01436661183834076,0.6212236285209656,0.6039699912071228,0.01111112255603075,0.6485310792922974,0.5219470858573914,-0.002269938588142395,0.6259191632270813,0.4970781207084656,-0.01312725618481636,0.5953022241592407,0.5055647492408752,-0.016213586553931236,0.643616795539856,0.6291300058364868,-0.005145328119397163,0.6495087146759033,0.560857355594635,-0.014364892616868019,0.6291430592536926,0.5272472500801086,-0.01982932724058628,0.603095531463623,0.5162681341171265,-0.02092679776251316
2023-08-01 16:24:34.596137,36,36,0.9985509514808656,-0.0064245364628732,-0.0512565523386001,0.0150858201086521,0.07470703125,0.96728515625,0.16015625,0.5494449138641357,0.7971481084823608,-2.970826074033539e-07,0.5190566778182983,0.7261044383049011,0.00107290456071496,0.5109168887138367,0.6334162354469299,0.0035858789924532175,0.5085522532463074,0.5668970346450806,-0.0001360189780825749,0.5190776586532593,0.5190397500991821,-0.0026093125343322754,0.5714179277420044,0.5805366635322571,0.03652792051434517,0.585951566696167,0.516916811466217,0.022999806329607964,0.5738164782524109,0.49431902170181274,0.006857560481876135,0.5585038661956787,0.49340391159057617,-0.0023951642215251923,0.5974942445755005,0.5877190828323364,0.025474227964878082,0.6203945875167847,0.5083476305007935,0.008434046059846878,0.5995370149612427,0.4892564117908478,-0.009199847467243671,0.570740282535553,0.5018088221549988,-0.016424480825662613,0.6221582293510437,0.6042847037315369,0.0100700119510293,0.6510676145553589,0.5216471552848816,-0.003871491178870201,0.6260771751403809,0.497227281332016,-0.014621449634432793,0.5949905514717102,0.5044728517532349,-0.01767260953783989,0.6434673070907593,0.6302040219306946,-0.0064054434187710285,0.6486043334007263,0.5613465905189514,-0.016171464696526527,0.6259457468986511,0.528864324092865,-0.021713711321353912,0.5996071696281433,0.5181021690368652,-0.02288006618618965
2023-08-01 16:24:34.660006,37,37,0.9985069632530212,-0.0060618077404797,-0.0520510673522949,0.0154200484976172,0.08056640625,0.97216796875,0.166015625,0.5505803227424622,0.7983290553092957,-2.843653987838479e-07,0.5193780660629272,0.7266625165939331,-0.0003391798527445644,0.5110031366348267,0.633318305015564,0.001383768511004746,0.5082310438156128,0.5668123960494995,-0.003159344894811511,0.5197809338569641,0.5189301371574402,-0.006317484192550182,0.5710789561271667,0.5815334320068359,0.035120561718940735,0.5855239629745483,0.5167851448059082,0.019691985100507736,0.5740805268287659,0.4932593107223511,0.0023846642579883337,0.5590409636497498,0.49398937821388245,-0.007074118126183748,0.5971881151199341,0.5880395770072937,0.024349378421902657,0.6190236806869507,0.506054162979126,0.005303132347762585,0.5991722941398621,0.48583710193634033,-0.013430410996079445,0.5711145401000977,0.5007328987121582,-0.02078098990023136,0.622260570526123,0.6039671301841736,0.00901928823441267,0.6494765877723694,0.5200432538986206,-0.00625101663172245,0.6251859664916992,0.49722349643707275,-0.01764010265469551,0.5948255658149719,0.5089170932769775,-0.020424654707312584,0.6447352170944214,0.6295785307884216,-0.007548997178673744,0.6514238715171814,0.5605430603027344,-0.017577113583683968,0.630230188369751,0.526789128780365,-0.023334497585892677,0.6040040850639343,0.5169926285743713,-0.02433122508227825
2023-08-01 16:24:34.725331,38,38,0.9984560608863832,-0.0053108762949705,-0.052963301539421,0.0158799849450588,0.087890625,0.9658203125,0.15234375,0.550617516040802,0.7986620664596558,-2.829890490829712e-07,0.5197488069534302,0.727518618106842,0.001946107717230916,0.5117887258529663,0.633499801158905,0.006090283393859863,0.5101724863052368,0.5669505596160889,0.0035692453384399414,0.519178569316864,0.5191741585731506,0.002292217221111059,0.5698795318603516,0.5815210938453674,0.0398198738694191,0.5829517245292664,0.5198157429695129,0.02761583961546421,0.5731512904167175,0.4964863061904907,0.012122192420065403,0.5598832964897156,0.4946558475494385,0.00342574599198997,0.5958361029624939,0.5872472524642944,0.028734197840094566,0.6159499883651733,0.5081233978271484,0.012743520550429821,0.5986842513084412,0.48783546686172485,-0.0046513802371919155,0.5730907917022705,0.5007903575897217,-0.011639620177447796,0.6210080981254578,0.6018590331077576,0.013192062266170979,0.6466507315635681,0.5211014151573181,0.00024190689146053046,0.6245097517967224,0.4983713626861572,-0.010210284031927586,0.5959661602973938,0.5091582536697388,-0.012797881849110126,0.6446473598480225,0.6256518363952637,-0.003516615368425846,0.6543534398078918,0.5564922094345093,-0.011030401103198528,0.6355868577957153,0.5229431390762329,-0.015291070565581322,0.6106449365615845,0.5136565566062927,-0.015746718272566795
2023-08-01 16:24:34.785255,39,39,0.9983247518539428,-0.0052303620614111,-0.0550284571945667,0.0170914717018604,0.078125,0.974609375,0.125,0.54969722032547,0.796381413936615,-2.853127796242916e-07,0.5196084380149841,0.7240529656410217,0.002016938291490078,0.5121535062789917,0.6326340436935425,0.005287814885377884,0.5100160837173462,0.5670686364173889,0.0019742960575968027,0.519359290599823,0.5187702178955078,-0.00013319554273039103,0.5715867280960083,0.5812231302261353,0.038728147745132446,0.5850812196731567,0.5183439254760742,0.025858279317617416,0.5735045075416565,0.4950927495956421,0.009904157370328903,0.5585055351257324,0.49331653118133545,0.000775083783082664,0.5972266793251038,0.5873136520385742,0.02741919457912445,0.6188046932220459,0.507710874080658,0.011177622713148594,0.5991410613059998,0.4882638454437256,-0.006225722376257181,0.5714841485023499,0.50057452917099,-0.013466090895235538,0.6218685507774353,0.6026452779769897,0.01172823365777731,0.6498713493347168,0.5197249054908752,-0.0016186280408874154,0.6256082057952881,0.496427983045578,-0.01207813248038292,0.5953237414360046,0.5054851770401001,-0.014948328956961632,0.6439095735549927,0.6276218295097351,-0.0050526876002550125,0.651979386806488,0.5588113069534302,-0.013831298798322678,0.6304495930671692,0.5270265340805054,-0.018724637106060982,0.6041072010993958,0.5180952548980713,-0.019594676792621613
2023-08-01 16:24:34.851002,40,40,0.99826318025589,-0.0065872147679328,-0.0557186342775821,0.017961511388421,0.0966796875,0.96728515625,0.15087890625,0.5509289503097534,0.798025906085968,-2.92737382778796e-07,0.5203901529312134,0.7258833050727844,0.0018270622240379453,0.5120805501937866,0.6321252584457397,0.0052475836127996445,0.5099787712097168,0.5654934644699097,0.002076439093798399,0.5202614665031433,0.5181497931480408,3.832623769994825e-05,0.5716922879219055,0.5805566906929016,0.039246439933776855,0.5847915410995483,0.518609344959259,0.026768118143081665,0.5744113326072693,0.49584490060806274,0.011051049456000328,0.560725748538971,0.4938591420650482,0.0020935223437845707,0.5980886816978455,0.5873355865478516,0.02802012488245964,0.6181013584136963,0.5080733895301819,0.011547798290848732,0.5986452698707581,0.48928970098495483,-0.006253765430301428,0.5711479783058167,0.5019718408584595,-0.013409852981567383,0.6234226226806641,0.6029568910598755,0.01245487853884697,0.6502751708030701,0.520849883556366,-0.0010858905734494328,0.626726508140564,0.49875837564468384,-0.011570276692509651,0.5969006419181824,0.5083993673324585,-0.014054735191166401,0.6458303928375244,0.6277841329574585,-0.004165709018707275,0.6517870426177979,0.5584877729415894,-0.012542086653411388,0.6314075589179993,0.5250788331031799,-0.017059560865163803,0.6064990758895874,0.5138908624649048,-0.01746189408004284
2023-08-01 16:24:34.910134,41,41,0.998249650001526,-0.0064349076710641,-0.0560709908604621,0.0176734011620283,0.0810546875,0.97216796875,0.15576171875,0.5488940477371216,0.7973042130470276,-3.021316672402463e-07,0.5198143124580383,0.7250924110412598,0.002022986300289631,0.5125426054000854,0.6316518783569336,0.005528827663511038,0.5107518434524536,0.5647650361061096,0.0025331019423902035,0.5220018029212952,0.5170683860778809,0.0008191560045816004,0.5708441138267517,0.580173909664154,0.03909669071435928,0.5854492783546448,0.5169627070426941,0.025922784581780434,0.5737408995628357,0.49383270740509033,0.009695980697870255,0.5571597814559937,0.49342837929725647,0.0007218561368063092,0.5964766144752502,0.5873013138771057,0.028294721618294716,0.6171181797981262,0.5091885328292847,0.012734279967844486,0.5980021953582764,0.4898139536380768,-0.004560915753245354,0.5699617266654968,0.5012192130088806,-0.011851941235363483,0.6215421557426453,0.6033952832221985,0.013081813231110573,0.6492968797683716,0.5220904350280762,0.00021617372112814337,0.6261150240898132,0.49843162298202515,-0.009954706765711308,0.5953478813171387,0.5060389637947083,-0.012683329172432423,0.6438454985618591,0.6283201575279236,-0.003203761763870716,0.650115966796875,0.5596185326576233,-0.011777222156524658,0.6291128396987915,0.5274568200111389,-0.016389960423111916,0.6027595400810242,0.5170130133628845,-0.0169164277613163
2023-08-01 16:24:34.979670,42,42,0.9982234239578248,-0.005490796174854,-0.056501030921936,0.0180959552526474,0.0791015625,0.9716796875,0.158203125,0.5483326315879822,0.794707715511322,-3.0340078183144215e-07,0.5184749364852905,0.7251546382904053,0.001084394403733313,0.5110254287719727,0.6316317915916443,0.004017770290374756,0.5097296237945557,0.5642356276512146,0.0008112691575661302,0.5197908282279968,0.51841801404953,-0.0011258956510573626,0.5709124207496643,0.5799305438995361,0.03548301011323929,0.5861139893531799,0.5157621502876282,0.02188192680478096,0.5735702514648438,0.4923925995826721,0.005811963230371475,0.5564778447151184,0.4916975796222687,-0.0032566585578024387,0.5964177846908569,0.5868611931800842,0.024982726201415062,0.6174467206001282,0.5070540904998779,0.009015724062919617,0.597915530204773,0.4874899983406067,-0.007832689210772514,0.5701023936271667,0.49871963262557983,-0.015039563179016113,0.6211784482002258,0.6033202409744263,0.010163807310163975,0.6491316556930542,0.5207197070121765,-0.0030122799798846245,0.6253379583358765,0.49702557921409607,-0.013241737149655819,0.5943409204483032,0.5045335292816162,-0.016336137428879738,0.6430671811103821,0.6292572617530823,-0.005763303022831678,0.648837149143219,0.5614522695541382,-0.014948040246963501,0.6273045539855957,0.5296715497970581,-0.020245617255568504,0.600684642791748,0.5190799832344055,-0.021531851962208748
2023-08-01 16:24:35.058836,43,43,0.9982264637947084,-0.0052124666981399,-0.056305319070816,0.0186168272048234,0.0703125,0.97119140625,0.1669921875,0.5494632124900818,0.7946977019309998,-2.8516569727798924e-07,0.5200676321983337,0.7228250503540039,0.0008782087825238705,0.5119323134422302,0.6304652690887451,0.004031329415738583,0.5103230476379395,0.562154233455658,0.0007438824395649135,0.523792028427124,0.5155980587005615,-0.0013306844048202038,0.5692218542098999,0.581192672252655,0.03986721858382225,0.5826271772384644,0.5217046141624451,0.02832059934735298,0.5731574892997742,0.497014582157135,0.013003542087972164,0.5593997836112976,0.4904366135597229,0.003741631517186761,0.5949909687042236,0.5868162512779236,0.02945212461054325,0.6152622699737549,0.510888934135437,0.01400381326675415,0.5976806282997131,0.49166810512542725,-0.003372755367308855,0.5708357095718384,0.5002627968788147,-0.010882089845836163,0.6201490759849548,0.6012640595436096,0.014554537832736969,0.6472489237785339,0.5213649868965149,0.0013546169502660632,0.6250314712524414,0.49894970655441284,-0.009019114077091217,0.5947007536888123,0.505780041217804,-0.01184378657490015,0.6427911520004272,0.6247832775115967,-0.0015160228358581662,0.6490963101387024,0.5572014451026917,-0.010043984279036522,0.6292129755020142,0.525403618812561,-0.014789503067731857,0.6035892367362976,0.5142214298248291,-0.015614861622452736
2023-08-01 16:24:35.138960,44,44,0.9982482194900512,-0.0053230850026011,-0.055979661643505,0.0183984022587537,0.09228515625,0.970703125,0.1513671875,0.5503489375114441,0.7972659468650818,-2.6118803475583263e-07,0.5198410153388977,0.7266542911529541,0.002194757107645273,0.5129386186599731,0.6316081881523132,0.0072084153071045876,0.5105252861976624,0.5641621947288513,0.005923507735133171,0.5198153853416443,0.5170586705207825,0.005704149603843689,0.5690419673919678,0.583950400352478,0.040716905146837234,0.5807124972343445,0.5267440676689148,0.031586892902851105,0.5734553933143616,0.5008364915847778,0.01824137195944786,0.5625535845756531,0.49287885427474976,0.010177992284297943,0.5963135361671448,0.5897893905639648,0.030071506276726723,0.6156483888626099,0.5151283740997314,0.017272111028432846,0.5994956493377686,0.49214237928390503,0.0018075634725391865,0.573189914226532,0.4996732771396637,-0.004572639241814613,0.621816873550415,0.6048750877380371,0.015161587856709957,0.6482721567153931,0.52711421251297,0.003730403957888484,0.6270051598548889,0.49902287125587463,-0.0055037736892700195,0.597151517868042,0.5020239949226379,-0.007766293361783028,0.6429277658462524,0.6278074383735657,-0.0008401836385019124,0.6477744579315186,0.5604727268218994,-0.009145199321210384,0.6281541585922241,0.5246840715408325,-0.013640412129461765,0.6030284762382507,0.5101488828659058,-0.014076624996960163
2023-08-01 16:24:35.218226,45,45,0.9982923269271852,-0.0047509190626442,-0.0553313456475734,0.0181152205914258,0.08984375,0.9755859375,0.140625,0.5476508736610413,0.7956959009170532,-2.59562739302055e-07,0.5185085535049438,0.7225519418716431,0.0017534262733533978,0.5126578211784363,0.6301558017730713,0.0051902043633162975,0.5102447867393494,0.5639286041259766,0.0022650330793112516,0.5191268920898438,0.5132529735565186,0.00038867213879711926,0.5699328184127808,0.583427369594574,0.03991957753896713,0.5822217464447021,0.5245444178581238,0.028479091823101044,0.5722948908805847,0.49891823530197144,0.013193006627261639,0.5587561130523682,0.4928758144378662,0.003975529223680496,0.5966619253158569,0.5894379019737244,0.02889743074774742,0.6167959570884705,0.5131422281265259,0.013850254938006401,0.5988688468933105,0.49152249097824097,-0.003528136992827058,0.5715320110321045,0.4999331533908844,-0.011198030784726143,0.6211709380149841,0.605654239654541,0.013481262139976025,0.6485539674758911,0.5260393023490906,0.00040515969158150256,0.6259989738464355,0.4988952875137329,-0.010249460116028786,0.5950120687484741,0.502028226852417,-0.013483083806931973,0.6409538388252258,0.6302387118339539,-0.0029797006864100695,0.6449357271194458,0.5626605749130249,-0.012883653864264488,0.6246824264526367,0.5270513892173767,-0.018756059929728508,0.5993779897689819,0.5116209983825684,-0.020192496478557587
2023-08-01 16:24:35.298179,46,46,0.998300313949585,-0.0043950993567705,-0.0552594922482967,0.0179913789033889,0.07666015625,0.96337890625,0.17236328125,0.5501646399497986,0.795524001121521,-2.460756149957888e-07,0.5199065208435059,0.7234380841255188,0.0010928874835371971,0.512803852558136,0.6311542391777039,0.004615735728293657,0.5103148221969604,0.564399778842926,0.001985084032639861,0.5200971364974976,0.5166975855827332,0.0004956186166964471,0.5697544813156128,0.5841282606124878,0.0393768846988678,0.5825589299201965,0.5271989107131958,0.028934093192219734,0.5737735033035278,0.5010233521461487,0.014501138590276241,0.5617020130157471,0.49241024255752563,0.00567666394636035,0.5961808562278748,0.590038537979126,0.028988702222704887,0.6172661185264587,0.5140871405601501,0.014840708114206791,0.6008356809616089,0.49176764488220215,-0.001417880761437118,0.5748928189277649,0.4993332624435425,-0.008301174268126488,0.6207919120788574,0.6056267023086548,0.014202732592821121,0.6480557322502136,0.526712954044342,0.0020993428770452738,0.6263742446899414,0.4991118907928467,-0.007677148096263409,0.5965397357940674,0.5023619532585144,-0.010331918485462666,0.6412851214408875,0.6294874548912048,-0.001749610179103911,0.6459046602249146,0.5615468621253967,-0.010349905118346214,0.6258218288421631,0.5261703729629517,-0.015317938290536404,0.6008551120758057,0.5119973421096802,-0.01624589040875435
2023-08-01 16:24:35.366185,47,47,0.9983393549919128,-0.0033744862303137,-0.054603274911642,0.0180456638336181,0.09619140625,0.9609375,0.16455078125,0.5494292974472046,0.7954127788543701,-2.4823796707096335e-07,0.519684910774231,0.7245948314666748,0.0012093111872673035,0.512790858745575,0.6315653920173645,0.0046879262663424015,0.5101155638694763,0.5646980404853821,0.0020215187687426805,0.519733190536499,0.5169731378555298,0.00046641542576253414,0.5701671838760376,0.5843415260314941,0.03911271691322327,0.5828741192817688,0.5266618728637695,0.02844284474849701,0.5736285448074341,0.5005537867546082,0.013846466317772865,0.5607497096061707,0.49241870641708374,0.004966091364622116,0.596748411655426,0.59073406457901,0.028518518432974815,0.6172491312026978,0.5149953961372375,0.014131869189441204,0.6004619598388672,0.49203115701675415,-0.002420194912701845,0.5739651918411255,0.49901917576789856,-0.00950661487877369,0.6212885975837708,0.6067327857017517,0.013563967309892178,0.647955596446991,0.5281041860580444,0.001060003531165421,0.6260684728622437,0.49977585673332214,-0.008890178054571152,0.5957817435264587,0.501990795135498,-0.011578856036067009,0.6413718461990356,0.6305224299430847,-0.0025067541282624006,0.645754873752594,0.5623630881309509,-0.0116840535774827,0.6261075139045715,0.5260775685310364,-0.01688762754201889,0.6014192700386047,0.5106386542320251,-0.017879052087664604
2023-08-01 16:24:35.419772,48,48,0.9983782172203064,-0.002800018293783,-0.0540745593607425,0.0175803080201149,0.10400390625,0.970703125,0.115234375,0.5504136681556702,0.7953819632530212,-2.608801707992825e-07,0.5208299160003662,0.7219910025596619,0.0017616742989048362,0.513976514339447,0.630350649356842,0.005379464477300644,0.5119427442550659,0.5629446506500244,0.002893174532800913,0.5229425430297852,0.512256383895874,0.0014495066134259105,0.5716385841369629,0.5852964520454407,0.04079308733344078,0.5821983814239502,0.5265015363693237,0.03129496052861214,0.5733009576797485,0.5003358125686646,0.017299918457865715,0.5608493089675903,0.49128809571266174,0.008451552130281925,0.5986946225166321,0.5914561152458191,0.03044734336435795,0.6164781451225281,0.5170958042144775,0.017160439863801003,0.6003443002700806,0.49487191438674927,-9.226706606568769e-05,0.5741145610809326,0.4997142255306244,-0.008272562175989151,0.6235008835792542,0.607547402381897,0.015888553112745285,0.6498482823371887,0.5286203622817993,0.0035643267910927534,0.628940224647522,0.49964195489883423,-0.007237266283482313,0.5985227227210999,0.4991322159767151,-0.01088188961148262,0.6432804465293884,0.631633460521698,0.0004278371052350849,0.6441622972488403,0.5647462606430054,-0.009528071619570255,0.6254163384437561,0.5275726318359375,-0.01588180661201477,0.6018871068954468,0.5089031457901001,-0.017721662297844887
2023-08-01 16:24:35.483118,49,49,0.9984248876571656,-0.0023596729151904,-0.0534254685044288,0.0169688165187835,0.0859375,0.982421875,0.14111328125,0.550460934638977,0.7951130270957947,-2.615812775275117e-07,0.5212346315383911,0.7227494716644287,0.0005359980277717113,0.5150659680366516,0.6291830539703369,0.0036190259270370007,0.5130162239074707,0.5615473985671997,0.0008725148509256542,0.5242164731025696,0.5104075074195862,-0.0006191174034029245,0.5728350281715393,0.5851926803588867,0.03862345591187477,0.5844123959541321,0.5254247188568115,0.027767758816480637,0.5742676854133606,0.4996855556964874,0.013280053623020649,0.5610406398773193,0.4927428364753723,0.004504252690821886,0.5997390151023865,0.5917818546295166,0.02877880074083805,0.6185516715049744,0.5154261589050293,0.01497693732380867,0.601285457611084,0.4927533268928528,-0.0015338003868237138,0.574866533279419,0.4979650378227234,-0.00904680322855711,0.6242470741271973,0.6084883809089661,0.014509704895317554,0.6507871150970459,0.5284714698791504,0.0020857038907706738,0.6285614967346191,0.500028133392334,-0.007850444875657558,0.5979034900665283,0.49993646144866943,-0.010877319611608982,0.6435746550559998,0.6329573392868042,-0.0008204389596357942,0.644809901714325,0.5654157400131226,-0.01040013786405325,0.6251773238182068,0.5289649963378906,-0.016120752319693565,0.6013103127479553,0.5109660029411316,-0.01758917048573494
2023-08-01 16:24:35.550231,50,50,0.9984468817710876,-0.0017525167204439,-0.0530869662761688,0.0168110597878694,0.09619140625,0.97705078125,0.13330078125,0.5521516799926758,0.7971576452255249,-2.7739238817048317e-07,0.5223797559738159,0.7234715223312378,0.003429156495258212,0.5156376957893372,0.630517840385437,0.008699568919837475,0.5136875510215759,0.563335120677948,0.007189316675066948,0.5243901014328003,0.5135502815246582,0.006763876881450415,0.5728709101676941,0.5883522033691406,0.045036133378744125,0.5834223628044128,0.5287798643112183,0.03629736974835396,0.5736172795295715,0.50286865234375,0.022499512881040573,0.5603780746459961,0.4944193959236145,0.01395329274237156,0.5990838408470154,0.5939528942108154,0.03384294733405113,0.616899847984314,0.518717885017395,0.021918177604675293,0.5993838310241699,0.49471646547317505,0.005255133844912052,0.5724164247512817,0.49817049503326416,-0.0026249228976666927,0.6236107349395752,0.6088410019874573,0.018218154087662697,0.6498674154281616,0.5294042229652405,0.0068362983874976635,0.6278464198112488,0.5000417232513428,-0.003428458236157894,0.597167432308197,0.499805212020874,-0.006727594416588545,0.6438437700271606,0.6308452486991882,0.0016642565606161952,0.6471375226974487,0.5614437460899353,-0.007363682147115469,0.6267813444137573,0.5252066850662231,-0.012604797258973122,0.6016203761100769,0.509139358997345,-0.01370460819453001
2023-08-01 16:24:35.608912,51,51,0.9984687566757202,-0.0019289823248982,-0.0527219213545322,0.0166432354599237,0.06787109375,0.97021484375,0.14306640625,0.552383542060852,0.7974597215652466,-2.8455119149839447e-07,0.523082435131073,0.7243413329124451,0.004630161914974451,0.5166605114936829,0.6309391856193542,0.010879706591367722,0.5147160291671753,0.5637965798377991,0.010180710814893246,0.5243291854858398,0.5133463740348816,0.010503504425287247,0.575035035610199,0.5900058746337891,0.04690845310688019,0.5852752327919006,0.5322349071502686,0.03926396369934082,0.5749168395996094,0.5056537389755249,0.026148322969675064,0.5605567097663879,0.4956200122833252,0.01797620579600334,0.6011127233505249,0.5952110886573792,0.03543512523174286,0.6188822388648987,0.5219897627830505,0.024581395089626312,0.6009399890899658,0.4978242516517639,0.008682328276336193,0.5731196403503418,0.5005612373352051,0.001275084214285016,0.6251709461212158,0.6097337603569031,0.019601721316576004,0.6510323882102966,0.532115638256073,0.009006509557366371,0.6288455128669739,0.5026162266731262,-0.0005495926016010344,0.59796541929245,0.5014512538909912,-0.0033566709607839584,0.6443914771080017,0.6308878064155579,0.002900972729548812,0.6483098268508911,0.562423050403595,-0.005269399378448725,0.6285141110420227,0.5260779857635498,-0.009869336150586605,0.6037730574607849,0.5095099806785583,-0.010564984753727913
2023-08-01 16:24:35.669377,52,52,0.9984902143478394,-0.0019508259138092,-0.0523117519915103,0.0166416894644498,0.0810546875,0.9794921875,0.11083984375,0.5522699952125549,0.7956308722496033,-2.7571729788178345e-07,0.5233547687530518,0.7222846150398254,0.003299419302493334,0.5170438885688782,0.6294488310813904,0.008395634591579437,0.5147509574890137,0.5620664954185486,0.006969654466956854,0.5260971784591675,0.5121604204177856,0.0065299998968839645,0.5752121210098267,0.5896197557449341,0.044664546847343445,0.5857523083686829,0.5329505205154419,0.036096587777137756,0.575244128704071,0.5062458515167236,0.022197458893060684,0.5603234767913818,0.49553370475769043,0.013440725393593311,0.6014601588249207,0.594963550567627,0.034006569534540176,0.6199761033058167,0.522855281829834,0.022572923451662064,0.6019999980926514,0.4981043040752411,0.005844347644597292,0.5739313364028931,0.4981684982776642,-0.0024424002040177584,0.6258078217506409,0.6100426912307739,0.019040895625948906,0.6528190970420837,0.5328277349472046,0.00798323005437851,0.630915105342865,0.5021330714225769,-0.0023136704694479704,0.599838376045227,0.4984022378921509,-0.005837388336658478,0.6447174549102783,0.6321313381195068,0.0032416516914963722,0.6480186581611633,0.5642926096916199,-0.005316448397934437,0.629412829875946,0.5276811718940735,-0.010441802442073822,0.6059886813163757,0.5095665454864502,-0.011615060269832611
2023-08-01 16:24:35.733110,53,53,0.9985264539718628,-0.0021918849088251,-0.0516798868775367,0.0164112132042646,0.07421875,0.9677734375,0.14697265625,0.5522747039794922,0.7962101697921753,-2.7599875807027274e-07,0.5226329565048218,0.7222257256507874,0.003292154986411333,0.5172170996665955,0.6296333074569702,0.008182280696928501,0.5158906579017639,0.5622900128364563,0.006530067417770624,0.5249456167221069,0.5117385983467102,0.005858193151652813,0.5756187438964844,0.5895337462425232,0.043946944177150726,0.5858173966407776,0.5318744778633118,0.03492540866136551,0.5749573707580566,0.5045176148414612,0.020793814212083817,0.5603040456771851,0.4940040111541748,0.011890054680407047,0.6019919514656067,0.5951588749885559,0.03286660835146904,0.6203389167785645,0.5225907564163208,0.021238621324300766,0.6016765832901001,0.4974645674228668,0.004634544253349304,0.5739432573318481,0.49755150079727173,-0.0036699059419333935,0.6262805461883545,0.6106884479522705,0.01744428463280201,0.6539079546928406,0.5319980382919312,0.005786182824522257,0.6307904124259949,0.5007449984550476,-0.004561221227049828,0.5995894074440002,0.49733996391296387,-0.008144334889948368,0.6449688673019409,0.6330156922340393,0.0011889643501490355,0.6470386385917664,0.5643137097358704,-0.00835228618234396,0.6263858079910278,0.5278601050376892,-0.01380517054349184,0.6020421981811523,0.5104385614395142,-0.015134665183722973
2023-08-01 16:24:35.792413,54,54,0.9985414147377014,-0.0020157345570623,-0.0515188351273536,0.0160241331905126,0.10009765625,0.97265625,0.17041015625,0.5517112612724304,0.794197678565979,-2.635956661833916e-07,0.5225610733032227,0.7224148511886597,0.0015549518866464496,0.5171802639961243,0.6291544437408447,0.005234017502516508,0.515819251537323,0.561897873878479,0.002975459210574627,0.5255749225616455,0.5114808082580566,0.0016571138985455036,0.5753924250602722,0.5878235101699829,0.038495711982250214,0.5862040519714355,0.5303359031677246,0.028374241665005684,0.5765079855918884,0.5027909278869629,0.014190132729709148,0.5629855990409851,0.49275171756744385,0.005444789305329323,0.6021806597709656,0.5936906933784485,0.02817925065755844,0.6218936443328857,0.5202222466468811,0.015673812478780746,0.6041917204856873,0.49516940116882324,-0.00035333973937667906,0.5765946507453918,0.49658942222595215,-0.008108311332762241,0.6265280246734619,0.6091669797897339,0.013679244555532932,0.6550191640853882,0.5309367179870605,0.0016740092542022467,0.6321404576301575,0.5006656050682068,-0.008102694526314735,0.6008151173591614,0.49824583530426025,-0.01131218858063221,0.6450366377830505,0.631890594959259,-0.0017381157958880067,0.647484302520752,0.5650526881217957,-0.011177938431501389,0.6274416446685791,0.529221773147583,-0.01640280708670616,0.6034863591194153,0.5115893483161926,-0.017653554677963257
2023-08-01 16:24:35.862065,55,55,0.9985878467559814,-0.0026007071137428,-0.0507608503103256,0.0154553717002272,0.07861328125,0.97216796875,0.16943359375,0.5517624020576477,0.7969101071357727,-2.7029116722587787e-07,0.5224590301513672,0.7226196527481079,0.002660635393112898,0.5181048512458801,0.6296188235282898,0.007229348178952932,0.5162373185157776,0.5630987286567688,0.005270332098007202,0.5257479548454285,0.5120818614959717,0.004444001708179712,0.5759500861167908,0.589403510093689,0.04291633889079094,0.5874801278114319,0.530053973197937,0.03333732858300209,0.577293872833252,0.5031518340110779,0.018963614478707314,0.5634751319885254,0.49429020285606384,0.010032962076365948,0.601396381855011,0.5952914953231812,0.03198267146945,0.6208766102790833,0.5203847289085388,0.0193801186978817,0.6032646894454956,0.4954090118408203,0.002329476410523057,0.5759690999984741,0.4976958632469177,-0.005969242192804813,0.6251486539840698,0.6103391647338867,0.016699837520718575,0.6525017023086548,0.5315495729446411,0.005366720259189606,0.6300092935562134,0.502447783946991,-0.004880992695689201,0.5988683700561523,0.5018923878669739,-0.008465339429676533,0.6445590257644653,0.6324557662010193,0.00039416897925548255,0.6482995748519897,0.5648223161697388,-0.008274462074041367,0.6278790831565857,0.5287739038467407,-0.013506276533007622,0.6026350259780884,0.5121923685073853,-0.014874095097184181
2023-08-01 16:24:35.921200,56,56,0.9985891580581664,-0.0025923897046595,-0.0507824271917343,0.0152977462857961,0.09765625,0.9736328125,0.1474609375,0.5524856448173523,0.7988194823265076,-2.714997151542775e-07,0.5225075483322144,0.7244980931282043,0.0013017039746046066,0.5171446800231934,0.6307241916656494,0.004797920119017363,0.515311598777771,0.5637452006340027,0.002159146126359701,0.5249929428100586,0.5124370455741882,0.0007770416559651494,0.576148271560669,0.5892967581748962,0.04058147221803665,0.5878670811653137,0.5299637913703918,0.02991272322833538,0.5769997239112854,0.5040141344070435,0.01500979159027338,0.5624082088470459,0.4967693090438843,0.005958516150712967,0.6023291349411011,0.5958027243614197,0.030033830553293228,0.6221033334732056,0.5215091705322266,0.016909917816519737,0.6034571528434753,0.49737897515296936,-0.00016287060861941427,0.5754060745239258,0.5002716183662415,-0.008454494178295135,0.6263390183448792,0.6117419004440308,0.015000902116298676,0.6538531184196472,0.5330809950828552,0.0029346963856369257,0.6304050087928772,0.5024884939193726,-0.007653589826077223,0.5989951491355896,0.5004887580871582,-0.011380254290997982,0.644894003868103,0.6345858573913574,-0.0010804292978718877,0.6468674540519714,0.5664032101631165,-0.010337378829717636,0.6260875463485718,0.5298939347267151,-0.0159208532422781,0.6015079021453857,0.5125308036804199,-0.017476823180913925
2023-08-01 16:24:35.980336,57,57,0.9986225962638856,-0.002863434376195,-0.0503477156162261,0.0144822355359792,0.09423828125,0.9697265625,0.13330078125,0.5517309904098511,0.796271026134491,-2.9196900186434505e-07,0.5224695205688477,0.7228579521179199,0.0036098752170801163,0.5169867873191833,0.629793643951416,0.008432233706116676,0.5154826641082764,0.5638890862464905,0.0066884360276162624,0.5241442322731018,0.5135635137557983,0.005936869885772467,0.5763929486274719,0.5878543257713318,0.04313149303197861,0.5877498388290405,0.5287780165672302,0.033473722636699677,0.5758553147315979,0.5032581090927124,0.019062459468841553,0.560081958770752,0.4963727593421936,0.010356062091886997,0.6020623445510864,0.5942795276641846,0.03194728493690491,0.6210125088691711,0.5211614370346069,0.020152989774942398,0.6020550727844238,0.49789124727249146,0.003609609790146351,0.574442982673645,0.5003135800361633,-0.004573727957904339,0.6260260939598083,0.6101454496383667,0.016436807811260223,0.653359591960907,0.5321070551872253,0.005294837057590485,0.6300895810127258,0.502693235874176,-0.004744040779769421,0.5992105603218079,0.5006910562515259,-0.00831066258251667,0.6451622247695923,0.6329090595245361,8.829203579807654e-05,0.6479226350784302,0.5638983249664307,-0.00841346476227045,0.6272807121276855,0.5287213921546936,-0.013220232911407948,0.6027973890304565,0.5121911764144897,-0.014351610094308853
2023-08-01 16:24:36.052999,58,58,0.9987080693244934,-0.0040400149300694,-0.0491218939423561,0.0123600969091057,0.09228515625,0.9716796875,0.13427734375,0.5514096021652222,0.7935160994529724,-2.83256412103583e-07,0.5223808884620667,0.7212682366371155,0.0013680456904694438,0.5165475606918335,0.6290709972381592,0.004646434914320707,0.5154144763946533,0.563238263130188,0.001813208218663931,0.5259344577789307,0.5155127048492432,0.0003141585038974881,0.5764071345329285,0.5863099098205566,0.03932073712348938,0.5885725617408752,0.526250958442688,0.027639249339699745,0.5764476656913757,0.5020226240158081,0.01205750834196806,0.5599479079246521,0.4976981580257416,0.003019732190296054,0.601698637008667,0.5923396348953247,0.029291169717907906,0.6210367679595947,0.5176670551300049,0.01569155603647232,0.6020302772521973,0.49505722522735596,-0.0012642585206776857,0.5740869045257568,0.4996185302734375,-0.009205615147948265,0.6254349946975708,0.6079245209693909,0.014889457263052464,0.652556836605072,0.5293720364570618,0.003228735877200961,0.6300716996192932,0.5009865760803223,-0.006507853977382183,0.5995977520942688,0.5013852119445801,-0.009463004767894745,0.6447703242301941,0.6312232613563538,-0.0006236074259504676,0.6507616639137268,0.5628362894058228,-0.008970087394118309,0.6319370269775391,0.5261762142181396,-0.013651065528392792,0.6079549193382263,0.5093982815742493,-0.014433782547712326
2023-08-01 16:24:36.111242,59,59,0.9987441897392272,-0.0057089827023446,-0.0488329194486141,0.0096268560737371,0.0908203125,0.97802734375,0.13623046875,0.5531259179115295,0.797118067741394,-2.8369237270453596e-07,0.5239174962043762,0.7231782674789429,0.003168304916471243,0.517940878868103,0.6296144127845764,0.008507710881531239,0.5156105160713196,0.5621818900108337,0.007109475787729025,0.5253331661224365,0.511655867099762,0.006914676167070866,0.5765593647956848,0.5912162065505981,0.04467075690627098,0.5873913168907166,0.5309720635414124,0.03580016642808914,0.5767982602119446,0.5041722059249878,0.02200447954237461,0.562801718711853,0.49473702907562256,0.013470805250108242,0.601938784122467,0.5968725085258484,0.0337010957300663,0.6201742887496948,0.5216953158378601,0.021866099908947945,0.6015488505363464,0.4956968128681183,0.005255247466266155,0.574058473110199,0.4965458810329437,-0.0028493364807218313,0.6257458925247192,0.611396074295044,0.01827465184032917,0.6528927087783813,0.5321844816207886,0.006867107003927231,0.6301288604736328,0.5022128224372864,-0.0033801852259784937,0.5992612242698669,0.5010261535644531,-0.006769208703190088,0.6453452110290527,0.6322162747383118,0.0018838841933757067,0.6507523059844971,0.5626109838485718,-0.006923886016011238,0.6302450895309448,0.5251582860946655,-0.012118491344153881,0.6044875383377075,0.508454442024231,-0.01337709091603756
2023-08-01 16:24:36.165089,60,60,0.9987606406211852,-0.0074336985126137,-0.0488048456609249,0.0063109435141086,0.09765625,0.97216796875,0.10302734375,0.551973283290863,0.7955060005187988,-2.802678409352666e-07,0.5231715440750122,0.7224889993667603,0.00365850399248302,0.5175743699073792,0.6309550404548645,0.008615766651928425,0.5155951380729675,0.5646826028823853,0.007052119821310043,0.5240775942802429,0.5165243744850159,0.006326688453555107,0.5773833394050598,0.5896648168563843,0.043707333505153656,0.5878394246101379,0.5322238206863403,0.034881021827459335,0.5775388479232788,0.5058353543281555,0.02076699584722519,0.5628355145454407,0.4970225393772125,0.011978640221059322,0.6034215092658997,0.595831573009491,0.03270883485674858,0.6222183704376221,0.5233157873153687,0.02080492489039898,0.6043851971626282,0.49901294708251953,0.0038427659310400486,0.5760642886161804,0.5012863278388977,-0.004461388103663921,0.627299427986145,0.6114808320999146,0.01750960946083069,0.654726505279541,0.5342512726783752,0.00643954100087285,0.6329234838485718,0.5027575492858887,-0.004366506356745958,0.60160231590271,0.49954649806022644,-0.008345920592546463,0.6456555128097534,0.6339945197105408,0.001489658490754664,0.6492096185684204,0.5669171810150146,-0.00729285879060626,0.630475640296936,0.5296217203140259,-0.013007398694753647,0.6066107749938965,0.510995090007782,-0.014671264216303825
2023-08-01 16:24:36.231018,61,61,0.9987305402755736,-0.0132451681420207,-0.04855278134346,-0.0021299303043633,0.05517578125,0.95947265625,0.14013671875,0.5525650978088379,0.796552836894989,-2.967015859667299e-07,0.5234548449516296,0.7239298820495605,0.0033345448318868876,0.5183391571044922,0.6305729746818542,0.007972191087901592,0.5164139270782471,0.5638156533241272,0.006193618290126324,0.5256370306015015,0.5159149765968323,0.005425076000392437,0.5773677825927734,0.59041827917099,0.04197456315159798,0.5882666707038879,0.5303910374641418,0.03211558982729912,0.5763447284698486,0.503818154335022,0.01775757223367691,0.5603352785110474,0.4963359236717224,0.009103639982640743,0.6032544374465942,0.596729576587677,0.031072229146957397,0.6214125752449036,0.5228883624076843,0.01916562207043171,0.602381706237793,0.4971633553504944,0.0026429921854287386,0.5741686820983887,0.49760985374450684,-0.005507319234311581,0.6276713013648987,0.6125262975692749,0.015964999794960022,0.6544245481491089,0.5329776406288147,0.0045095221139490604,0.6314904689788818,0.5022051334381104,-0.0054676770232617855,0.6005949974060059,0.49934446811676025,-0.00881690438836813,0.647091269493103,0.6352112293243408,5.779847560916096e-05,0.6491663455963135,0.5655463933944702,-0.00911649875342846,0.6288392543792725,0.5283266305923462,-0.014249415136873722,0.6047924160957336,0.5100348591804504,-0.01537348423153162
2023-08-01 16:24:36.291894,62,62,0.9986633062362672,-0.0211548320949077,-0.0451876744627952,-0.0134961875155568,0.09228515625,0.974609375,0.048828125,0.552872359752655,0.7949244379997253,-2.998523314090562e-07,0.5237089395523071,0.7214783430099487,0.0014721817569807172,0.5184590816497803,0.628513514995575,0.004562025889754295,0.5167787075042725,0.5619481801986694,0.0015605166554450989,0.5270755290985107,0.5121585130691528,-0.00024794493219815195,0.5790523290634155,0.5872281789779663,0.039118442684412,0.5898628830909729,0.5262637138366699,0.027253150939941406,0.5769933462142944,0.5010542273521423,0.01149022113531828,0.5600794553756714,0.49551087617874146,0.0020978779066354036,0.604589581489563,0.5935589671134949,0.0287969708442688,0.6231076717376709,0.5194600820541382,0.015127929858863354,0.6024987101554871,0.49609875679016113,-0.002203624462708831,0.5730230212211609,0.49834388494491577,-0.010759007185697556,0.6283994317054749,0.6100990176200867,0.01411457546055317,0.6560239791870117,0.5306777954101562,0.0017440879018977284,0.6321640610694885,0.5011175870895386,-0.008633118122816086,0.6003010869026184,0.4991041421890259,-0.012264841236174107,0.6466370820999146,0.6342750191688538,-0.001547760795801878,0.6497788429260254,0.5658572316169739,-0.011195010505616665,0.629452109336853,0.5293935537338257,-0.016713419929146767,0.6048939824104309,0.5113039612770081,-0.01812703348696232
2023-08-01 16:24:36.368587,63,63,0.997956395149231,-0.0332527756690979,-0.0461969785392284,-0.0290327742695808,0.05029296875,0.96142578125,0.1640625,0.5529086589813232,0.7967891097068787,-2.797702904899779e-07,0.5241841077804565,0.72406005859375,0.0014772231224924326,0.5192499160766602,0.6282806396484375,0.005502990912646055,0.5174931883811951,0.5592139959335327,0.00344700925052166,0.5289329290390015,0.5072634220123291,0.0027218416798859835,0.5803563594818115,0.5864656567573547,0.04162086546421051,0.5925419330596924,0.5260926485061646,0.031180361285805702,0.5811249613761902,0.49965810775756836,0.01655471883714199,0.5653641819953918,0.49159687757492065,0.007778775412589312,0.6072751879692078,0.593111515045166,0.03140980377793312,0.6268993020057678,0.519066572189331,0.01912630721926689,0.6091917753219604,0.4928058981895447,0.0026411511935293674,0.580849826335907,0.4929302930831909,-0.005236015189439058,0.6318393349647522,0.6100720763206482,0.01665380224585533,0.6608238220214844,0.5303881764411926,0.004200706258416176,0.639277994632721,0.4977310001850128,-0.005687323864549398,0.6076724529266357,0.4933740496635437,-0.008527053520083427,0.6507759690284729,0.634118914604187,0.000949990761000663,0.6537859439849854,0.5644152164459229,-0.009851086884737015,0.6345146298408508,0.5252897143363953,-0.015676015987992287,0.6102887988090515,0.5048551559448242,-0.01679239049553871
2023-08-01 16:24:36.440968,64,64,0.9966369867324828,-0.0481592379510402,-0.0485650077462196,-0.0451304577291011,0.02197265625,0.9560546875,0.3232421875,0.5504008531570435,0.796261191368103,-2.749979159943905e-07,0.5217069387435913,0.7262939214706421,-0.0020790440030395985,0.5179604291915894,0.6254311800003052,0.0004892682773061097,0.5175131559371948,0.553328275680542,-0.002309025963768363,0.527585506439209,0.499250590801239,-0.0034416927956044674,0.5822789669036865,0.5802709460258484,0.035986434668302536,0.5952529311180115,0.5186738967895508,0.02258591540157795,0.5843073129653931,0.49046003818511963,0.006036076229065657,0.568148672580719,0.4824860095977783,-0.0034621418453752995,0.609843373298645,0.5872704982757568,0.026753291487693787,0.6315828561782837,0.5114845633506775,0.011714468710124493,0.6125581860542297,0.4828130006790161,-0.00526699423789978,0.5816810727119446,0.48368796706199646,-0.012665440328419209,0.6346509456634521,0.6049098372459412,0.012737765908241272,0.6640179753303528,0.5256765484809875,-0.001317945308983326,0.6420408487319946,0.49203038215637207,-0.01084580086171627,0.6094945669174194,0.4893012046813965,-0.012624504044651985,0.6537466049194336,0.63064044713974,-0.002642064355313778,0.6612188816070557,0.5591347813606262,-0.013812268152832985,0.6438930630683899,0.5177414417266846,-0.018900316208600998,0.6196432113647461,0.4979363679885864,-0.018968064337968826
2023-08-01 16:24:36.505965,65,65,0.9950720071792604,-0.0615838095545768,-0.0440667085349559,-0.0640092268586158,-0.1025390625,0.93505859375,0.2333984375,0.5497245788574219,0.7966634631156921,-2.8203635338286404e-07,0.520670473575592,0.7227778434753418,-0.0021947319619357586,0.5166533589363098,0.6234018206596375,-0.0004505943797994405,0.5162810683250427,0.5501682162284851,-0.004303410649299622,0.5278507471084595,0.4954438805580139,-0.006610814947634935,0.5820080637931824,0.5783693790435791,0.035320740193128586,0.5965972542762756,0.512535572052002,0.020804475992918015,0.5854681730270386,0.4839603006839752,0.0040265899151563644,0.5706594586372375,0.47783422470092773,-0.005643357522785664,0.6106274127960205,0.5860318541526794,0.02549746260046959,0.6351443529129028,0.5052184462547302,0.008535855449736118,0.615372896194458,0.4787636697292328,-0.009155207313597202,0.5851863622665405,0.4834628105163574,-0.016646549105644226,0.6359676718711853,0.6049387454986572,0.010814765468239784,0.6686466932296753,0.5204594731330872,-0.004789094906300306,0.6446062922477722,0.48756566643714905,-0.015336408279836178,0.6113556623458862,0.48649007081985474,-0.017740175127983093,0.6550987362861633,0.6328702569007874,-0.005164127331227064,0.6610459685325623,0.5591140985488892,-0.017866281792521477,0.6408807039260864,0.5179041624069214,-0.02446851320564747,0.6154153347015381,0.49816420674324036,-0.025679925456643105
2023-08-01 16:24:36.570581,66,66,0.9928495287895204,-0.075408361852169,-0.0475257448852062,-0.0794023275375366,-0.09765625,0.95263671875,0.244140625,0.5508051514625549,0.8026725053787231,-3.084116428908601e-07,0.5212748646736145,0.7257078886032104,-0.0009080541785806417,0.5161461234092712,0.6228765845298767,0.0023690122179687023,0.515090823173523,0.5477186441421509,-0.000600712897721678,0.5272589921951294,0.49163615703582764,-0.0018630947452038527,0.5816530585289001,0.5782815217971802,0.0413806177675724,0.5959554314613342,0.511313796043396,0.02843582257628441,0.5852500796318054,0.48322930932044983,0.011511929333209991,0.5689261555671692,0.4762538969516754,0.0014317802852019668,0.6100433468818665,0.5858772993087769,0.031064219772815704,0.6320524215698242,0.5054552555084229,0.015663791447877884,0.6135786771774292,0.47790008783340454,-0.0032966630533337593,0.5829630494117737,0.4799754023551941,-0.012353614903986454,0.635994017124176,0.604165256023407,0.015639543533325195,0.667725145816803,0.5192641615867615,0.0009237138438038528,0.6459678411483765,0.485299676656723,-0.011164063587784767,0.6125964522361755,0.4829649329185486,-0.015093591064214706,0.6568851470947266,0.6303837299346924,-0.0010775200789794326,0.6643775701522827,0.5554556250572205,-0.013321294449269772,0.6448981165885925,0.5134509205818176,-0.020591968670487404,0.6181215643882751,0.49359652400016785,-0.022654922679066658
2023-08-01 16:24:36.635607,67,67,0.9903324246406556,-0.0894006714224815,-0.0498147495090961,-0.0936363413929939,-0.07958984375,0.9189453125,0.3330078125,0.5514877438545227,0.8052379488945007,-2.796339515498403e-07,0.5208175778388977,0.731768012046814,-0.004140941426157951,0.515434980392456,0.6220436096191406,-0.002952149137854576,0.5146147012710571,0.542210042476654,-0.007259551435709,0.526759684085846,0.4828070402145386,-0.009577939286828041,0.5828613638877869,0.5736746191978455,0.03644222021102905,0.5970844030380249,0.5067803263664246,0.02067471854388714,0.5858132839202881,0.47626060247421265,0.0020856186747550964,0.5688740611076355,0.469541996717453,-0.008671913295984268,0.6135852336883545,0.5821171402931213,0.026827188208699226,0.6384324431419373,0.5011972188949585,0.008989749476313591,0.6171961426734924,0.46959641575813293,-0.009811013005673885,0.5825764536857605,0.47247663140296936,-0.01797131821513176,0.6406047940254211,0.6024254560470581,0.011830508708953857,0.6742312908172607,0.5157299637794495,-0.005044630263000727,0.6502248644828796,0.4793063700199127,-0.01570277474820614,0.6146188974380493,0.4786306619644165,-0.017675019800662994,0.6612647771835327,0.6308608055114746,-0.004707294516265392,0.6695114970207214,0.5526637434959412,-0.0189814530313015,0.6503767371177673,0.5072034001350403,-0.025672828778624535,0.623708963394165,0.48668819665908813,-0.026450391858816147
2023-08-01 16:24:36.697794,68,68,0.9881566762924194,-0.0998608320951461,-0.0431890375912189,-0.1082071438431739,-0.15966796875,0.90771484375,0.3076171875,0.5528928637504578,0.8108243942260742,-2.5640477474553336e-07,0.5193669199943542,0.7350142002105713,-0.004044731613248587,0.5154168009757996,0.6191871762275696,-0.001732384436763823,0.5159003734588623,0.5339661836624146,-0.004826525691896677,0.5308918952941895,0.47077369689941406,-0.006097443401813507,0.5873696804046631,0.5672255754470825,0.04027113690972328,0.6020347476005554,0.5015397071838379,0.02857872284948826,0.5949873328208923,0.47038015723228455,0.011952899396419525,0.5824334025382996,0.4580818712711334,0.0012573916465044022,0.6208340525627136,0.5782816410064697,0.030383944511413574,0.6460728049278259,0.4964594542980194,0.014834318310022354,0.6284299492835999,0.465228408575058,-0.004643190186470747,0.5952954888343811,0.46729832887649536,-0.013513384386897087,0.6495615839958191,0.6016541123390198,0.01535927876830101,0.6866045594215393,0.5108616948127747,-0.00105705251917243,0.6659505367279053,0.4712807536125183,-0.012492440640926361,0.6309040784835815,0.4679186940193176,-0.014872909523546696,0.670904815196991,0.6339021325111389,-0.0010357509599998593,0.676886796951294,0.549223780632019,-0.01755460351705551,0.6583681106567383,0.49968579411506653,-0.02546210214495659,0.632327675819397,0.47638803720474243,-0.026364196091890335
2023-08-01 16:24:36.769429,69,69,0.9845287203788756,-0.1143406108021736,-0.0449263453483581,-0.124944195151329,-0.21533203125,0.8525390625,0.39013671875,0.5542418360710144,0.8198642134666443,-2.805018368690071e-07,0.520012378692627,0.7419377565383911,-0.006753518246114254,0.5147833824157715,0.6191458702087402,-0.0057359603233635426,0.5142899751663208,0.5285356640815735,-0.010183053091168404,0.5319430232048035,0.4641551375389099,-0.012312059290707111,0.5875073075294495,0.5678701996803284,0.03984804078936577,0.6032358407974243,0.49691563844680786,0.02428513951599598,0.593481183052063,0.4639102816581726,0.004863861948251724,0.576060950756073,0.4517253041267395,-0.006679348647594452,0.6218470335006714,0.5768448710441589,0.03110986016690731,0.6465353965759277,0.48960548639297485,0.012539117597043514,0.6277284622192383,0.45571690797805786,-0.008529997430741787,0.5919281244277954,0.456503689289093,-0.017710167914628983,0.6519631147384644,0.5983920693397522,0.01654377579689026,0.6878897547721863,0.5043818354606628,-0.0012677243212237954,0.667975127696991,0.46447086334228516,-0.013366682454943657,0.6318038105964661,0.4613756537437439,-0.015571302734315395,0.6748801469802856,0.6288118958473206,0.00023474935733247548,0.6840247511863708,0.5431269407272339,-0.015035641379654408,0.6696494817733765,0.49266505241394043,-0.022643957287073135,0.6456410884857178,0.4681171774864197,-0.02337140217423439
2023-08-01 16:24:36.857973,70,70,0.9800142645835876,-0.1288104355335235,-0.0421824380755424,-0.1456041485071182,-0.267578125,0.8486328125,0.41943359375,0.5553188920021057,0.8280158042907715,-2.7423385517977295e-07,0.5205014944076538,0.7434616088867188,-0.0062578520737588406,0.5136900544166565,0.6195816397666931,-0.005490679759532213,0.5123792886734009,0.5263735055923462,-0.010654555633664131,0.5320882797241211,0.4620882272720337,-0.013658266514539719,0.5860852599143982,0.5654118061065674,0.04314414784312248,0.6027301549911499,0.4952988028526306,0.028016656637191772,0.5945953726768494,0.4620814323425293,0.008178199641406536,0.5789214372634888,0.4466160237789154,-0.004319131840020418,0.6228042840957642,0.5749104619026184,0.03357764333486557,0.6486809849739075,0.487204372882843,0.013615556061267853,0.630082368850708,0.45556962490081787,-0.009189112111926079,0.593639612197876,0.4572744369506836,-0.019206106662750244,0.6547213196754456,0.5975275635719299,0.01814330741763115,0.6913042664527893,0.5018238425254822,-3.000878496095538e-05,0.671907901763916,0.46191829442977905,-0.01254918985068798,0.6350834965705872,0.45823633670806885,-0.014878475107252598,0.6785475015640259,0.6298831701278687,0.0009238392231054604,0.6866281032562256,0.5432018041610718,-0.013927808962762356,0.6731568574905396,0.49027806520462036,-0.021607540547847748,0.6499563455581665,0.4623359441757202,-0.022444091737270355
2023-08-01 16:24:36.943862,71,71,0.9756520986557008,-0.1424501091241836,-0.0419166646897792,-0.1614121794700622,-0.189453125,0.88916015625,0.43359375,0.567284882068634,0.8430901765823364,-2.1371792513491528e-07,0.526253879070282,0.7570462226867676,-0.009442564100027084,0.5193902254104614,0.624650776386261,-0.01010139286518097,0.5204989910125732,0.5248271226882935,-0.01620711199939251,0.5361095070838928,0.44655632972717285,-0.02053295075893402,0.5961236357688904,0.557370662689209,0.04379749670624733,0.6152145862579346,0.4838208556175232,0.02896181493997574,0.6094714999198914,0.4465947151184082,0.006720421835780144,0.5927289724349976,0.4278217852115631,-0.008568701334297657,0.6368748545646667,0.5692716836929321,0.033190011978149414,0.6697690486907959,0.4779589772224426,0.012302421033382416,0.6520461440086365,0.43901222944259644,-0.015364906750619411,0.6107579469680786,0.43627631664276123,-0.029679251834750175,0.6710053086280823,0.5962687134742737,0.016243917867541313,0.7180783748626709,0.49648770689964294,-0.0039921170100569725,0.6986494064331055,0.44731423258781433,-0.022911526262760162,0.6568490266799927,0.4375033378601074,-0.030603211373090744,0.6968255639076233,0.6347839832305908,-0.0026085625868290663,0.7069945931434631,0.5414347648620605,-0.022636372596025467,0.688218355178833,0.4843156337738037,-0.03548793867230415,0.6569705605506897,0.45560821890830994,-0.04041067883372307
2023-08-01 16:24:37.009115,72,72,0.9726465344429016,-0.1498483717441558,-0.0387724675238132,-0.1732077151536941,-0.2802734375,0.837890625,0.5078125,0.5642314553260803,0.8543699979782104,-2.0511977538717474e-07,0.5257439613342285,0.7631070613861084,-0.013510901480913162,0.5212647318840027,0.6262387633323669,-0.016431719064712524,0.5230528712272644,0.5231925249099731,-0.024652721360325813,0.5435433387756348,0.4430955648422241,-0.03025190532207489,0.6008937954902649,0.5584365129470825,0.03934585303068161,0.6232663989067078,0.48017948865890503,0.016696801409125328,0.6176037192344666,0.43972069025039673,-0.009695201180875301,0.6003680229187012,0.4229278564453125,-0.025839829817414284,0.6438356637954712,0.5716459155082703,0.02980877459049225,0.6812186241149902,0.4731823205947876,0.002133995061740279,0.6613011360168457,0.4300185441970825,-0.026881955564022064,0.6168388724327087,0.4290998578071594,-0.039886388927698135,0.6793593168258667,0.6001650094985962,0.01316219661384821,0.7254645228385925,0.49297332763671875,-0.010873815044760704,0.7038119435310364,0.4433377981185913,-0.02680964581668377,0.6603278517723083,0.437208890914917,-0.030119577422738075,0.7060416340827942,0.6399332880973816,-0.006043954752385616,0.718063473701477,0.541877031326294,-0.026287084445357323,0.7016344666481018,0.4808385372161865,-0.03677036613225937,0.6720855832099915,0.45036691427230835,-0.03837863355875015
2023-08-01 16:24:37.068140,73,73,0.96906316280365,-0.1581810861825943,-0.0379211418330669,-0.1856266558170318,-0.35205078125,0.83544921875,0.48974609375,0.5833261013031006,0.8947397470474243,-2.1411442219232413e-07,0.5376957654953003,0.7905728816986084,-0.010403787717223167,0.529928982257843,0.6386482119560242,-0.00886557251214981,0.5319153666496277,0.5251877307891846,-0.013756214641034603,0.5519994497299194,0.442706823348999,-0.015553765930235386,0.6099915504455566,0.5670912861824036,0.052015841007232666,0.6342167854309082,0.48363882303237915,0.03322895988821983,0.6305248141288757,0.44367969036102295,0.008020437322556973,0.6156553626060486,0.4248327314853668,-0.008088559843599796,0.656187117099762,0.5780022144317627,0.04169803857803345,0.6915264129638672,0.47224414348602295,0.018964778631925583,0.6769140958786011,0.42849621176719666,-0.008850290440022945,0.6371879577636719,0.42901986837387085,-0.021739594638347626,0.6953509449958801,0.6068012118339539,0.023607533425092697,0.7429044842720032,0.4953506290912628,0.003259422490373254,0.726094663143158,0.4423884153366089,-0.013318177312612534,0.6841516494750977,0.4374702572822571,-0.017784282565116882,0.7268569469451904,0.6510804891586304,0.0027481408324092627,0.7460436224937439,0.5505766272544861,-0.01565428078174591,0.7319400310516357,0.48517659306526184,-0.02702346444129944,0.7013988494873047,0.45405519008636475,-0.029715916141867638
2023-08-01 16:24:37.130094,74,74,0.9669422507286072,-0.1619735062122345,-0.0325158461928367,-0.1942420452833175,-0.3505859375,0.79638671875,0.47314453125,0.5889936089515686,0.9157423973083496,-1.904843998090655e-07,0.5427501797676086,0.8063753843307495,-0.01397862657904625,0.5356791615486145,0.6509222984313965,-0.014527861028909683,0.537602961063385,0.5353055000305176,-0.021349269896745682,0.5505789518356323,0.44754117727279663,-0.024983225390315056,0.613255500793457,0.5759091377258301,0.0459829643368721,0.636300265789032,0.4905828535556793,0.022052215412259102,0.6363986134529114,0.44774365425109863,-0.006200843024998903,0.6246486902236938,0.42878687381744385,-0.023555979132652283,0.6632503271102905,0.5864036083221436,0.03543649613857269,0.7011630535125732,0.474644273519516,0.0059149847365915775,0.6849498152732849,0.4309085011482239,-0.024785393849015236,0.6422515511512756,0.4367728531360626,-0.03832679241895676,0.7057909369468689,0.613917350769043,0.01686888560652733,0.7558267116546631,0.4958649277687073,-0.009207582101225853,0.7356953024864197,0.4440532922744751,-0.02597096562385559,0.6910475492477417,0.4446730613708496,-0.028980150818824768,0.7394533157348633,0.6562433838844299,-0.004745705518871546,0.7600730657577515,0.5511532425880432,-0.02556210197508335,0.7461583614349365,0.4835641384124756,-0.036514654755592346,0.715185821056366,0.4521760940551758,-0.0382232703268528
2023-08-01 16:24:37.184975,75,75,0.9642192125320436,-0.1684786230325698,-0.032633900642395,-0.2020675092935562,-0.33203125,0.7939453125,0.5224609375,0.593142569065094,0.9358818531036377,-1.740661872418059e-07,0.5463339686393738,0.8237550854682922,-0.015239286236464977,0.5392507910728455,0.6618643403053284,-0.0166829414665699,0.5416169166564941,0.5421361327171326,-0.02432500198483467,0.5556007623672485,0.44959014654159546,-0.0286619421094656,0.6188349723815918,0.582161545753479,0.04702138155698776,0.6421593427658081,0.4955736994743347,0.02372947335243225,0.6429448127746582,0.45179283618927,-0.00442676292732358,0.6332646608352661,0.4280913472175598,-0.022370820865035057,0.6692857146263123,0.5933137536048889,0.036607373505830765,0.70615553855896,0.4791008234024048,0.0063773151487112045,0.6908250451087952,0.43569478392601013,-0.02524247206747532,0.6503657698631287,0.44097357988357544,-0.039395347237586975,0.7123462557792664,0.6217296719551086,0.018100375309586525,0.7624165415763855,0.4998137354850769,-0.008566750213503838,0.743461549282074,0.4492295980453491,-0.025078115984797478,0.7008330821990967,0.4502905607223511,-0.027853718027472496,0.74684739112854,0.6651759147644043,-0.0035842680372297764,0.7676298022270203,0.5568900108337402,-0.024544812738895416,0.7572788000106812,0.48629963397979736,-0.03547779470682144,0.7310933470726013,0.45103055238723755,-0.03717394918203354
2023-08-01 16:24:37.248069,76,76,0.9622474908828736,-0.1712133884429931,-0.0289389993995428,-0.2095908224582672,-0.35986328125,0.77880859375,0.52587890625,0.6053025722503662,0.9598304033279419,-1.0958243734648931e-07,0.5491378307342529,0.8524531722068787,-0.021649932488799095,0.5397752523422241,0.6805402636528015,-0.024939797818660736,0.5441821217536926,0.5517875552177429,-0.03253479674458504,0.5606811046600342,0.45228421688079834,-0.03671719878911972,0.6212887167930603,0.5897287726402283,0.040894974023103714,0.6473198533058167,0.49615034461021423,0.017118170857429504,0.6549975872039795,0.4513522982597351,-0.011059297248721123,0.6526857614517212,0.43092191219329834,-0.028777791187167168,0.6777138710021973,0.6055530309677124,0.03332735225558281,0.7165565490722656,0.48483967781066895,0.0024484426248818636,0.70594722032547,0.44033655524253845,-0.03058343566954136,0.6682270765304565,0.4497916102409363,-0.04572395235300064,0.7250109314918518,0.637488842010498,0.01734018325805664,0.77708899974823,0.5105366706848145,-0.01184646412730217,0.7639049291610718,0.45246827602386475,-0.03245930373668671,0.7249005436897278,0.45191672444343567,-0.03801179677248001,0.7624891996383667,0.6826642751693726,-0.0017389333806931973,0.7791814804077148,0.5680016875267029,-0.026863766834139824,0.7707271575927734,0.4918307662010193,-0.041450370103120804,0.7478446960449219,0.453462690114975,-0.04538840427994728
2023-08-01 16:24:37.315620,77,77,0.9607378840446472,-0.1730245798826217,-0.0254187155514955,-0.2154045552015304,-0.3857421875,0.7197265625,0.52001953125,0.6084113121032715,0.971863865852356,-2.333182003155798e-08,0.5544654726982117,0.8593052625656128,-0.021717436611652374,0.5431468486785889,0.687990665435791,-0.02561919391155243,0.5464775562286377,0.5556728839874268,-0.03409646078944206,0.5624129176139832,0.4544721245765686,-0.0392814539372921,0.6222934722900391,0.5918977856636047,0.04658844694495201,0.6510207653045654,0.4962926506996155,0.0243882667273283,0.6631494760513306,0.44720280170440674,-0.005407686345279217,0.6626535058021545,0.4213169813156128,-0.025664839893579483,0.6804350018501282,0.6077092289924622,0.038693636655807495,0.7241744995117188,0.4824702739715576,0.006864616647362709,0.7163209319114685,0.4378805458545685,-0.03104582242667675,0.6779788732528687,0.4464934766292572,-0.0503108911216259,0.7288475632667542,0.6399412155151367,0.02241581492125988,0.785790205001831,0.5099130868911743,-0.0070701041258871555,0.7757983803749084,0.45090925693511963,-0.033485349267721176,0.7365075945854187,0.45043301582336426,-0.04400750249624252,0.7672922611236572,0.686307966709137,0.003103983122855425,0.785767138004303,0.5731070041656494,-0.022906117141246796,0.7782955765724182,0.4970911145210266,-0.04159200191497803,0.7552815079689026,0.4586254954338074,-0.04947475716471672
2023-08-01 16:24:37.375542,78,78,0.9595640897750854,-0.1757718324661255,-0.0246028900146484,-0.218484878540039,-0.37841796875,0.73583984375,0.50341796875,0.608902096748352,0.979564905166626,-8.318685473795995e-08,0.5553235411643982,0.8594688177108765,-0.023492660373449326,0.5428230166435242,0.6893913745880127,-0.029573554173111916,0.5464572310447693,0.5550714731216431,-0.040222715586423874,0.56423020362854,0.4486585259437561,-0.04718741774559021,0.626453697681427,0.5947251319885254,0.049409229308366776,0.6559056639671326,0.499059796333313,0.026591813191771507,0.6637647747993469,0.45325860381126404,-0.004873762372881174,0.6593366861343384,0.4291311502456665,-0.026626911014318466,0.6848534941673279,0.6111368536949158,0.041868701577186584,0.7268682718276978,0.48586684465408325,0.009439587593078613,0.7149938941001892,0.443700909614563,-0.031456999480724335,0.674052357673645,0.45191800594329834,-0.05370520055294037,0.7329229712486267,0.6437628269195557,0.025534164160490036,0.7939234972000122,0.5083844661712646,-0.005944318138062954,0.7818798422813416,0.45109230279922485,-0.03512319549918175,0.739780843257904,0.4533824622631073,-0.047822147607803345,0.7712193727493286,0.6911638975143433,0.00624605780467391,0.7906444072723389,0.5753607749938965,-0.022446058690547943,0.7797210216522217,0.49922001361846924,-0.04337064176797867,0.75243079662323,0.46113836765289307,-0.05297112837433815
2023-08-01 16:24:37.441593,79,79,0.9597571492195128,-0.1756412237882614,-0.0242456663399934,-0.2177808433771133,-0.412109375,0.7607421875,0.56884765625,0.6121237874031067,0.985973060131073,-1.5917631657202946e-08,0.5570023655891418,0.8648649454116821,-0.02574140392243862,0.544052004814148,0.6931492686271667,-0.03234601020812988,0.5481768846511841,0.5562023520469666,-0.04264063760638237,0.566097617149353,0.44824057817459106,-0.049341004341840744,0.6261755228042603,0.5929644107818604,0.045787688344717026,0.657663106918335,0.49572718143463135,0.022720005363225937,0.6716406345367432,0.44653964042663574,-0.008510047569870949,0.6725184321403503,0.4202977418899536,-0.030110139399766922,0.6873980164527893,0.6125088930130005,0.03900812938809395,0.7338296175003052,0.4856257140636444,0.005551711656153202,0.7249664068222046,0.4408971667289734,-0.035165995359420776,0.6842575669288635,0.44868606328964233,-0.05688562989234924,0.7365081310272217,0.6482424736022949,0.02334776520729065,0.8009761571884155,0.514155924320221,-0.009773117490112782,0.7915853261947632,0.4510500431060791,-0.04022234305739403,0.7502412796020508,0.4488700032234192,-0.053439754992723465,0.7740963697433472,0.6973918080329895,0.004763502161949873,0.7918803691864014,0.5803355574607849,-0.02645810879766941,0.7803971171379089,0.5041634440422058,-0.04865079000592232,0.7528485059738159,0.4670494794845581,-0.05858738347887993
2023-08-01 16:24:37.502414,80,80,0.9611622095108032,-0.1719150096178054,-0.0235257726162672,-0.214613527059555,-0.388671875,0.779296875,0.56298828125,0.6121604442596436,0.9882015585899353,-6.178321143579524e-08,0.5565193891525269,0.86920166015625,-0.026548687368631363,0.5432751774787903,0.6955845952033997,-0.03416714444756508,0.5484737753868103,0.5565814971923828,-0.04547525569796562,0.5671852827072144,0.4469117522239685,-0.053380146622657776,0.6291709542274475,0.5946976542472839,0.045816678553819656,0.6605064868927002,0.4952923059463501,0.022029636427760124,0.6726304292678833,0.44817909598350525,-0.010379944927990437,0.671946108341217,0.4243246912956238,-0.032840218394994736,0.6905225515365601,0.6151959896087646,0.038930799812078476,0.7354726195335388,0.48559674620628357,0.004149257205426693,0.7232394218444824,0.4426496624946594,-0.03924793004989624,0.6797998547554016,0.4505942761898041,-0.06291411817073822,0.739961564540863,0.6511357426643372,0.023179106414318085,0.8056053519248962,0.513607382774353,-0.011149618774652481,0.7938768863677979,0.4523351788520813,-0.04441576078534126,0.7500417828559875,0.45063453912734985,-0.059808023273944855,0.7784759998321533,0.7011356949806213,0.004659837111830711,0.7958111763000488,0.5839777588844299,-0.02743425965309143,0.7821923494338989,0.5089883804321289,-0.05124058574438095,0.7522112727165222,0.4715091288089752,-0.06278490275144577
2023-08-01 16:24:37.575196,81,81,0.9638806581497192,-0.1636068671941757,-0.022296966984868,-0.2089729458093643,-0.34326171875,0.7978515625,0.5146484375,0.6089293956756592,0.9932541251182556,5.147494652746332e-10,0.5537329912185669,0.8778743743896484,-0.03068232536315918,0.5408278703689575,0.7064274549484253,-0.04059553146362305,0.5455191731452942,0.5667684078216553,-0.05274100601673126,0.5708575248718262,0.46190696954727173,-0.061475981026887894,0.6252923011779785,0.5996471643447876,0.034067414700984955,0.655322253704071,0.5038654208183289,0.00852835550904274,0.6722980737686157,0.452921062707901,-0.023416543379426003,0.6797213554382324,0.4280988872051239,-0.045529723167419434,0.6903508305549622,0.6206263899803162,0.028951548039913177,0.7415274381637573,0.4936107099056244,-0.004624074324965477,0.7377604842185974,0.45085763931274414,-0.04312879964709282,0.7036428451538086,0.4626860022544861,-0.06362927705049515,0.7413192391395569,0.6591646075248718,0.014883502386510372,0.807809054851532,0.524105429649353,-0.018614688888192177,0.7966492772102356,0.4624171555042267,-0.047542866319417953,0.7554971575737,0.4638656973838806,-0.060131900012493134,0.7804644107818604,0.7131297588348389,-0.002429625019431114,0.7947325706481934,0.5974499583244324,-0.034477464854717255,0.7775173783302307,0.5276304483413696,-0.05603359267115593,0.7453399300575256,0.4984898865222931,-0.06553924828767776
2023-08-01 16:24:37.655790,82,82,0.967626690864563,-0.1527471095323562,-0.0241678059101104,-0.1994562447071075,-0.35498046875,0.79833984375,0.486328125,0.6061084866523743,0.9849349856376648,-9.308446458078379e-09,0.5539517998695374,0.8639723658561707,-0.028443239629268646,0.5452753305435181,0.695883572101593,-0.03564601019024849,0.5519403219223022,0.5625774264335632,-0.04634196311235428,0.5723032355308533,0.45967715978622437,-0.05382772162556648,0.6240730285644531,0.6041543483734131,0.04052477329969406,0.6497893929481506,0.5113791227340698,0.017045045271515846,0.6659842133522034,0.4625345468521118,-0.01406859140843153,0.6742991209030151,0.4343961179256439,-0.0358346588909626,0.6836015582084656,0.6208925247192383,0.03568500652909279,0.7249600887298584,0.49656617641448975,0.00015060121950227767,0.7173715829849243,0.4591440260410309,-0.042074691504240036,0.6834843754768372,0.4710785746574402,-0.06486592441797256,0.7319284677505493,0.6522446870803833,0.022305414080619812,0.788515031337738,0.5247478485107422,-0.009980494156479836,0.7758074998855591,0.47151607275009155,-0.040821947157382965,0.7367712259292603,0.4748426079750061,-0.05484633147716522,0.7704424262046814,0.6991496086120605,0.005731553304940462,0.7932456731796265,0.5868813991546631,-0.018491528928279877,0.7901175618171692,0.5141439437866211,-0.0377417616546154,0.772020161151886,0.47870028018951416,-0.04764752835035324
2023-08-01 16:24:37.719007,83,83,0.9703583717346193,-0.1451319754123687,-0.0274159777909517,-0.1912842541933059,-0.3076171875,0.82958984375,0.4599609375,0.606174886226654,0.9800000786781311,-8.090852077202726e-08,0.5566418170928955,0.860308051109314,-0.020611844956874847,0.5475203990936279,0.6941960453987122,-0.023657333105802536,0.5538697242736816,0.5656964182853699,-0.03174138069152832,0.5688860416412354,0.46479982137680054,-0.03644080460071564,0.6278843879699707,0.6035707592964172,0.0477391816675663,0.6552181839942932,0.5120925307273865,0.026195911690592766,0.6637253165245056,0.4651590585708618,-0.002419376280158758,0.66132652759552,0.43943095207214355,-0.021545862779021263,0.6840245723724365,0.619689404964447,0.04013874754309654,0.7210896611213684,0.4981691241264343,0.0105038583278656,0.7110001444816589,0.45300716161727905,-0.02552509866654873,0.6746608018875122,0.4574601650238037,-0.04455091804265976,0.7296909093856812,0.6518597602844238,0.02407754771411419,0.7835187315940857,0.5246042013168335,-0.005596010480076075,0.7678839564323425,0.4727581739425659,-0.030453436076641083,0.7256249785423279,0.47747254371643066,-0.039791639894247055,0.7663029432296753,0.6977133750915527,0.005103363189846277,0.7861410975456238,0.5854321718215942,-0.020448675379157066,0.773827850818634,0.513205885887146,-0.03744645044207573,0.7453217506408691,0.47973665595054626,-0.0441180095076561
2023-08-01 16:24:37.782441,84,84,0.9733290672302246,-0.1372562497854232,-0.0323682762682437,-0.1809518486261367,-0.3525390625,0.8203125,0.4755859375,0.6033302545547485,0.9712511301040649,-1.348046367866118e-07,0.5569882392883301,0.8551487922668457,-0.017233390361070633,0.5507885813713074,0.6870224475860596,-0.018843142315745354,0.5583888292312622,0.562105655670166,-0.02553183026611805,0.5716747641563416,0.4634127616882324,-0.029004396870732307,0.6307650208473206,0.5985310077667236,0.04515528306365013,0.6590309739112854,0.5081785321235657,0.023596135899424553,0.6656429767608643,0.46306613087654114,-0.004446567501872778,0.6591817736625671,0.43939390778541565,-0.022896071895956993,0.6833359599113464,0.6159120798110962,0.03627985715866089,0.7205001711845398,0.49760812520980835,0.0068840342573821545,0.7094332575798035,0.4553506076335907,-0.02784130908548832,0.6719877123832703,0.45948025584220886,-0.046093594282865524,0.7267003655433655,0.6490327715873718,0.019579807296395302,0.7784677147865295,0.5286310911178589,-0.00784276332706213,0.763225257396698,0.47672924399375916,-0.03081372193992138,0.7214498519897461,0.47433215379714966,-0.03995472937822342,0.7618656754493713,0.696003794670105,0.00020073466293979436,0.7833801507949829,0.5863645672798157,-0.02146364003419876,0.7771933078765869,0.512147843837738,-0.036217376589775085,0.7551051378250122,0.47027623653411865,-0.042598992586135864
