Timestamp,Index,Frame ID,w,x,y,z,ax,ay,az,x_0,y_0,z_0,x_1,y_1,z_1,x_2,y_2,z_2,x_3,y_3,z_3,x_4,y_4,z_4,x_5,y_5,z_5,x_6,y_6,z_6,x_7,y_7,z_7,x_8,y_8,z_8,x_9,y_9,z_9,x_10,y_10,z_10,x_11,y_11,z_11,x_12,y_12,z_12,x_13,y_13,z_13,x_14,y_14,z_14,x_15,y_15,z_15,x_16,y_16,z_16,x_17,y_17,z_17,x_18,y_18,z_18,x_19,y_19,z_19,x_20,y_20,z_20
2023-08-01 16:27:59.279956,0,267,0.9992398619651794,0.0068590580485761,0.0375445336103439,-0.0079445606097579,-0.30908203125,0.9248046875,0.25732421875,0.7467971444129944,0.853611946105957,-7.724931947450386e-07,0.6767263412475586,0.7495201826095581,0.0329258143901824,0.6542149782180786,0.6442610025405884,0.0418529994785785,0.6271460056304932,0.5750390887260437,0.0354695618152618,0.596336305141449,0.5219630002975464,0.0279707256704568,0.759097158908844,0.5681138038635254,0.0697448253631591,0.6974193453788757,0.4945562779903412,0.0529745109379291,0.6413147449493408,0.4830920100212097,0.0286328978836536,0.5954858660697937,0.4893428683280945,0.0135846426710486,0.7766771912574768,0.5706508755683899,0.0369629822671413,0.6967918872833252,0.4809387326240539,0.0222464613616466,0.6314629316329956,0.4809876680374145,-0.0025030018296092,0.5848244428634644,0.4990742206573486,-0.0184248778969049,0.7816921472549438,0.5851265788078308,0.0009665780817158,0.7064775228500366,0.4927470982074737,-0.0135059095919132,0.6390942931175232,0.4915558397769928,-0.0262438878417015,0.5921257138252258,0.5066422820091248,-0.0328261740505695,0.7699097394943237,0.60820072889328,-0.033838365226984,0.702240526676178,0.5379555225372314,-0.0426202751696109,0.6525733470916748,0.5204262137413025,-0.0454314090311527,0.6147506237030029,0.516755223274231,-0.0460504442453384
2023-08-01 16:27:59.335519,1,268,0.9988750219345092,0.0044007836841046,0.0458768382668495,-0.0111626414582133,-0.2568359375,0.9365234375,0.06494140625,0.7449297904968262,0.8535314202308655,-7.72766668433178e-07,0.6777927279472351,0.7465256452560425,0.0253317486494779,0.6556601524353027,0.6421360373497009,0.0306503996253013,0.6287016868591309,0.5725937485694885,0.022287955507636,0.6004738211631775,0.5184614658355713,0.0136897349730134,0.7617438435554504,0.5687899589538574,0.0605063997209072,0.7014414072036743,0.4939269423484802,0.0391684137284755,0.6441016793251038,0.4827155768871307,0.0120500614866614,0.5966342687606812,0.4902848601341247,-0.0041058473289012,0.7783104181289673,0.5719121098518372,0.0318923480808734,0.6992308497428894,0.4810806512832641,0.0126881292089819,0.6339809894561768,0.4828804135322571,-0.0143092535436153,0.5870161056518555,0.5020633935928345,-0.0307717025279998,0.7837204933166504,0.5859177708625793,-0.000161190968356,0.7084338068962097,0.4920365810394287,-0.0174212697893381,0.6404951810836792,0.4923060238361358,-0.0309782475233078,0.5929157733917236,0.5098632574081421,-0.0368887223303318,0.772391676902771,0.6093534231185913,-0.0315775796771049,0.7063869833946228,0.5388914942741394,-0.0413996316492557,0.6569551229476929,0.5203160643577576,-0.0444579310715198,0.619013249874115,0.5167522430419922,-0.0444391667842865
2023-08-01 16:27:59.394880,2,269,0.9988558888435364,-0.0011823332170024,0.0464214868843555,-0.0114256292581558,-0.3701171875,0.92431640625,0.29443359375,0.745355486869812,0.8483067750930786,-7.873975391703425e-07,0.6761689782142639,0.7382757067680359,0.0335478335618972,0.6544139981269836,0.6362549662590027,0.042502511292696,0.6271612644195557,0.5680742859840393,0.0354118011891841,0.6001171469688416,0.5122116208076477,0.0272164680063724,0.7581113576889038,0.5649611949920654,0.0731022879481315,0.6999585628509521,0.4904457926750183,0.0552924573421478,0.6445474624633789,0.4786632359027862,0.0298119094222784,0.5984002351760864,0.4853360056877136,0.0141538381576538,0.7761257886886597,0.5678507089614868,0.0397031344473362,0.7003694176673889,0.47647625207901,0.0228232163935899,0.6357435584068298,0.4764274656772613,-0.0044697644189,0.5879068970680237,0.4945484399795532,-0.0214418694376945,0.7828149795532227,0.581096351146698,0.0029793523717671,0.7096124291419983,0.4861727058887481,-0.0131931323558092,0.641837477684021,0.4851375818252563,-0.0275683496147394,0.5933524370193481,0.5005571246147156,-0.0344266481697559,0.7722746729850769,0.6032240390777588,-0.0324716307222843,0.7033442258834839,0.5308348536491394,-0.0418848916888237,0.6528359651565552,0.5126214623451233,-0.0450882166624069,0.613698422908783,0.508632242679596,-0.0455821566283702
2023-08-01 16:27:59.459921,3,270,0.9986239671707152,-0.0069442689418792,0.049102883785963,-0.0170538835227489,-0.03515625,0.90478515625,0.30322265625,0.7413264513015747,0.8375512361526489,-7.776841925988265e-07,0.6755590438842773,0.735072135925293,0.0307409930974245,0.6522008180618286,0.6282752156257629,0.0394085422158241,0.6248660683631897,0.5590423941612244,0.0331804119050502,0.5956289768218994,0.5061150789260864,0.0257772970944643,0.7532737255096436,0.5487855672836304,0.0673398226499557,0.6920680403709412,0.4808769226074219,0.049645721912384,0.6369668245315552,0.4699196219444275,0.0247381962835788,0.5921136140823364,0.4753140807151794,0.0090079819783568,0.7718849778175354,0.5507299304008484,0.0353758297860622,0.6948137283325195,0.4665243923664093,0.0192767027765512,0.6304867267608643,0.4658192992210388,-0.0057425326667726,0.5828129053115845,0.4817639887332916,-0.0216663535684347,0.7794381380081177,0.5656460523605347,-1.9723438526852988e-05,0.7045040726661682,0.4778819680213928,-0.0162873733788728,0.636483907699585,0.4772413372993469,-0.029439628124237,0.5878446102142334,0.4906128048896789,-0.0360418036580085,0.7697053551673889,0.5903240442276001,-0.0344126112759113,0.6980122923851013,0.5242101550102234,-0.0450450219213962,0.6477013826370239,0.5097588896751404,-0.0486138463020324,0.6092450618743896,0.5073567032814026,-0.0495588108897209
2023-08-01 16:27:59.517345,4,271,0.998251497745514,-0.0085623199120163,0.0531839840114116,-0.0243332553654909,-0.41943359375,0.97314453125,0.185546875,0.7388748526573181,0.8368257880210876,-8.242362810051418e-07,0.6711206436157227,0.7293921709060669,0.0423474572598934,0.6497197151184082,0.6234086751937866,0.0547793693840503,0.6227165460586548,0.5552621483802795,0.0492103137075901,0.5939202308654785,0.499296098947525,0.0416598245501518,0.7530849575996399,0.5462988615036011,0.0803153216838836,0.6932674050331116,0.4766995310783386,0.065563291311264,0.6379616260528564,0.4642660021781921,0.0418048799037933,0.592513918876648,0.4683542847633362,0.0262846834957599,0.7717506289482117,0.5485816597938538,0.0414426587522029,0.6947977542877197,0.4635229706764221,0.0281916335225105,0.6310005187988281,0.4613573551177978,0.0032897288911044,0.5827977061271667,0.4768417179584503,-0.0131522165611386,0.7782123684883118,0.5627479553222656,-0.0002950811758637,0.7028905153274536,0.4750054478645324,-0.0135710202157497,0.6354384422302246,0.4744212031364441,-0.025455854833126,0.586622953414917,0.4869213998317718,-0.0321336574852466,0.7683631777763367,0.586394727230072,-0.0404018126428127,0.6979032158851624,0.5183380246162415,-0.0489622801542282,0.6463461518287659,0.5026417970657349,-0.0512629710137844,0.6058240532875061,0.4983392655849457,-0.0518509969115257
2023-08-01 16:27:59.588200,5,272,0.9977967739105223,-0.0103073511272668,0.0568271502852439,-0.0326496213674545,-0.39013671875,0.90966796875,0.2412109375,0.7362332344055176,0.8364139795303345,-8.456463547190651e-07,0.6687297224998474,0.7222273945808411,0.046246375888586,0.6480026841163635,0.6191075444221497,0.0592974200844764,0.62111496925354,0.5515507459640503,0.0530122406780719,0.5944361090660095,0.4926598966121673,0.0443679392337799,0.7497235536575317,0.5424120426177979,0.0853521898388862,0.6877391934394836,0.4738699793815613,0.0701000094413757,0.6324707865715027,0.4634533524513244,0.0458550713956356,0.5886436700820923,0.4688997864723205,0.0300615057349205,0.7689908742904663,0.5457784533500671,0.0435774251818656,0.6904541850090027,0.4622077941894531,0.0283842198550701,0.6262139081954956,0.4647018909454345,0.0021989955566823,0.5799329280853271,0.4847244620323181,-0.0143207916989922,0.7759851217269897,0.5609299540519714,-0.0009229538845829,0.6987874507904053,0.4756628274917602,-0.0162927042692899,0.6308125257492065,0.4792693853378296,-0.0287745893001556,0.5839785933494568,0.4947847425937652,-0.0349265187978744,0.7674509286880493,0.5860596895217896,-0.0434463508427143,0.6962063312530518,0.5192996859550476,-0.053842220455408,0.643954336643219,0.5053565502166748,-0.0565133765339851,0.6040822267532349,0.5025339126586914,-0.0566387213766574
2023-08-01 16:27:59.654955,6,273,0.9973829388618468,-0.0108585320413112,0.0576840601861476,-0.0422122217714786,-0.06201171875,0.89501953125,0.263671875,0.7392498850822449,0.8364079594612122,-8.526122314833628e-07,0.6683789491653442,0.7147936224937439,0.0651035457849502,0.648797869682312,0.6178600788116455,0.0838051885366439,0.622977614402771,0.5515377521514893,0.0780739113688469,0.5987993478775024,0.4866393506526947,0.068819411098957,0.751505970954895,0.5460969805717468,0.110599361360073,0.6920714974403381,0.4729170203208923,0.1005860865116119,0.6360691785812378,0.4610481262207031,0.0777855440974235,0.5915296673774719,0.4659251570701599,0.0619027093052864,0.7709294557571411,0.548915445804596,0.0577149726450443,0.6956548690795898,0.4592933654785156,0.0479094870388507,0.630480945110321,0.4590859711170196,0.0209414400160312,0.5836272239685059,0.4790839552879333,0.0020134963560849,0.7774248123168945,0.560666024684906,0.0026082114782184,0.7018650770187378,0.4716913104057312,-0.0083641810342669,0.6339828372001648,0.4774444103240967,-0.0214335620403289,0.5878498554229736,0.4964472353458404,-0.0302003566175699,0.7698804140090942,0.5801916122436523,-0.0492677316069603,0.6961612105369568,0.5144695043563843,-0.0562845095992088,0.6423817276954651,0.5076643228530884,-0.0580549277365207,0.6027012467384338,0.511381983757019,-0.0593658536672592
2023-08-01 16:27:59.729437,7,274,0.99677312374115,-0.011630019173026,0.0614399835467338,-0.0503308810293674,-0.4833984375,0.912109375,0.26171875,0.7283280491828918,0.8318531513214111,-8.142138767652796e-07,0.6686389446258545,0.6993201971054077,0.0510788708925247,0.6501194834709167,0.5979381203651428,0.0626109391450882,0.6227350831031799,0.5317041277885437,0.0526536293327808,0.6017932891845703,0.4661201238632202,0.0403018221259117,0.7683854103088379,0.5308520197868347,0.0901674404740333,0.706108033657074,0.4577220678329468,0.0707887038588523,0.6499301791191101,0.4443060457706451,0.0432544685900211,0.6039578318595886,0.4477460086345672,0.0248073320835828,0.7887850403785706,0.5403194427490234,0.0423931367695331,0.7129845023155212,0.4492435455322265,0.0223954636603593,0.6464952826499939,0.4462987780570984,-0.0081128478050231,0.5974031686782837,0.4640424847602844,-0.0284223277121782,0.7954698204994202,0.5575718283653259,-0.0085444524884223,0.7163891196250916,0.4721075892448425,-0.03028498403728,0.6484354138374329,0.4796891808509826,-0.047262854874134,0.601665735244751,0.5007437467575073,-0.0564537793397903,0.7861673831939697,0.582827091217041,-0.0570173151791095,0.7119496464729309,0.5196970701217651,-0.0743749290704727,0.6595160961151123,0.5175199508666992,-0.0815677642822265,0.620415210723877,0.5264179706573486,-0.0848670154809951
2023-08-01 16:27:59.783236,8,275,0.9961325526237488,-0.0127419475466012,0.0656806901097297,-0.0569525696337223,-0.33203125,0.84375,0.21875,0.7240185737609863,0.8318650722503662,-8.493198606629448e-07,0.6698147058486938,0.691429853439331,0.0399346873164176,0.650018036365509,0.5930296182632446,0.0444755889475345,0.6221469044685364,0.5240951776504517,0.0301174391061067,0.6051499843597412,0.4552605748176574,0.0139141706749796,0.7747872471809387,0.5314680933952332,0.0722355395555496,0.7164647579193115,0.4505516290664673,0.046867411583662,0.6630474925041199,0.4332951009273529,0.0163256730884313,0.6188620924949646,0.4344195127487182,-0.0030787629075348,0.7949809432029724,0.5460872650146484,0.0303411930799484,0.7199973464012146,0.4520702362060547,0.0034229920711368,0.6546658873558044,0.4527382254600525,-0.0286773275583982,0.6078294515609741,0.4742612242698669,-0.0484447181224823,0.8017333745956421,0.5670110583305359,-0.0148489335551857,0.7231025099754333,0.4804288148880005,-0.0406146310269832,0.6544253826141357,0.488088309764862,-0.0579521842300891,0.6087436676025391,0.5111644268035889,-0.0657958909869194,0.7911030054092407,0.5941147804260254,-0.0581834279000759,0.7170164585113525,0.5268678665161133,-0.0771120563149452,0.6638535261154175,0.5228395462036133,-0.0841100811958313,0.6248470544815063,0.5333601832389832,-0.0859985277056694
2023-08-01 16:27:59.849423,9,276,0.995186686515808,-0.0141254356130957,0.0729979127645492,-0.0638371482491493,-0.2880859375,0.8779296875,0.30615234375,0.7200340032577515,0.8317039012908936,-8.370777209165681e-07,0.6717552542686462,0.6924582719802856,0.0278219319880008,0.6551231741905212,0.5914172530174255,0.0260471422225236,0.6286765933036804,0.5220741033554077,0.0093457121402025,0.6157876253128052,0.4552382230758667,-0.0080373436212539,0.7905601859092712,0.5344465374946594,0.0498090088367462,0.7297276854515076,0.4540979862213135,0.0219731088727712,0.6727026700973511,0.4366024732589721,-0.0078382510691881,0.6261481642723083,0.4355692267417907,-0.0267136190086603,0.8121482133865356,0.5523518919944763,0.0144156962633132,0.735869288444519,0.4527101218700409,-0.0125845372676849,0.6688116788864136,0.4460695385932922,-0.040607962757349,0.6224570870399475,0.4581713676452636,-0.0586055964231491,0.8184120655059814,0.5779402256011963,-0.0240941550582647,0.7375085353851318,0.4909749031066894,-0.0512288399040699,0.6665483713150024,0.5008876919746399,-0.0638714283704757,0.6217330694198608,0.5237051248550415,-0.0689739808440208,0.8040924072265625,0.6083259582519531,-0.0614983811974525,0.7283061146736145,0.5385141372680664,-0.0829154923558235,0.6728230714797974,0.5356444716453552,-0.088333211839199,0.634986162185669,0.545051097869873,-0.0888316482305526
2023-08-01 16:27:59.912190,10,277,0.9936974048614502,-0.0128734754398465,0.085929624736309,-0.0708224475383758,-0.4150390625,0.890625,0.24853515625,0.7158729434013367,0.8324177861213684,-9.014393640427444e-07,0.6718447208404541,0.6917105317115784,0.0294784102588892,0.6538270711898804,0.5891672968864441,0.0257494710385799,0.6284066438674927,0.5170376896858215,0.0062245745211839,0.6150163412094116,0.4467056691646576,-0.015030575916171,0.7978560328483582,0.5375621914863586,0.0498253181576728,0.7357122302055359,0.4583745002746582,0.0188667625188827,0.6807484030723572,0.4357826709747314,-0.012397133745253,0.6332288980484009,0.4328117370605469,-0.0312772616744041,0.8180492520332336,0.559576153755188,0.0123675828799605,0.7369934320449829,0.4627787470817566,-0.0191658101975917,0.6683459281921387,0.4625339210033417,-0.0483687408268451,0.6211875081062317,0.4801238477230072,-0.0651643797755241,0.8233189582824707,0.586785078048706,-0.0282538421452045,0.7393836975097656,0.500572919845581,-0.0594234578311443,0.6664497256278992,0.5075243711471558,-0.073602020740509,0.6193251609802246,0.5282801985740662,-0.0780765265226364,0.8101475834846497,0.6168845891952515,-0.0674342960119247,0.7326889038085938,0.5468745231628418,-0.0916078463196754,0.6772999167442322,0.5451211333274841,-0.0978602841496467,0.6389416456222534,0.5574668645858765,-0.0975807681679725
2023-08-01 16:27:59.975429,11,278,0.9926919937133788,-0.0122427241876721,0.0912801772356033,-0.0779784619808197,-0.4267578125,0.9033203125,0.23583984375,0.7145370841026306,0.8350805640220642,-8.481012514494068e-07,0.6714669466018677,0.7009651064872742,0.0135083589702844,0.6559969186782837,0.5975673198699951,0.0039886985905468,0.6312300562858582,0.5253317952156067,-0.0166178531944751,0.6170673370361328,0.4614984393119812,-0.0382877625524997,0.800557017326355,0.5410352349281311,0.0256781466305255,0.7321133613586426,0.4633244276046753,-0.0101512763649225,0.6759033203125,0.4392202198505401,-0.0431730262935161,0.6258254051208496,0.4327167272567749,-0.0624879822134971,0.822638988494873,0.5647405982017517,-0.0033604898490011,0.744763195514679,0.4615219831466675,-0.0381635352969169,0.6735450029373169,0.4505468606948852,-0.0673126205801963,0.6212072372436523,0.4619477987289428,-0.0838975682854652,0.8273572325706482,0.5954201221466064,-0.0358582846820354,0.7463725209236145,0.5053638219833374,-0.0711162835359573,0.670563280582428,0.5072324275970459,-0.0874997824430465,0.6208558082580566,0.5262441039085388,-0.0925912410020828,0.8117958307266235,0.6294741034507751,-0.067751407623291,0.7399497628211975,0.5575546026229858,-0.0953856259584426,0.6834098100662231,0.5527163147926331,-0.1037313565611839,0.6431369781494141,0.5633549094200134,-0.1045111864805221
2023-08-01 16:28:00.045983,12,279,0.991545021533966,-0.01221814006567,0.0975438803434372,-0.0847011059522628,-0.3681640625,0.89111328125,0.18212890625,0.7136815786361694,0.8363551497459412,-8.775834317020781e-07,0.6707202196121216,0.7005779147148132,0.0125744305551052,0.6567497253417969,0.5970404744148254,0.0006392896175384,0.6338704824447632,0.5266574025154114,-0.0224546231329441,0.623146653175354,0.4666648209095001,-0.0469244159758091,0.8060527443885803,0.5423089265823364,0.0186527334153652,0.7354666590690613,0.4588358104228973,-0.0231322832405567,0.6757177710533142,0.4345284402370453,-0.0585768893361091,0.6241876482963562,0.4302799105644226,-0.0780276209115982,0.8271479606628418,0.5692018866539001,-0.0112939961254596,0.7493221759796143,0.4604078531265259,-0.0519520975649356,0.6738172769546509,0.4525869488716125,-0.0805721580982208,0.620821475982666,0.4692592620849609,-0.0947255566716194,0.830467164516449,0.6019112467765808,-0.0448204390704631,0.747605562210083,0.5103507041931152,-0.0847524255514144,0.669089674949646,0.5147470235824585,-0.0993950068950653,0.6203649640083313,0.5362975597381592,-0.101417064666748,0.814210832118988,0.6370151042938232,-0.0777100846171379,0.7414206862449646,0.5640308260917664,-0.1074173599481582,0.6837671995162964,0.5596039295196533,-0.1144478917121887,0.6446589827537537,0.5710140466690063,-0.1131085380911827
2023-08-01 16:28:00.110506,13,280,0.99108624458313,-0.011769687756896,0.0995355695486068,-0.0877620130777359,-0.427734375,0.8720703125,0.25244140625,0.714897096157074,0.8449268937110901,-8.645286584396672e-07,0.6821542978286743,0.7144472599029541,-0.0042886273004114,0.6699885129928589,0.6074719429016113,-0.0226377267390489,0.6462829113006592,0.5348984003067017,-0.0466236695647239,0.6351119875907898,0.4796045422554016,-0.0707426369190216,0.8302847146987915,0.5607403516769409,-0.0083893584087491,0.7570810914039612,0.4741398394107818,-0.0499675832688808,0.6957289576530457,0.4503499269485473,-0.0847748219966888,0.6459826231002808,0.4418203234672546,-0.1049414128065109,0.8522872924804688,0.5953590273857117,-0.0267606396228075,0.7683401703834534,0.4925828874111175,-0.0680455267429351,0.6940043568611145,0.4794834852218628,-0.0977927446365356,0.641213595867157,0.4836536049842834,-0.1149325966835022,0.853594958782196,0.6354176998138428,-0.0477142184972763,0.7652764916419983,0.5473096370697021,-0.0878346040844917,0.6888965964317322,0.5443767309188843,-0.1024426519870758,0.6378965973854065,0.556515097618103,-0.1059822365641594,0.8332055807113647,0.6749544739723206,-0.0688190907239914,0.7571089863777161,0.6030352115631104,-0.0993212163448333,0.7015137672424316,0.5911206603050232,-0.1068661957979202,0.6633139252662659,0.5915979146957397,-0.1064657419919967
2023-08-01 16:28:00.172805,14,281,0.9907346367836,-0.0105292741209268,0.1009017080068588,-0.0902943611145019,-0.44873046875,0.8525390625,0.2265625,0.7110005617141724,0.8387289643287659,-8.811343832348939e-07,0.6761809587478638,0.7158637642860413,-0.008671379648149,0.667413055896759,0.6105858683586121,-0.025630360469222,0.6460527777671814,0.5351546406745911,-0.0472556687891483,0.636450469493866,0.4727311134338379,-0.0690707042813301,0.8241301774978638,0.5529852509498596,-0.0054103429429233,0.7547118663787842,0.4715788066387176,-0.0496231354773044,0.69362872838974,0.448538988828659,-0.0849348679184913,0.641573429107666,0.4417877197265625,-0.1032639592885971,0.8492158651351929,0.5898467898368835,-0.020863801240921,0.768256425857544,0.4895875453948974,-0.0630701631307601,0.6906344294548035,0.480068027973175,-0.0892755761742591,0.6370500326156616,0.4870997965335846,-0.1007448360323906,0.8526666164398193,0.6324381232261658,-0.0405963771045208,0.7652801871299744,0.5443156957626343,-0.0862286984920501,0.6852730512619019,0.5405043363571167,-0.1013933643698692,0.6325854063034058,0.550716757774353,-0.1013229042291641,0.8332314491271973,0.6729952096939087,-0.0604118779301643,0.7590692043304443,0.5990537405014038,-0.0953762978315353,0.7004498243331909,0.5895796418190002,-0.1032388508319854,0.6575813889503479,0.5925747752189636,-0.1002463772892952
2023-08-01 16:28:00.236502,15,282,0.9906051158905028,-0.0107128862291574,0.1010378450155258,-0.0915315002202987,-0.42822265625,0.8662109375,0.173828125,0.7150722742080688,0.8390904664993286,-9.095869586417392e-07,0.6780440211296082,0.711383044719696,-0.0050091603770852,0.6700044870376587,0.6072501540184021,-0.0226117074489593,0.6512134075164795,0.5315994024276733,-0.0459321551024913,0.6415354609489441,0.4648770689964294,-0.069991797208786,0.8267114758491516,0.5548929572105408,-0.006418015807867,0.7585365772247314,0.4699172377586365,-0.0529554300010204,0.6975510716438293,0.4483132362365722,-0.0894723460078239,0.6453795433044434,0.445074200630188,-0.1085195690393447,0.8512958884239197,0.5935841202735901,-0.025053909048438,0.7693913578987122,0.495035320520401,-0.0713747516274452,0.6916356086730957,0.4891881644725799,-0.0988755375146865,0.6374294757843018,0.4994660019874573,-0.1107604727149009,0.8542125225067139,0.63727867603302,-0.0477576963603496,0.7679478526115417,0.5490925908088684,-0.0954122245311737,0.6886755228042603,0.5440458655357361,-0.1102099642157554,0.6359742283821106,0.5533542633056641,-0.1101027727127075,0.8354728817939758,0.678333044052124,-0.0702480599284172,0.7618560194969177,0.6044288277626038,-0.1068915724754333,0.7025876045227051,0.5933421850204468,-0.1152070686221122,0.6599867343902588,0.5942128896713257,-0.1126765385270118
2023-08-01 16:28:00.298567,16,283,0.9905622005462646,-0.0110534317791461,0.1010234877467155,-0.0919715240597724,-0.38134765625,0.86376953125,0.22265625,0.7190744876861572,0.8450343012809753,-9.174314641313686e-07,0.6847702860832214,0.7184737920761108,-0.0098063824698328,0.6769881844520569,0.611046552658081,-0.0293011385947465,0.6566228866577148,0.5322897434234619,-0.053427405655384,0.6435918211936951,0.4673461318016052,-0.0770827978849411,0.8366209864616394,0.5599963665008545,-0.0114048523828387,0.7700044512748718,0.4742953181266784,-0.0589317120611667,0.7061391472816467,0.4602760672569275,-0.0946192741394043,0.6550604104995728,0.4649105668067932,-0.113396942615509,0.8605775833129883,0.6013663411140442,-0.0279392469674348,0.7806600332260132,0.5039342641830444,-0.0763024538755416,0.7018042206764221,0.5003188848495483,-0.1033762097358703,0.6486051082611084,0.5117266178131104,-0.1146561205387115,0.8634885549545288,0.6482172608375549,-0.0488052703440189,0.7777220010757446,0.5631027817726135,-0.0973745360970497,0.6976335048675537,0.5578784942626953,-0.1105389520525932,0.6460659503936768,0.5662768483161926,-0.1092413663864135,0.8450196981430054,0.6928997039794922,-0.0699837878346443,0.7688257098197937,0.622679591178894,-0.1074323952198028,0.7083825469017029,0.6093741655349731,-0.1157851964235305,0.6671900749206543,0.6075176000595093,-0.1130129173398017
2023-08-01 16:28:00.363579,17,284,0.9906308054924012,-0.0105951437726616,0.1007676720619201,-0.0915649980306625,-0.41845703125,0.8740234375,0.23095703125,0.7179823517799377,0.8455049991607666,-9.191020922116876e-07,0.6842950582504272,0.7195348143577576,-0.0148496823385357,0.6770876049995422,0.608786940574646,-0.0341998599469661,0.6582589745521545,0.5275990962982178,-0.056299939751625,0.6423214673995972,0.4673365652561188,-0.0776962861418724,0.837151825428009,0.5538642406463623,-0.0156395696103572,0.7715088129043579,0.4731141328811645,-0.0601701103150844,0.7082102298736572,0.4600296318531036,-0.0931067690253257,0.6578282117843628,0.4640327990055084,-0.1103289797902107,0.8627908229827881,0.5968315005302429,-0.0281764157116413,0.7791065573692322,0.5056138634681702,-0.0717818811535835,0.7005636096000671,0.5010356903076172,-0.096028134226799,0.6484004855155945,0.5097176432609558,-0.1066416427493095,0.8651635050773621,0.645927369594574,-0.0452864207327365,0.7765420079231262,0.5645873546600342,-0.0909049212932586,0.6974579095840454,0.5571458339691162,-0.1043361648917198,0.6456061601638794,0.5627491474151611,-0.1044202446937561,0.8452922105789185,0.6929707527160645,-0.0631116926670074,0.7681020498275757,0.625671923160553,-0.099273182451725,0.7077731490135193,0.6129629611968994,-0.1083794608712196,0.6647972464561462,0.6090754270553589,-0.1068998053669929
2023-08-01 16:28:00.422158,18,285,0.9905977845191956,-0.0106411343440413,0.1011579185724258,-0.0914869979023933,-0.40966796875,0.88134765625,0.20263671875,0.7183100581169128,0.8482601642608643,-9.061359378392808e-07,0.6839005947113037,0.7210713624954224,-0.0154659291729331,0.6757611036300659,0.6133301258087158,-0.0358651466667652,0.6567005515098572,0.5348910093307495,-0.0590007305145263,0.6403211355209351,0.4744908511638641,-0.0816929265856742,0.8372025489807129,0.5537326335906982,-0.0174558125436306,0.7699341773986816,0.4742937684059143,-0.0630232766270637,0.7071841955184937,0.4594436883926391,-0.0971912443637847,0.6565651297569275,0.4602667689323425,-0.1153755858540535,0.8632370829582214,0.5967723727226257,-0.0301120374351739,0.7787950038909912,0.5062529444694519,-0.0738764852285385,0.7002987861633301,0.4981104731559753,-0.099099725484848,0.6472761631011963,0.5015295147895813,-0.1110614761710167,0.8654562830924988,0.6457885503768921,-0.0472981370985507,0.7756741642951965,0.5651319622993469,-0.093272753059864,0.6966184973716736,0.5584673881530762,-0.1071186289191246,0.6448221206665039,0.5632940530776978,-0.1079083979129791,0.8449530005455017,0.6928277015686035,-0.0652832612395286,0.7671751976013184,0.6261398792266846,-0.1019712910056114,0.7070355415344238,0.6141801476478577,-0.1111697405576706,0.6642813086509705,0.6104026436805725,-0.1099310293793678
2023-08-01 16:28:00.481440,19,286,0.9906512498855592,-0.0114134643226861,0.1008500903844833,-0.0911547839641571,-0.3984375,0.86572265625,0.21826171875,0.7180279493331909,0.8453835844993591,-9.099278486246476e-07,0.6838601231575012,0.7162179350852966,-0.0142070585861802,0.6766209602355957,0.6057009100914001,-0.0348585732281208,0.6591366529464722,0.5256414413452148,-0.058878693729639,0.6418842673301697,0.4668012261390686,-0.0823801532387733,0.8375186324119568,0.5540525913238525,-0.0174496490508317,0.7732715010643005,0.4714252948760986,-0.0646008104085922,0.7096073627471924,0.4590824842453003,-0.0985814034938812,0.6582489609718323,0.4646656513214111,-0.1161438375711441,0.8626331090927124,0.5986326932907104,-0.0315393880009651,0.7805178761482239,0.5060223937034607,-0.078911505639553,0.70111083984375,0.5019996762275696,-0.1042443364858627,0.6484214067459106,0.5120635032653809,-0.1149985119700431,0.8650040030479431,0.6482782959938049,-0.0503200255334377,0.776716947555542,0.5664112567901611,-0.098894789814949,0.6967822313308716,0.5599335432052612,-0.1128042042255401,0.6449902653694153,0.5675591826438904,-0.1127242818474769,0.8460110425949097,0.6956295371055603,-0.069765105843544,0.769024133682251,0.6275995373725891,-0.1080349907279014,0.7077934741973877,0.6152186393737793,-0.1179994270205497,0.66510009765625,0.6123430728912354,-0.1169827207922935
2023-08-01 16:28:00.549541,20,287,0.9906510710716248,-0.0122773703187704,0.1014820709824562,-0.0903393030166626,-0.42919921875,0.869140625,0.23779296875,0.7187148332595825,0.8485276699066162,-8.976984418040956e-07,0.6832019686698914,0.7183398604393005,-0.0166689921170473,0.6760752201080322,0.609641432762146,-0.0387810580432415,0.6587875485420227,0.5294020771980286,-0.0636951252818107,0.6410066485404968,0.4683655202388763,-0.0881270393729209,0.838928759098053,0.5557892322540283,-0.0210271142423152,0.7742301225662231,0.474364161491394,-0.0686541870236396,0.7115592360496521,0.4605037569999695,-0.1030826121568679,0.6597234606742859,0.4640445411205292,-0.1210849955677986,0.8637478351593018,0.5993094444274902,-0.0341366678476333,0.7809941172599792,0.5071790218353271,-0.0808891430497169,0.7012780904769897,0.4999888837337494,-0.1063811630010604,0.6485821604728699,0.5058561563491821,-0.1179816871881485,0.8651365637779236,0.6488457322120667,-0.0519448369741439,0.7764482498168945,0.5663848519325256,-0.1006383597850799,0.6959121227264404,0.5585071444511414,-0.1147569864988327,0.6440557241439819,0.5645780563354492,-0.1152329370379448,0.8442460894584656,0.6961545348167419,-0.0705823749303817,0.7688734531402588,0.6282031536102295,-0.1093105897307396,0.7086180448532104,0.6156342029571533,-0.1191703006625175,0.6663448214530945,0.6127229332923889,-0.118192970752716
2023-08-01 16:28:00.606998,21,288,0.990748405456543,-0.0125614693388342,0.1020108163356781,-0.0886204466223716,-0.4501953125,0.8681640625,0.19140625,0.717962384223938,0.8461170792579651,-8.933552635426167e-07,0.6829866766929626,0.7161723375320435,-0.0167903769761323,0.6744592785835266,0.6075167059898376,-0.0386884659528732,0.6554080247879028,0.5281123518943787,-0.0632000192999839,0.6406431198120117,0.472038209438324,-0.0869179666042327,0.8384547233581543,0.5532397627830505,-0.0202871318906545,0.7730199098587036,0.4715208411216736,-0.0655588656663894,0.7096560597419739,0.4602451026439667,-0.0979327335953712,0.6596513986587524,0.4666842818260193,-0.1149172335863113,0.8637056946754456,0.5980716943740845,-0.0327290408313274,0.7806697487831116,0.5056993365287781,-0.0776910856366157,0.7014830112457275,0.5015605092048645,-0.1018710657954216,0.6498367190361023,0.5109087228775024,-0.1125882789492607,0.8651986718177795,0.6481595635414124,-0.0497385151684284,0.7762917876243591,0.5660725831985474,-0.0965674519538879,0.696986198425293,0.5599433779716492,-0.1099595502018928,0.6457346677780151,0.5681964755058289,-0.1101249903440475,0.8445484638214111,0.6956155300140381,-0.0676319822669029,0.7684013843536377,0.6281129121780396,-0.1048892140388488,0.708246111869812,0.6149694323539734,-0.1145047694444656,0.6653702259063721,0.6116749048233032,-0.113503523170948
2023-08-01 16:28:00.665907,22,289,0.9910855293273926,-0.0128010250627994,0.1009366661310195,-0.0860085859894752,-0.439453125,0.8837890625,0.19091796875,0.7169712781906128,0.8436513543128967,-8.970082490122877e-07,0.6821706891059875,0.7137869000434875,-0.0159784499555826,0.6745114922523499,0.6039664149284363,-0.0365455411374568,0.6554005742073059,0.5230767726898193,-0.0600115582346916,0.6377866864204407,0.4666096568107605,-0.0828608348965644,0.8357326984405518,0.5513936281204224,-0.015817193314433,0.7722943425178528,0.4688708186149597,-0.0607701987028121,0.7090408205986023,0.4574537575244903,-0.09407339990139,0.6584962606430054,0.4645659327507019,-0.1115166023373603,0.8604385852813721,0.5950977802276611,-0.0281359422951936,0.7787666916847229,0.5029473900794983,-0.0723465010523796,0.6990846395492554,0.4982703626155853,-0.0968048870563507,0.6462715268135071,0.5079426765441895,-0.1075731143355369,0.8619976043701172,0.643530547618866,-0.0452790446579456,0.7730845212936401,0.5626064538955688,-0.0914874970912933,0.6935412287712097,0.556908369064331,-0.1054573506116867,0.6421826481819153,0.5649613738059998,-0.1059227138757705,0.84181809425354,0.6892958283424377,-0.0632717311382293,0.7643513083457947,0.6230738162994385,-0.09921795129776,0.703498125076294,0.6120900511741638,-0.1083138361573219,0.6601870059967041,0.6100179553031921,-0.1071321666240692
2023-08-01 16:28:00.730579,23,290,0.991348147392273,-0.0133017329499125,0.1005559489130973,-0.0833094865083694,-0.38525390625,0.8701171875,0.271484375,0.7167643904685974,0.8468397259712219,-9.124495363721508e-07,0.6810548305511475,0.7159146070480347,-0.0113146370276808,0.6729533076286316,0.6081241965293884,-0.0309387110173702,0.6546749472618103,0.5294238328933716,-0.0547872334718704,0.6360690593719482,0.4681406617164612,-0.0784501433372497,0.8349538445472717,0.5544392466545105,-0.0125158037990331,0.771491527557373,0.4697839915752411,-0.0587578378617763,0.7083975672721863,0.4521433711051941,-0.0931032374501228,0.657039225101471,0.4542246460914612,-0.1110141724348068,0.8584222793579102,0.5960711240768433,-0.0280567817389965,0.7796383500099182,0.5004268884658813,-0.0731833800673484,0.699827253818512,0.4959583282470703,-0.0976895540952682,0.6482104659080505,0.5053625106811523,-0.1080922335386276,0.8593311309814453,0.6423134207725525,-0.0482293367385864,0.7724900245666504,0.5590543150901794,-0.0948697254061698,0.6927533149719238,0.5555470585823059,-0.107975460588932,0.6427810192108154,0.5649429559707642,-0.1075879409909248,0.8387944102287292,0.6867485046386719,-0.068985529243946,0.7628449201583862,0.61911940574646,-0.10515096783638,0.7027909159660339,0.6087346076965332,-0.1136601045727729,0.661241352558136,0.6082029342651367,-0.1118340492248535
2023-08-01 16:28:00.798968,24,291,0.9917162656784058,-0.0138156907632946,0.0996327623724937,-0.079883188009262,-0.376953125,0.86279296875,0.27880859375,0.7173327207565308,0.8481570482254028,-9.334485184808728e-07,0.6810919046401978,0.7189738750457764,-0.0094554899260401,0.6706745028495789,0.6126773357391357,-0.0274540018290281,0.6514862179756165,0.5355849266052246,-0.0498019158840179,0.6405948400497437,0.4717425107955932,-0.0719949603080749,0.8329826593399048,0.5526804327964783,-0.008209953084588,0.7661619186401367,0.470515638589859,-0.0525697879493236,0.7019640207290649,0.4505883455276489,-0.0876495242118835,0.649693489074707,0.4484086036682129,-0.106279619038105,0.856606125831604,0.5919686555862427,-0.0238354317843914,0.7775402069091797,0.4968354105949402,-0.0655306056141853,0.6990787386894226,0.4880502223968506,-0.0911862850189209,0.6458335518836975,0.4944782257080078,-0.103408858180046,0.8581766486167908,0.6362199783325195,-0.0437927804887294,0.7716966271400452,0.5557452440261841,-0.0876097008585929,0.6932237148284912,0.5532419085502625,-0.1015651077032089,0.6428876519203186,0.5630803108215332,-0.1024258583784103,0.8382012844085693,0.6795192360877991,-0.0642030909657478,0.7618741393089294,0.6115550994873047,-0.0980272889137268,0.7017980813980103,0.6025296449661255,-0.1056343093514442,0.6593097448348999,0.6029305458068848,-0.103505253791809
2023-08-01 16:28:00.861210,25,292,0.9920952916145324,-0.0136431381106376,0.0983854681253433,-0.0766879990696907,-0.38330078125,0.87548828125,0.17529296875,0.7157952189445496,0.8425922393798828,-9.30966677969991e-07,0.679754376411438,0.71528160572052,-0.0101630939170718,0.6692520380020142,0.6067984700202942,-0.0274775829166173,0.6475648283958435,0.5288844108581543,-0.0490124747157096,0.6354560256004333,0.4667829275131225,-0.070373311638832,0.8303935527801514,0.5502092838287354,-0.0080503746867179,0.7638676762580872,0.4659899473190307,-0.0523728020489215,0.6993535757064819,0.4509292244911194,-0.0869631096720695,0.6486044526100159,0.4527520835399627,-0.1052699908614158,0.8539900183677673,0.5899217128753662,-0.0231002606451511,0.7748363018035889,0.4925968050956726,-0.0668025314807891,0.6957991123199463,0.4880242347717285,-0.0932670161128044,0.6426945328712463,0.498245358467102,-0.1053481623530387,0.8556578755378723,0.6340855360031128,-0.0426230207085609,0.7704558968544006,0.5507742762565613,-0.088701844215393,0.691460132598877,0.5472930073738098,-0.1048279628157615,0.6404252648353577,0.5571349859237671,-0.1064284592866897,0.8361720442771912,0.6764118671417236,-0.0623241551220417,0.7609409093856812,0.6059018969535828,-0.0980188399553299,0.6996822357177734,0.5949032306671143,-0.1076854094862937,0.6558223366737366,0.5941524505615234,-0.1067720353603363
2023-08-01 16:28:00.921065,26,293,0.992578387260437,-0.0148259866982698,0.0958899334073066,-0.0733034461736679,-0.37451171875,0.88037109375,0.21923828125,0.7145447731018066,0.8401105403900146,-9.253691359845106e-07,0.6780657172203064,0.714451789855957,-0.0109434369951486,0.6675302982330322,0.6099687814712524,-0.0285570751875638,0.6459534764289856,0.5345544815063477,-0.0502102226018905,0.636688232421875,0.4703744649887085,-0.0716200619935989,0.8285949230194092,0.5511782765388489,-0.008147451095283,0.7612166404724121,0.4661313593387604,-0.0537511222064495,0.6963145732879639,0.4474494457244873,-0.0896374285221099,0.6442056894302368,0.4457323253154754,-0.1083902418613433,0.8525859117507935,0.5890932083129883,-0.0226321462541818,0.7755687236785889,0.4892373383045196,-0.0673517659306526,0.6972817778587341,0.4817795753479004,-0.095416359603405,0.6427161693572998,0.4903973937034607,-0.1081183850765228,0.8547689914703369,0.6305716037750244,-0.0416409820318222,0.7683572173118591,0.5464178323745728,-0.0882584005594253,0.6895501613616943,0.5429478287696838,-0.105894461274147,0.637926459312439,0.5520626306533813,-0.1080259084701538,0.835542619228363,0.6709102988243103,-0.0608688928186893,0.7578750252723694,0.6008915305137634,-0.0963917151093483,0.6980860829353333,0.5901346206665039,-0.1066688373684883,0.6556628346443176,0.5884171724319458,-0.1059477925300598
2023-08-01 16:28:00.983066,27,294,0.99260413646698,-0.0177766904234886,0.0985760241746902,-0.068584106862545,-0.3837890625,0.87353515625,0.2900390625,0.7095181941986084,0.8335976600646973,-8.347743118974904e-07,0.6756884455680847,0.7083631753921509,-0.0029755705036222,0.6667300462722778,0.6033503413200378,-0.0158920660614967,0.6484836339950562,0.5279033780097961,-0.034857865422964,0.6458241939544678,0.4651864767074585,-0.0533573292195797,0.8240866661071777,0.555939793586731,0.004792112391442,0.7713958024978638,0.4662128686904907,-0.0331534706056118,0.7170020341873169,0.4414394795894623,-0.0638429522514343,0.6695767641067505,0.4370584487915039,-0.0800281912088394,0.8446333408355713,0.5902822017669678,-0.0121957659721374,0.7768198847770691,0.4876998364925384,-0.0506105199456214,0.7051595449447632,0.4714586138725281,-0.0766410082578659,0.6515729427337646,0.4744868874549866,-0.088755190372467,0.8459371328353882,0.628145158290863,-0.0331678502261638,0.7626634836196899,0.5404012203216553,-0.0735714137554168,0.6858922839164734,0.5344688296318054,-0.0891217589378357,0.6331093311309814,0.541561484336853,-0.0909060165286064,0.8259300589561462,0.6648004651069641,-0.0541036203503608,0.7502730488777161,0.5930052995681763,-0.0848268121480941,0.6940786838531494,0.5804706811904907,-0.0935374423861503,0.6526685357093811,0.5767280459403992,-0.0925435349345207
2023-08-01 16:28:01.044060,28,295,0.993264138698578,-0.0207325536757707,0.0950831472873687,-0.0628935173153877,-0.30908203125,0.88134765625,0.24462890625,0.7111191749572754,0.8408411741256714,-8.541040301679459e-07,0.6758294105529785,0.7059327363967896,0.0005899390671402,0.6715700626373291,0.5973811149597168,-0.0088821398094296,0.6593996286392212,0.5205949544906616,-0.0243843160569667,0.656950056552887,0.4612110257148742,-0.0400630347430706,0.8246006965637207,0.555059015750885,0.0071704601868987,0.7667796015739441,0.4689933061599731,-0.0280120018869638,0.7108697891235352,0.4460151791572571,-0.0568639561533927,0.6609069108963013,0.440548300743103,-0.0720360502600669,0.8442917466163635,0.589871346950531,-0.0107138501480221,0.7763972878456116,0.4877780079841614,-0.04587247595191,0.7041707634925842,0.4715479612350464,-0.0706914961338043,0.6487181782722473,0.4738104045391083,-0.0828349739313125,0.843960702419281,0.6273697018623352,-0.0319138206541538,0.758530855178833,0.5380375981330872,-0.0701959803700447,0.6805207133293152,0.5333594679832458,-0.0854114443063736,0.6272101402282715,0.5404466986656189,-0.0880032107234001,0.8217630982398987,0.6629481315612793,-0.0526942200958728,0.7433878779411316,0.5917962789535522,-0.0819624289870262,0.6865087151527405,0.5845285654067993,-0.089415319263935,0.6453354358673096,0.5837343335151672,-0.0882448107004165
2023-08-01 16:28:01.110879,29,296,0.9930537343025208,-0.0226585995405912,0.0995168909430503,-0.0585431791841983,-0.31396484375,0.8896484375,0.2373046875,0.7085942625999451,0.8354135751724243,-7.985311185620958e-07,0.6657455563545227,0.6995880603790283,0.0080036595463752,0.6578543782234192,0.5935025215148926,0.000262361660134,0.6417505741119385,0.5159419178962708,-0.0153114618733525,0.6355321407318115,0.4510242640972137,-0.0318302810192108,0.8106677532196045,0.5516148209571838,0.0129054430872201,0.7517913579940796,0.4661039710044861,-0.0184852313250303,0.6970500349998474,0.439188539981842,-0.0450887493789196,0.6500478982925415,0.4285058379173279,-0.0603198334574699,0.8267999291419983,0.5784076452255249,-0.0092128915712237,0.7599042057991028,0.4719986617565155,-0.0420137457549572,0.6916133761405945,0.4487221837043762,-0.067064344882965,0.6411362290382385,0.4455951452255249,-0.0808093473315239,0.8234207630157471,0.6116251349449158,-0.0339985489845275,0.7383469939231873,0.5241227149963379,-0.0701077803969383,0.6650458574295044,0.5178616642951965,-0.087021380662918,0.6169278621673584,0.5231747627258301,-0.0923222601413726,0.8002748489379883,0.6450894474983215,-0.0577825270593166,0.7230564951896667,0.5771408081054688,-0.0852465406060218,0.6687342524528503,0.5639013648033142,-0.0947455391287803,0.6313247680664062,0.5577784776687622,-0.0967104360461235
2023-08-01 16:28:01.174296,30,297,0.9931988716125488,-0.0231965165585279,0.099510371685028,-0.0558176189661026,-0.35693359375,0.8994140625,0.244140625,0.7060976028442383,0.834486186504364,-8.17207933323516e-07,0.6640557646751404,0.7024285793304443,0.0153355533257126,0.657191276550293,0.5951942205429077,0.0108538046479225,0.6426469087600708,0.5169293880462646,-0.003232343820855,0.6350566744804382,0.4522951245307922,-0.0179163571447134,0.8041757941246033,0.5552675724029541,0.0205594114959239,0.7498282790184021,0.4640663862228393,-0.0056865611113607,0.6952775716781616,0.4401354491710663,-0.0280802603811025,0.6492853164672852,0.4377894997596741,-0.0407207049429416,0.8194534778594971,0.5817723870277405,-0.0039214179851114,0.7509559988975525,0.4679803252220154,-0.028563916683197,0.6851106882095337,0.4492123126983642,-0.0481291972100734,0.6353656649589539,0.4531036019325256,-0.0595669187605381,0.8173753023147583,0.6128242015838623,-0.030633095651865,0.7303358912467957,0.5170000791549683,-0.0574776045978069,0.6604653000831604,0.5128598809242249,-0.069094680249691,0.6129063367843628,0.5224215388298035,-0.0732776373624801,0.79472416639328,0.6438615322113037,-0.0562966726720333,0.71622633934021,0.5694913864135742,-0.0768841430544853,0.6633711457252502,0.5555248260498047,-0.0829219967126846,0.6244218945503235,0.55184406042099,-0.0839844867587089
2023-08-01 16:28:01.247007,31,298,0.9930724501609802,-0.0233709495514631,0.101934939622879,-0.0535732060670852,-0.36376953125,0.88720703125,0.287109375,0.7065609693527222,0.8318480849266052,-8.34085540191154e-07,0.6609378457069397,0.6991368532180786,0.0176386889070272,0.6540378332138062,0.5917916297912598,0.0153013486415147,0.6404284238815308,0.5150212049484253,0.0022363313473761,0.6351220011711121,0.4511532783508301,-0.0116536617279052,0.7974249720573425,0.5509524941444397,0.0271904822438955,0.746715784072876,0.4593635201454162,-0.0004473385924939,0.6900824904441833,0.435740977525711,-0.0251148957759141,0.6419273614883423,0.433380514383316,-0.0393101684749126,0.8139388561248779,0.5764166116714478,0.0005373747553676,0.7508637309074402,0.4624203443527221,-0.0257597994059324,0.6828171014785767,0.4443452358245849,-0.047704342752695,0.6311644911766052,0.4501253962516784,-0.0605214349925518,0.8129897713661194,0.606640100479126,-0.0288697499781847,0.7302137017250061,0.5108357071876526,-0.0571677461266517,0.6584622859954834,0.5070487260818481,-0.0713855028152465,0.6101003885269165,0.5169351696968079,-0.0772451758384704,0.7917467951774597,0.6373317241668701,-0.057154793292284,0.7136895060539246,0.5629335045814514,-0.0782486945390701,0.6598016023635864,0.5489921569824219,-0.0856352373957634,0.6212131977081299,0.5449689626693726,-0.0880742594599723
2023-08-01 16:28:01.309425,32,299,0.9930768013000488,-0.0224525108933448,0.1031083017587661,-0.0516045615077018,-0.3076171875,0.875,0.29296875,0.704264223575592,0.8280885219573975,-8.439109251412447e-07,0.6599298119544983,0.6987349987030029,0.0136632993817329,0.6528081297874451,0.5883187055587769,0.0104520311579108,0.6391524076461792,0.5083345174789429,-0.002451455919072,0.6295032501220703,0.4413766264915466,-0.0154530042782425,0.7966840863227844,0.549127995967865,0.0226290766149759,0.7462488412857056,0.456443190574646,-0.0048208492808043,0.6901659369468689,0.4362396597862243,-0.027886115014553,0.6453091502189636,0.4389668107032776,-0.0408407002687454,0.8119808435440063,0.5758147239685059,-0.0009335414506494,0.7463026642799377,0.4613777101039886,-0.0271327923983335,0.6783875823020935,0.4474383294582367,-0.0469027832150459,0.6297018527984619,0.4570738971233368,-0.0578075014054775,0.810208797454834,0.6069465279579163,-0.0274471156299114,0.7262350916862488,0.5099606513977051,-0.0543403327465057,0.6562691926956177,0.5051217079162598,-0.066328078508377,0.6101059913635254,0.5156046152114868,-0.0705952569842338,0.788688063621521,0.6390213966369629,-0.0532671548426151,0.7106174826622009,0.5634183883666992,-0.0731695964932441,0.6594268679618835,0.546844482421875,-0.0801392346620559,0.6235284209251404,0.5423322319984436,-0.0820119157433509
2023-08-01 16:28:01.374157,33,300,0.9933245182037354,-0.0223917141556739,0.1017413139343261,-0.0495345965027809,-0.337890625,0.90771484375,0.17041015625,0.7065231800079346,0.8314902186393738,-7.725146247139492e-07,0.6578137278556824,0.6960060000419617,0.0151414312422275,0.6513288021087646,0.5857378840446472,0.0139390574768185,0.6394217610359192,0.5082592368125916,0.0031910156831145,0.6333755850791931,0.4469063282012939,-0.0076030655764043,0.7895045280456543,0.5464154481887817,0.024909297004342,0.7442800402641296,0.4534093737602234,-0.0009227843838743,0.6875588297843933,0.4299560189247131,-0.0232803281396627,0.6414687037467957,0.4286529421806335,-0.0361569672822952,0.8043069243431091,0.5697569251060486,0.0005717123276554,0.747789740562439,0.4515126049518585,-0.0249868985265493,0.6814066171646118,0.4324835538864136,-0.0455977134406566,0.6322081089019775,0.4391028881072998,-0.0568748749792575,0.8016712665557861,0.5997199416160583,-0.0265401173382997,0.7205072641372681,0.5003932118415833,-0.0543065555393695,0.6494244337081909,0.4924336671829223,-0.0688368752598762,0.6020597815513611,0.4996224045753479,-0.0742927864193916,0.778952956199646,0.631224513053894,-0.0525892116129398,0.7028719782829285,0.5529362559318542,-0.0728560388088226,0.652978777885437,0.5335070490837097,-0.0809271484613418,0.6174272894859314,0.5243207812309265,-0.083674281835556
2023-08-01 16:28:01.430390,34,301,0.9936227798461914,-0.0231818128377199,0.0996883809566497,-0.0473156683146953,-0.30517578125,0.9052734375,0.20361328125,0.7074366211891174,0.833183228969574,-7.930366336950101e-07,0.6555732488632202,0.6986077427864075,0.0194201823323965,0.6476160287857056,0.5907312035560608,0.0190064497292041,0.6355846524238586,0.5135078430175781,0.0075822239741683,0.629696249961853,0.4526059031486511,-0.0040322975255548,0.7876113653182983,0.5465868711471558,0.0302539523690938,0.7431073784828186,0.45229172706604,0.006014872342348,0.6853066086769104,0.432506263256073,-0.0153906559571623,0.6412281394004822,0.4372932910919189,-0.0280247051268816,0.8041860461235046,0.5679497122764587,0.0035483066458255,0.7491043210029602,0.4451754093170166,-0.019650375470519,0.6798319220542908,0.428016722202301,-0.0384054109454155,0.6316099166870117,0.4372386932373047,-0.048911090940237,0.802686333656311,0.5965973138809204,-0.0258418377488851,0.7248175144195557,0.4935272932052612,-0.0509185530245304,0.6527523994445801,0.486489474773407,-0.0631998553872108,0.6058902740478516,0.4963209629058838,-0.0680059567093849,0.7792558073997498,0.6274198293685913,-0.0540953204035759,0.703985869884491,0.5486946702003479,-0.0724246650934219,0.6530917882919312,0.5288541316986084,-0.079242929816246,0.6175194382667542,0.5206868648529053,-0.0816896706819534
2023-08-01 16:28:01.491657,35,302,0.9938783645629884,-0.0237170327454805,0.0978771895170211,-0.0454238131642341,-0.33349609375,0.89501953125,0.25537109375,0.7065519690513611,0.835606575012207,-7.945888569338422e-07,0.65555739402771,0.701331615447998,0.021486947312951,0.6483792066574097,0.5933429002761841,0.0209632534533739,0.6354517936706543,0.5131921172142029,0.0089638056233525,0.628701388835907,0.4454529285430908,-0.0029618015978485,0.7869117259979248,0.5477197766304016,0.0326023809611797,0.7455186247825623,0.4528339505195617,0.0095816161483526,0.689550518989563,0.4311829805374145,-0.0106811830773949,0.6448010206222534,0.4342310726642608,-0.0221675243228673,0.8025270700454712,0.5689064264297485,0.0052542733028531,0.7474530339241028,0.4466767907142639,-0.0153374960646033,0.6794452667236328,0.4290439486503601,-0.031674213707447,0.6310051083564758,0.4373137354850769,-0.040903378278017,0.8003025054931641,0.596503496170044,-0.0247625205665826,0.7216947078704834,0.4932494759559631,-0.0465223416686058,0.6528545618057251,0.4852048754692077,-0.0560690835118293,0.607352077960968,0.4943573474884033,-0.0598533488810062,0.7762201428413391,0.6250962615013123,-0.0537505038082599,0.7021223306655884,0.5451207756996155,-0.06873220205307,0.6517797112464905,0.5223649740219116,-0.0732786506414413,0.6156688928604126,0.5123448371887207,-0.0746615976095199
2023-08-01 16:28:01.556886,36,303,0.9937549829483032,-0.0243396386504173,0.0993792787194252,-0.0445244945585727,-0.32275390625,0.88134765625,0.2939453125,0.7048613429069519,0.8315625190734863,-7.588851644868555e-07,0.6554441452026367,0.6993798017501831,0.0166701469570398,0.6461299061775208,0.5909905433654785,0.0142340725287795,0.6312395334243774,0.5121156573295593,0.0017578499391674,0.6231324076652527,0.4463701546192169,-0.0104006519541144,0.7857797145843506,0.5438879728317261,0.0261010564863681,0.743079423904419,0.4501538276672363,0.0014603567542508,0.6874122023582458,0.4272019863128662,-0.0202958788722753,0.6428727507591248,0.4284101724624634,-0.032826017588377,0.8014720678329468,0.5650386810302734,0.00120537832845,0.7460250854492188,0.4424893260002136,-0.0208564214408397,0.6791242361068726,0.4241339266300201,-0.0386061705648899,0.6307231187820435,0.4313739836215973,-0.048842404037714,0.7990334033966064,0.5935341119766235,-0.0264527089893817,0.7200748920440674,0.4910578429698944,-0.0491627752780914,0.6516347527503967,0.4804744720458984,-0.0603720359504222,0.6054309606552124,0.4868456125259399,-0.0652945786714553,0.7743463516235352,0.623960018157959,-0.0533467084169387,0.7005018591880798,0.5443258285522461,-0.069165900349617,0.6501351594924927,0.5202615261077881,-0.0749680548906326,0.6130217909812927,0.5077320337295532,-0.0773001685738563
2023-08-01 16:28:01.618852,37,304,0.993651270866394,-0.0246682949364185,0.1005884706974029,-0.0439384579658508,-0.25830078125,0.87255859375,0.3193359375,0.7075337767601013,0.8372393846511841,-7.739409966234234e-07,0.6523195505142212,0.7038047909736633,0.02022803761065,0.6435950994491577,0.5941870808601379,0.0202521886676549,0.6319847106933594,0.5155900716781616,0.0095167364925146,0.6223282814025879,0.4522150158882141,-0.0016762297600507,0.7765642404556274,0.5428065657615662,0.0292631536722183,0.7326540946960449,0.4475004374980926,0.0049959011375904,0.6777405738830566,0.4216733574867248,-0.0172014515846967,0.631092369556427,0.4196148812770843,-0.0298283528536558,0.7919665575027466,0.5625854134559631,0.0029423504602164,0.7356721758842468,0.4395431876182556,-0.0193349979817867,0.6686057448387146,0.4182448983192444,-0.0381881035864353,0.6177643537521362,0.4245818853378296,-0.0488636791706085,0.7894799113273621,0.5917249321937561,-0.0258523654192686,0.710333526134491,0.4887900352478027,-0.0484769456088542,0.642401397228241,0.4784387946128845,-0.0609357915818691,0.5955226421356201,0.4854165613651275,-0.0664686560630798,0.7657449841499329,0.6234815120697021,-0.0536235831677913,0.6935142874717712,0.5430402159690857,-0.0692964047193527,0.6452147960662842,0.5172779560089111,-0.0758503153920173,0.6095490455627441,0.5026450753211975,-0.0786856561899185
2023-08-01 16:28:01.678769,38,305,0.993676781654358,-0.0245725251734256,0.1009057387709617,-0.0426690205931663,-0.37841796875,0.908203125,0.21337890625,0.7058773636817932,0.8355945348739624,-7.371100991804269e-07,0.650971531867981,0.7042243480682373,0.0156045230105519,0.6400697827339172,0.5955904722213745,0.0125969722867012,0.6255345344543457,0.5181676149368286,-5.7805085816653445e-05,0.6136994957923889,0.4529419541358948,-0.0127305071800947,0.773585319519043,0.5421929955482483,0.0237520188093185,0.7279381155967712,0.4472115635871887,-0.0043369987979531,0.6723235249519348,0.4194823503494262,-0.0298256296664476,0.624695360660553,0.4168823957443237,-0.0445351786911487,0.7914305925369263,0.5610184669494629,-0.0010704613523557,0.7337601184844971,0.4359737038612366,-0.0265414994210004,0.6670901775360107,0.4158757328987121,-0.0478160642087459,0.6164149045944214,0.4212105870246887,-0.0601382777094841,0.7909723520278931,0.5894016623497009,-0.0286795012652874,0.7122217416763306,0.4850175082683563,-0.0532441958785057,0.6447749733924866,0.4729142189025879,-0.0667435750365257,0.5967239141464233,0.4776885211467743,-0.0729898810386657,0.7671211957931519,0.621893048286438,-0.0556480400264263,0.6924383640289307,0.5442000031471252,-0.0727738887071609,0.642688512802124,0.5183188319206238,-0.0801662802696228,0.6047446131706238,0.5023819208145142,-0.0836386755108833
2023-08-01 16:28:01.737403,39,306,0.994417130947113,-0.0242965258657932,0.0947848111391067,-0.0394965037703514,-0.23486328125,0.9033203125,0.2451171875,0.7056494951248169,0.8360700607299805,-7.44258386475849e-07,0.6504930853843689,0.7037610411643982,0.0154124815016984,0.6403871774673462,0.5951728224754333,0.01280805375427,0.6273104548454285,0.5178874731063843,0.0008643679902888,0.6178250312805176,0.4534558653831482,-0.0110419308766722,0.7740640044212341,0.5427395105361938,0.0235329121351242,0.7271205186843872,0.4491788148880005,-0.0038844598457217,0.6721411347389221,0.4222196638584137,-0.028939226642251,0.6245139837265015,0.4191626608371734,-0.0433225221931934,0.7909495830535889,0.5615860223770142,-0.0008555664680898,0.7318719029426575,0.4366132616996765,-0.0247792359441518,0.6667153239250183,0.4150629043579101,-0.0456333979964256,0.6164578199386597,0.4184567928314209,-0.0580790340900421,0.7901684641838074,0.5900362730026245,-0.0279120821505785,0.7092762589454651,0.48631152510643,-0.0516303293406963,0.6431344151496887,0.4746604859828949,-0.0647057443857193,0.5961662530899048,0.4790565967559814,-0.070898525416851,0.766085147857666,0.6222665905952454,-0.0543298721313476,0.6899541616439819,0.5437570214271545,-0.070866160094738,0.6413565874099731,0.5183992385864258,-0.0775021016597747,0.6048020720481873,0.5026896595954895,-0.08049838244915
2023-08-01 16:28:01.802229,40,307,0.9950929880142212,-0.0247401129454374,0.0887739658355712,-0.0360127538442611,-0.2734375,0.8857421875,0.2763671875,0.7060220837593079,0.8362802267074585,-7.596350997118861e-07,0.6495653390884399,0.705619215965271,0.0150874126702547,0.6393023133277893,0.5964376330375671,0.0122895156964659,0.6268631815910339,0.5198872089385986,-0.0001736602134769,0.6157517433166504,0.4553845524787903,-0.012811342254281,0.769910454750061,0.5387195944786072,0.0239263605326414,0.723831832408905,0.4454272389411926,-0.0048649418167769,0.6677932739257812,0.4185539782047272,-0.0316271670162677,0.619482159614563,0.4161358773708343,-0.0474670305848121,0.7884195446968079,0.5572241544723511,-0.0012464948231354,0.7303910255432129,0.4359408915042877,-0.0276458635926246,0.6626889109611511,0.4133512377738952,-0.0503146909177303,0.6098496317863464,0.4167211055755615,-0.0638262256979942,0.7887089252471924,0.5868730545043945,-0.0294063407927751,0.7112488746643066,0.4819458127021789,-0.054976750165224,0.6431717872619629,0.4661666750907898,-0.0698926374316215,0.5934878587722778,0.4682189226150512,-0.0773713588714599,0.765801191329956,0.6214562058448792,-0.0570299588143825,0.6913098692893982,0.5429356098175049,-0.0759677663445472,0.6411108374595642,0.5154973268508911,-0.0848111882805824,0.6028060913085938,0.4981734156608581,-0.0893562883138656
2023-08-01 16:28:01.869746,41,308,0.9959524273872375,-0.0255932323634624,0.0798530355095863,-0.0323621071875095,-0.30126953125,0.8828125,0.2861328125,0.713927149772644,0.8464142680168152,-7.41292694783624e-07,0.6514244079589844,0.7135406136512756,0.0213171783834695,0.639976978302002,0.6029242873191833,0.0217578969895839,0.6250092387199402,0.5259671211242676,0.0107488855719566,0.6133927702903748,0.4615765213966369,-0.0006563668139278,0.7677655220031738,0.5419766306877136,0.035487063229084,0.7202068567276001,0.4488939642906189,0.0106348507106304,0.6657053232192993,0.4207289218902588,-0.0145902056246995,0.6179993152618408,0.4152704179286957,-0.0298198387026786,0.7852028608322144,0.5576552152633667,0.0074048917740583,0.7256353497505188,0.4370664358139038,-0.01528578158468,0.6583757996559143,0.4144351482391357,-0.0376065596938133,0.6057446002960205,0.4187619686126709,-0.0514457151293754,0.7852362394332886,0.5849323868751526,-0.023618770763278,0.7054553031921387,0.4798806309700012,-0.045208241790533,0.6367833018302917,0.4648168683052063,-0.0599621795117855,0.587050199508667,0.4694328308105469,-0.068200759589672,0.7623183131217957,0.6173768639564514,-0.0539198480546474,0.6864386796951294,0.5375047326087952,-0.0681475549936294,0.6353027820587158,0.5101903676986694,-0.0755619555711746,0.5965583920478821,0.493940144777298,-0.080147199332714
2023-08-01 16:28:01.932199,42,309,0.9969093799591064,-0.0249647293239831,0.0689373612403869,-0.0282148793339729,-0.34912109375,0.88623046875,0.30712890625,0.7119890451431274,0.8479028940200806,-6.789351232328045e-07,0.6507883071899414,0.7211174964904785,0.0161101315170526,0.6383455395698547,0.6094323992729187,0.0138653684407472,0.6211957931518555,0.5308589935302734,0.0015609683468937,0.6010501384735107,0.4668849110603332,-0.0104004153981804,0.7617281675338745,0.539527177810669,0.0308731272816658,0.7153180241584778,0.448477029800415,0.0053246677853167,0.6604133248329163,0.4189330339431762,-0.0204765703529119,0.6119539737701416,0.4123073220252991,-0.0360088087618351,0.7804586887359619,0.5546682476997375,0.0055232741869986,0.7224510908126831,0.4367818236351013,-0.0157999210059642,0.6581709384918213,0.4138553142547607,-0.0358320102095603,0.6073079109191895,0.4148501753807068,-0.0483707040548324,0.7816357612609863,0.5829451680183411,-0.0232398565858602,0.7069438695907593,0.4774040579795837,-0.043389294296503,0.6412807106971741,0.4588755965232849,-0.0548070967197418,0.5919253826141357,0.4587180614471435,-0.0609939582645893,0.7585214972496033,0.617908239364624,-0.0519075728952884,0.684654951095581,0.5387406349182129,-0.0660877451300621,0.6349010467529297,0.5107530951499939,-0.0718955770134925,0.5959243774414062,0.4942638278007507,-0.0750629752874374
2023-08-01 16:28:01.995982,43,310,0.9976470470428468,-0.0226295329630374,0.0592021532356739,-0.0261381324380636,-0.31494140625,0.91748046875,0.19677734375,0.7194644212722778,0.8560872077941895,-7.529698677899432e-07,0.6492856740951538,0.7294503450393677,0.0226839799433946,0.6321450471878052,0.6216493248939514,0.0230419393628835,0.6105871200561523,0.5444464683532715,0.0112370941787958,0.5845986008644104,0.4848960638046264,-0.000615942699369,0.7506146430969238,0.5432397127151489,0.0407665595412254,0.6990668773651123,0.4505020380020141,0.0172024220228195,0.6415881514549255,0.431883156299591,-0.0070956242270767,0.5950174927711487,0.4350122809410095,-0.0212208218872547,0.7678554654121399,0.5547829866409302,0.0135328341275453,0.6994577646255493,0.4398928582668304,-0.0056392825208604,0.6306869387626648,0.4286389052867889,-0.0250161066651344,0.5804332494735718,0.4409467577934265,-0.037128709256649,0.7695988416671753,0.5796986222267151,-0.0168757401406765,0.6827138066291809,0.4838174283504486,-0.0325654298067092,0.6142064332962036,0.4767688512802124,-0.043564423918724,0.566412091255188,0.4875878393650055,-0.0502642355859279,0.7504773139953613,0.6118609309196472,-0.0470268279314041,0.6724438667297363,0.5417911410331726,-0.0541788712143898,0.6223428249359131,0.5224956274032593,-0.0581289418041706,0.584568440914154,0.5151326656341553,-0.0611328780651092
2023-08-01 16:28:02.056067,44,311,0.9978741407394408,-0.020394179970026,0.055973507463932,-0.0264225527644157,-0.21875,0.92041015625,0.3017578125,0.7198618054389954,0.8581966161727905,-7.844648166610568e-07,0.6474642753601074,0.741681694984436,0.0313748344779014,0.6340214610099792,0.6301208138465881,0.0390702933073043,0.6187987923622131,0.5530880093574524,0.0329720079898834,0.6001588106155396,0.4952870607376098,0.0264591164886951,0.7459280490875244,0.5472251176834106,0.0550525225698947,0.7008758783340454,0.4592900276184082,0.0373239368200302,0.6446329355239868,0.4400765895843506,0.0165294334292411,0.5967393517494202,0.4426268935203552,0.0043558524921536,0.7646157741546631,0.5554791688919067,0.0247921589761972,0.69636470079422,0.4473409056663513,0.0091554950922727,0.6286873817443848,0.4364851117134094,-0.0094688609242439,0.5781689882278442,0.4520313739776611,-0.0205295234918594,0.7681519985198975,0.5776239633560181,-0.0082914903759956,0.6831765174865723,0.4832013249397278,-0.0224239844828844,0.6159645318984985,0.4737340807914734,-0.0335751101374626,0.5679726004600525,0.4845304787158966,-0.039764404296875,0.751725435256958,0.6076693534851074,-0.0403027981519699,0.6698465943336487,0.5389010906219482,-0.0466289781033992,0.6176292896270752,0.5233239531517029,-0.0497542172670364,0.5783974528312683,0.5212719440460205,-0.0517053268849849
2023-08-01 16:28:02.128207,45,312,0.9978715777397156,-0.018252957612276,0.0557075217366218,-0.0285629592835903,-0.28759765625,0.908203125,0.37451171875,0.7168591618537903,0.85476154088974,-7.584192189824535e-07,0.6470637321472168,0.7356858253479004,0.032266117632389,0.6338129043579102,0.6266810894012451,0.0404748357832431,0.6164978742599487,0.5517815947532654,0.0350044295191764,0.5960490703582764,0.4930814504623413,0.029181471094489,0.7493025064468384,0.5445783734321594,0.0548665858805179,0.7022382616996765,0.4565977454185486,0.0387594476342201,0.6476760506629944,0.4367382526397705,0.0191872585564851,0.6008667349815369,0.4380984008312225,0.0074844150803983,0.7672314047813416,0.5533896684646606,0.0246747303754091,0.6959941387176514,0.4489127993583679,0.0112063158303499,0.6316322088241577,0.439457893371582,-0.0062339063733816,0.5830624103546143,0.4519689679145813,-0.0172647032886743,0.769723653793335,0.575836181640625,-0.0080747082829475,0.6811746954917908,0.4846018254756927,-0.0208002980798482,0.6169052720069885,0.4775878190994262,-0.0306340809911489,0.5701180100440979,0.485827624797821,-0.0365872867405414,0.751163899898529,0.6060302257537842,-0.0396688990294933,0.6677065491676331,0.5398041605949402,-0.04588283598423,0.616544783115387,0.522841215133667,-0.0487206056714057,0.5775166153907776,0.5156564712524414,-0.0507151745259761
2023-08-01 16:28:02.190863,46,313,0.9979872107505798,-0.0166227091103792,0.0539331138134002,-0.0289211198687553,-0.32763671875,0.92529296875,0.27490234375,0.7258718013763428,0.8674554228782654,-7.755990054647555e-07,0.6499404311180115,0.757003664970398,0.0258556231856346,0.6384106874465942,0.6455708146095276,0.031762771308422,0.6227258443832397,0.5681989192962646,0.0251368097960948,0.599548876285553,0.5099597573280334,0.0182505808770656,0.7483206987380981,0.5595961809158325,0.0494914688169956,0.702210545539856,0.4736760258674621,0.0308915171772241,0.6471804976463318,0.4552031755447387,0.0089164059609174,0.5991869568824768,0.4568744897842407,-0.0041769356466829,0.7662086486816406,0.566368579864502,0.0222715269774198,0.697250485420227,0.4626194834709167,0.0063512963242828,0.6320140361785889,0.4508423507213592,-0.0126034906134009,0.5826876759529114,0.4645755589008331,-0.0242234878242015,0.7697540521621704,0.5891429781913757,-0.0080264257267117,0.6849724650382996,0.4986289441585541,-0.0222308877855539,0.6197285652160645,0.4900726079940796,-0.0330570340156555,0.5733121633529663,0.5000976920127869,-0.0391982607543468,0.7544009685516357,0.6203694343566895,-0.0378286354243755,0.676186203956604,0.5527703762054443,-0.045020192861557,0.6249713897705078,0.5357747673988342,-0.0486556775867939,0.5863454937934875,0.5321844816207886,-0.0508684925734996
2023-08-01 16:28:02.264101,47,314,0.9980494379997252,-0.0158150196075439,0.0533052869141101,-0.0283860880881547,-0.2744140625,0.93212890625,0.17138671875,0.7249619364738464,0.8662334084510803,-7.714738217146078e-07,0.6526545882225037,0.753116250038147,0.0343925133347511,0.6413918137550354,0.6449216604232788,0.0453176461160182,0.6268409490585327,0.572137713432312,0.0421255379915237,0.6109167337417603,0.51560378074646,0.0386024564504623,0.7494893670082092,0.5601672530174255,0.0596620440483093,0.7056105732917786,0.474277913570404,0.0451063625514507,0.6519636511802673,0.4558528065681457,0.0261008944362401,0.6041901111602783,0.4574054181575775,0.0147537542507052,0.767266571521759,0.5665420293807983,0.0292338617146015,0.69590163230896,0.4691426157951355,0.0171563867479562,0.6318002939224243,0.4576034545898437,-0.0001787930523278,0.5829334855079651,0.4684200584888458,-0.011358106508851,0.7716197967529297,0.5881266593933105,-0.0038201303686946,0.6837030649185181,0.5032439827919006,-0.0158641301095485,0.6192560195922852,0.496060311794281,-0.025454306975007,0.5719980001449585,0.5048278570175171,-0.031081560999155,0.7568514943122864,0.6183655261993408,-0.0356825739145278,0.6751746535301208,0.5553648471832275,-0.0410441532731056,0.6240754723548889,0.5405750870704651,-0.0431586503982543,0.5849372148513794,0.5374482274055481,-0.044507160782814
2023-08-01 16:28:02.359447,48,315,0.9980605840682985,-0.0166364945471286,0.0536138154566288,-0.0269082952290773,-0.27490234375,0.90234375,0.287109375,0.7246758341789246,0.8635171055793762,-7.319292762986152e-07,0.6553198099136353,0.7557057738304138,0.029705386608839,0.6422789096832275,0.6476782560348511,0.0382129438221454,0.6271281838417053,0.5759027600288391,0.0338765569031238,0.6108256578445435,0.5194740295410156,0.0296846255660057,0.7509397864341736,0.5599263310432434,0.0511495433747768,0.7065088748931885,0.4736053645610809,0.034083291888237,0.652458906173706,0.4534441530704498,0.0149765890091657,0.6047202944755554,0.4548220634460449,0.0041981977410614,0.7675718069076538,0.5686389207839966,0.0229833722114563,0.6969959139823914,0.4695528745651245,0.0088951289653778,0.6327611804008484,0.4581682085990906,-0.0069237258285284,0.5845272541046143,0.468370258808136,-0.0162922497838735,0.770821213722229,0.5912372469902039,-0.0080323349684476,0.6835445761680603,0.5042576789855957,-0.0222305357456207,0.6187851428985596,0.4970171153545379,-0.0303147006779909,0.5716228485107422,0.5062183737754822,-0.0339732691645622,0.7550157308578491,0.6222681999206543,-0.038173671811819,0.6746769547462463,0.5575503706932068,-0.0454577393829822,0.6237189173698425,0.54007887840271,-0.0479373186826705,0.5849398970603943,0.5339958071708679,-0.0488779470324516
2023-08-01 16:28:02.443461,49,316,0.9979535341262816,-0.0158660169690847,0.0555812902748584,-0.0273418482393026,-0.291015625,0.9189453125,0.26171875,0.7266914248466492,0.8642185926437378,-7.566815725112974e-07,0.656499981880188,0.7578633427619934,0.0375640168786048,0.6432614326477051,0.651523232460022,0.0497380867600441,0.6270278692245483,0.5810962915420532,0.0468708910048007,0.6068176627159119,0.5233696103096008,0.0435564368963241,0.7468085289001465,0.5620505809783936,0.0638116002082824,0.7050032615661621,0.4772520065307617,0.0495450384914875,0.6527121663093567,0.4547746181488037,0.0312898196280002,0.6055454015731812,0.4536876678466797,0.0205644108355045,0.7639298439025879,0.5691776871681213,0.0310810953378677,0.6932858824729919,0.4741040468215942,0.0191686600446701,0.6291407346725464,0.4609829187393188,0.0032738829031586,0.5802800059318542,0.4691311717033386,-0.0064956294372677,0.7684347629547119,0.5897605419158936,-0.0044526038691401,0.6821465492248535,0.50462806224823,-0.0168308168649673,0.6179013252258301,0.4960314035415649,-0.0241726338863372,0.5706907510757446,0.5031734704971313,-0.0278666112571954,0.7555127739906311,0.6182799339294434,-0.0387668050825595,0.6740993857383728,0.5560184717178345,-0.0451508909463882,0.6223486065864563,0.5393235087394714,-0.0469843074679374,0.5832695364952087,0.5336797833442688,-0.0476960837841033
2023-08-01 16:28:02.513778,50,317,0.9978808164596558,-0.0156375486403703,0.0567438155412673,-0.0277415588498115,-0.2958984375,0.9248046875,0.2421875,0.7250858545303345,0.8622606992721558,-7.376534654213174e-07,0.655968427658081,0.7563762068748474,0.0366500467061996,0.6414995193481445,0.6517689824104309,0.0484363622963428,0.6241188049316406,0.5833832621574402,0.045314647257328,0.605329692363739,0.5253128409385681,0.0415055118501186,0.747858464717865,0.5634002685546875,0.0623384490609169,0.7045965194702148,0.4821885228157043,0.048517245799303,0.6554971933364868,0.4573627114295959,0.029892535880208,0.6101691126823425,0.4510265290737152,0.0181211028248071,0.7652241587638855,0.5699213147163391,0.0293139982968568,0.6942158937454224,0.4763104021549225,0.0155100114643573,0.6305031180381775,0.4627416133880615,-0.0028863409534096,0.5809301733970642,0.4689225256443023,-0.0144570730626583,0.769079864025116,0.5900917053222656,-0.0062394118867814,0.6822795867919922,0.5057733058929443,-0.0205791629850864,0.6173238754272461,0.499028205871582,-0.0307401977479457,0.5691861510276794,0.5058131814002991,-0.0361548066139221,0.7546424865722656,0.6193975210189819,-0.0403787642717361,0.6727608442306519,0.5563074946403503,-0.0483006387948989,0.6211014986038208,0.5406863689422607,-0.0515500679612159,0.5816503167152405,0.5351776480674744,-0.05331352353096
