Timestamp,Index,Frame ID,w,x,y,z,ax,ay,az,x_0,y_0,z_0,x_1,y_1,z_1,x_2,y_2,z_2,x_3,y_3,z_3,x_4,y_4,z_4,x_5,y_5,z_5,x_6,y_6,z_6,x_7,y_7,z_7,x_8,y_8,z_8,x_9,y_9,z_9,x_10,y_10,z_10,x_11,y_11,z_11,x_12,y_12,z_12,x_13,y_13,z_13,x_14,y_14,z_14,x_15,y_15,z_15,x_16,y_16,z_16,x_17,y_17,z_17,x_18,y_18,z_18,x_19,y_19,z_19,x_20,y_20,z_20
2023-08-01 16:28:06.259549,0,371,0.9903044104576112,-0.0270251259207725,0.1326675117015838,-0.0310834869742393,-0.28955078125,0.90625,0.23828125,0.7245343327522278,0.846704363822937,-7.112573143785994e-07,0.6461957097053528,0.7222245931625366,0.0271259024739265,0.6226301789283752,0.6155535578727722,0.0289314910769462,0.596649706363678,0.5398163199424744,0.0191917605698108,0.57417893409729,0.4800089299678802,0.0091349370777606,0.7502337694168091,0.5284302234649658,0.0373363010585308,0.6830127835273743,0.4463080167770386,0.0201983079314231,0.6226503252983093,0.4344050288200378,0.0011841879459097,0.5763247013092041,0.4381235837936401,-0.0106294639408588,0.7657129764556885,0.5387672185897827,0.0092544350773096,0.68474942445755,0.428483635187149,-0.004765735939145,0.6166074275970459,0.4216991662979126,-0.0197046678513288,0.5660955905914307,0.4351236224174499,-0.0296687390655279,0.762632429599762,0.5658762454986572,-0.0203049089759588,0.6596340537071228,0.4775188565254211,-0.0332711674273014,0.5903115272521973,0.4749428033828735,-0.0403987951576709,0.5421638488769531,0.4845824837684631,-0.0452420152723789,0.7360919713973999,0.6014548540115356,-0.0488401986658573,0.6455816626548767,0.5365750789642334,-0.055598184466362,0.5917583703994751,0.5173410773277283,-0.057686474174261,0.5516947507858276,0.5047097206115723,-0.0596205294132232
2023-08-01 16:28:06.322267,1,372,0.9893863797187804,-0.0269307009875774,0.1387871354818344,-0.0335769094526767,-0.328125,0.904296875,0.2607421875,0.7227795124053955,0.8433264493942261,-6.938223577890312e-07,0.6435703039169312,0.7176331877708435,0.0251101031899452,0.619094967842102,0.6126440763473511,0.0245763566344976,0.5930032134056091,0.5365859866142273,0.0127359572798013,0.5705079436302185,0.4765102863311767,0.0005333011504262,0.7482836842536926,0.5255128741264343,0.0334603562951087,0.6807771921157837,0.443066656589508,0.0135566033422946,0.6196554899215698,0.4295872449874878,-0.0072811772115528,0.5718415975570679,0.433274507522583,-0.020148767158389,0.7642683386802673,0.5360938310623169,0.0052461773157119,0.683051586151123,0.4234077334403991,-0.011638238094747,0.6145585775375366,0.4176270961761474,-0.0280266050249338,0.5642471313476562,0.4325872659683227,-0.0386206097900867,0.761782169342041,0.5639147758483887,-0.0245183613151311,0.6594628095626831,0.4750790596008301,-0.0395715050399303,0.5906358957290649,0.4739604592323303,-0.0472046807408332,0.5430551767349243,0.4858178794384002,-0.0520082302391529,0.7352929711341858,0.6013222932815552,-0.0533851943910121,0.6458115577697754,0.5367673635482788,-0.0617777705192565,0.5922898650169373,0.5185155272483826,-0.0641050115227699,0.5525966882705688,0.5070556402206421,-0.0658804103732109
2023-08-01 16:28:06.379799,2,373,0.9887699484825134,-0.0271819476038217,0.1424155980348587,-0.0362364128232002,-0.32275390625,0.890625,0.2548828125,0.7178285121917725,0.8354446887969971,-7.386486799987324e-07,0.6416566967964172,0.7093113660812378,0.0245632361620664,0.619780421257019,0.6032537221908569,0.023307017982006,0.5946487188339233,0.5279210805892944,0.0112705593928694,0.5731519460678101,0.4673048257827759,-0.0013649421744048,0.7500505447387695,0.5176660418510437,0.0277251172810792,0.6808200478553772,0.4345487952232361,0.0059876292943954,0.6180113554000854,0.4246947765350342,-0.0154614318162202,0.5703703165054321,0.43314129114151,-0.0282336082309484,0.7660773992538452,0.5303273797035217,0.0002935143129434,0.6817103624343872,0.4179359078407287,-0.0184671804308891,0.6109408140182495,0.4155192971229553,-0.0356376282870769,0.5607227683067322,0.43443164229393,-0.0466514304280281,0.763180136680603,0.5593134760856628,-0.0282091572880744,0.6594656705856323,0.4719673097133636,-0.0441085062921047,0.5898855924606323,0.4732266068458557,-0.0525370053946971,0.542953610420227,0.4869876801967621,-0.0578278340399265,0.7365262508392334,0.5966852903366089,-0.0555823780596256,0.6474740505218506,0.5319971442222595,-0.0638946816325187,0.5941787362098694,0.5154840350151062,-0.0662979558110237,0.5551385879516602,0.5053499341011047,-0.0681300312280654
2023-08-01 16:28:06.448477,3,374,0.9878569841384888,-0.0275306589901447,0.1474504172801971,-0.0404852293431758,-0.28369140625,0.890625,0.23291015625,0.7143326997756958,0.8323447108268738,-7.697703949816059e-07,0.6430588960647583,0.7077977657318115,0.0217543374747037,0.6206581592559814,0.601917028427124,0.0191462002694606,0.5954322814941406,0.526018500328064,0.0060171512886881,0.5747824907302856,0.4647229313850403,-0.0076051489450037,0.7533984184265137,0.5179452896118164,0.0249631516635417,0.6847619414329529,0.4339438676834106,0.0003457503335084,0.6219755411148071,0.4211625456809997,-0.0223561767488718,0.5740225315093994,0.4281169176101684,-0.0355261899530887,0.7687081694602966,0.5314561724662781,-0.0018367689335718,0.6842904090881348,0.4185733795166015,-0.0229829289019107,0.6132257580757141,0.4158116281032562,-0.0410143062472343,0.5629355311393738,0.4327841997146606,-0.0521232634782791,0.7654016017913818,0.5599924921989441,-0.0302004199475049,0.6612861156463623,0.4750744998455047,-0.049069620668888,0.5911725759506226,0.4770723581314087,-0.0590448714792728,0.5435195565223694,0.489507645368576,-0.0645059719681739,0.7388007640838623,0.5969477891921997,-0.0575650632381439,0.650593101978302,0.5337605476379395,-0.0677308663725853,0.5991849303245544,0.5174078345298767,-0.0715410485863685,0.5612514019012451,0.5058054327964783,-0.0739733502268791
2023-08-01 16:28:06.512348,4,375,0.9876063466072084,-0.0271640084683895,0.1484136581420898,-0.0432336591184139,-0.4248046875,0.94677734375,0.23779296875,0.7142419219017029,0.8295933604240417,-7.485359674319625e-07,0.6436519026756287,0.6990269422531128,0.0227232240140438,0.6224769353866577,0.593265175819397,0.0207770448178052,0.5990973711013794,0.5167455673217773,0.0083965705707669,0.5822033286094666,0.454890102148056,-0.0045575932599604,0.7589796781539917,0.5178767442703247,0.0249405652284622,0.687751054763794,0.4358599483966827,0.0018268895801156,0.625937819480896,0.4190853834152221,-0.019262421876192,0.5788259506225586,0.4198941886425018,-0.0316634774208068,0.7725465297698975,0.5334587097167969,-0.0023745393846184,0.6883910894393921,0.4203951358795166,-0.0225337110459804,0.6188241243362427,0.4141777455806732,-0.0392519496381282,0.5693905353546143,0.4263675212860107,-0.0496760308742523,0.7669267058372498,0.5629217624664307,-0.0310780014842748,0.6631509065628052,0.4773477613925934,-0.0509927123785018,0.5934208035469055,0.4794670343399048,-0.0606310777366161,0.5468217730522156,0.4901497960090637,-0.0654478445649147,0.7384056448936462,0.5993607640266418,-0.058479506522417,0.6523803472518921,0.5335028767585754,-0.0698676630854606,0.6015188097953796,0.5170403122901917,-0.0733645185828208,0.5641466379165649,0.505156934261322,-0.0752616822719574
2023-08-01 16:28:06.579263,5,376,0.9871296882629396,-0.0247882064431905,0.1502609550952911,-0.0488065183162689,-0.34423828125,0.8486328125,0.27099609375,0.715084969997406,0.8283060789108276,-7.461878794856602e-07,0.6434245109558105,0.6948428153991699,0.0261669941246509,0.6249597072601318,0.5895243883132935,0.0264880042523145,0.6024056077003479,0.5137108564376831,0.0154698872938752,0.5864189267158508,0.4504545331001282,0.0033600409515202,0.7617491483688354,0.5161183476448059,0.030819272622466,0.6902245283126831,0.4344164133071899,0.0095643047243356,0.6291241645812988,0.414492517709732,-0.0110145192593336,0.5813700556755066,0.4115444719791412,-0.0232949722558259,0.7763144969940186,0.5324387550354004,0.0020480998791754,0.691223680973053,0.4220821857452392,-0.0175150763243436,0.6216224431991577,0.4118750989437103,-0.0356309078633785,0.5711289048194885,0.4204903841018677,-0.04722810536623,0.7709986567497253,0.562279224395752,-0.0279301051050424,0.6644559502601624,0.4774094223976135,-0.0484133027493953,0.5933618545532227,0.4808375239372253,-0.0597609281539917,0.5460743308067322,0.4924272894859314,-0.0654851719737052,0.74260014295578,0.5977544784545898,-0.0561607554554939,0.6538606882095337,0.531001091003418,-0.0677317902445793,0.6023684144020081,0.5162720680236816,-0.0716876089572906,0.5651975870132446,0.5063453912734985,-0.0738764405250549
2023-08-01 16:28:06.645732,6,377,0.9871070981025696,-0.022357003763318,0.1490321308374405,-0.0539364702999591,-0.19580078125,0.89208984375,0.2197265625,0.7126958966255188,0.8263359069824219,-6.992440830799751e-07,0.6479305028915405,0.6908484101295471,0.0213846415281295,0.6292710900306702,0.585900604724884,0.018078863620758,0.607412576675415,0.5116426348686218,0.0044412277638912,0.5960621237754822,0.4514976739883423,-0.0098310587927699,0.770531952381134,0.519271969795227,0.0234071277081966,0.6988310217857361,0.4349644780158996,-0.0019896051380783,0.6396329998970032,0.4108434319496155,-0.0253231860697269,0.5921486616134644,0.4046458601951599,-0.0393697582185268,0.784416675567627,0.5373066067695618,-0.0042481683194637,0.7017274498939514,0.4255388379096985,-0.0286091268062591,0.6343234777450562,0.4137398600578308,-0.0494425371289253,0.5845599174499512,0.4202347099781036,-0.0624786727130413,0.7786632776260376,0.5669018626213074,-0.033283308148384,0.6749956607818604,0.4800244569778442,-0.057843904942274,0.6043679714202881,0.4844421148300171,-0.0701398029923439,0.5570784211158752,0.4971570074558258,-0.0757120102643966,0.7496166229248047,0.6015110611915588,-0.0608680061995983,0.6639247536659241,0.5360822677612305,-0.0759387910366058,0.6126072406768799,0.5204904675483704,-0.0814079195261001,0.5748434662818909,0.5097116231918335,-0.084025502204895
2023-08-01 16:28:06.710166,7,378,0.9864670634269714,-0.0211239196360111,0.151625394821167,-0.0587053559720516,-0.474609375,0.90234375,0.2099609375,0.7119743824005127,0.8249413967132568,-7.668633656976453e-07,0.6475957632064819,0.6872076392173767,0.0190754923969507,0.6322782635688782,0.5803789496421814,0.014824740588665,0.613828182220459,0.5043808817863464,0.0008519778493791,0.6077295541763306,0.4424941539764404,-0.0141225978732109,0.7777245044708252,0.5176575183868408,0.0184239670634269,0.7024292349815369,0.4348378181457519,-0.0086005553603172,0.641752302646637,0.4120871424674988,-0.0324285328388214,0.5945798754692078,0.4070215225219726,-0.0465552285313606,0.791674017906189,0.5390651822090149,-0.0081173982471227,0.7080622911453247,0.4306195378303528,-0.0347361303865909,0.6358906030654907,0.4197259545326233,-0.0557964369654655,0.5832091569900513,0.4285746812820434,-0.0684410631656646,0.7851630449295044,0.5702404379844666,-0.0359808653593063,0.6833696961402893,0.4829741418361664,-0.0629102885723114,0.6109174489974976,0.4851364493370056,-0.0759528055787086,0.5633927583694458,0.4970946311950683,-0.0814905688166618,0.7556256651878357,0.6052573323249817,-0.0623431093990802,0.6673889756202698,0.540363609790802,-0.0806914716958999,0.6144814491271973,0.5269394516944885,-0.0875520035624504,0.576802670955658,0.5199862122535706,-0.0901852920651435
2023-08-01 16:28:06.767002,8,379,0.9855509400367736,-0.019596341997385,0.1550597548484802,-0.0652826726436615,-0.43994140625,0.86962890625,0.1845703125,0.7115285992622375,0.818371057510376,-7.722097166151798e-07,0.6510711312294006,0.6792447566986084,0.0132124070078134,0.6372103691101074,0.5748767852783203,0.0071949632838368,0.6198306679725647,0.4983299374580383,-0.0071367984637618,0.6137628555297852,0.4363325238227844,-0.0221829954534769,0.7837386727333069,0.5176063776016235,0.0122261215001344,0.7104049324989319,0.434020459651947,-0.0157137885689735,0.6491783857345581,0.4150608777999878,-0.0403237156569957,0.6025374531745911,0.4142231345176697,-0.0549368113279342,0.7980449795722961,0.5413207411766052,-0.010788632556796,0.7150691747665405,0.4337250590324402,-0.0379544831812381,0.6427016258239746,0.4236070513725281,-0.0604451037943363,0.5897737741470337,0.4318201243877411,-0.074275441467762,0.7923668026924133,0.5730758309364319,-0.0352324321866035,0.6899489164352417,0.4870917797088623,-0.0630822703242302,0.6173367500305176,0.4878258109092712,-0.0775424316525459,0.5693171620368958,0.4984273016452789,-0.0839960724115371,0.7636595964431763,0.6076828241348267,-0.0584803707897663,0.6748170852661133,0.5428653359413147,-0.0777451246976852,0.6218528747558594,0.5283161997795105,-0.085418201982975,0.5842277407646179,0.5208880305290222,-0.0885332226753234
2023-08-01 16:28:06.831412,9,380,0.984896719455719,-0.0188365709036588,0.1569540947675705,-0.0706319510936737,-0.43798828125,0.88037109375,0.1953125,0.7167003750801086,0.8237645626068115,-7.784890954098955e-07,0.6611571907997131,0.6869314312934875,-0.0023213694803416,0.6396134495735168,0.581734299659729,-0.0166316833347082,0.6131232976913452,0.5057134628295898,-0.035114012658596,0.596981942653656,0.4441159963607788,-0.0539747364819049,0.7934956550598145,0.521653950214386,-0.0148481996729969,0.708287239074707,0.4490253925323486,-0.0487009920179843,0.6477473378181458,0.4332411885261535,-0.072535790503025,0.5988772511482239,0.4333007335662842,-0.0860441401600837,0.8111444711685181,0.5539476275444031,-0.0324181839823722,0.7190098762512207,0.4559481739997864,-0.0680293589830398,0.644635021686554,0.4483504593372345,-0.0914411842823028,0.5913813710212708,0.4562705457210541,-0.1053506806492805,0.8067288994789124,0.5947786569595337,-0.0514852069318294,0.6986292004585266,0.5218261480331421,-0.089041382074356,0.6220400333404541,0.5219092965126038,-0.1047760844230651,0.5721522569656372,0.5303321480751038,-0.1104738935828208,0.7807129621505737,0.6386808156967163,-0.0699503570795059,0.6936924457550049,0.5861762762069702,-0.0989919900894165,0.6463130116462708,0.5796758532524109,-0.109459288418293,0.6143959164619446,0.576695442199707,-0.1128056570887565
2023-08-01 16:28:06.895471,10,381,0.9841582775115968,-0.0179238487035036,0.1594786494970321,-0.0753505304455757,-0.419921875,0.9072265625,0.19140625,0.7150759100914001,0.8121354579925537,-7.615080903633498e-07,0.6581636071205139,0.6789233684539795,-0.0071596764028072,0.6420205235481262,0.5744771957397461,-0.0229686144739389,0.6242474317550659,0.5012769103050232,-0.0420093722641468,0.6132966876029968,0.443758100271225,-0.0616670250892639,0.7962045073509216,0.5193175077438354,-0.0199712011963129,0.705478310585022,0.4481925964355469,-0.0594149455428123,0.644760251045227,0.4288493394851684,-0.0872940868139267,0.5951249003410339,0.4252954423427582,-0.1026295572519302,0.8138712644577026,0.5530303716659546,-0.0363699384033679,0.7182222604751587,0.4564626216888428,-0.0815087780356407,0.6413456201553345,0.4555296301841736,-0.1074340119957923,0.5872921943664551,0.4692785739898681,-0.1195284873247146,0.8086658120155334,0.5942667126655579,-0.0549999326467514,0.6970760822296143,0.5185991525650024,-0.1021800115704536,0.6187026500701904,0.5221201777458191,-0.1198342144489288,0.5696206092834473,0.5315468311309814,-0.1229690536856651,0.7813014984130859,0.6378145813941956,-0.0728723406791687,0.6917731761932373,0.5792968273162842,-0.1081218272447586,0.6400246024131775,0.569348156452179,-0.1196793913841247,0.6069785356521606,0.5628545880317688,-0.1215247809886932
2023-08-01 16:28:06.961873,11,382,0.9834511876106262,-0.0157294627279043,0.1611634194850921,-0.0812567621469497,-0.32080078125,0.87841796875,0.1689453125,0.7152268290519714,0.8150119781494141,-7.96405799974309e-07,0.6614538431167603,0.6885473728179932,-0.0074347658082842,0.644018828868866,0.5864834785461426,-0.0223550181835889,0.6203901767730713,0.5150651335716248,-0.040541548281908,0.600466251373291,0.4594802260398865,-0.059593703597784,0.8013732433319092,0.5273227691650391,-0.0203100740909576,0.7180315256118774,0.4554373919963836,-0.0566575229167938,0.6580407619476318,0.441802978515625,-0.0829356089234352,0.6105274558067322,0.4450213313102722,-0.0978647544980049,0.8175212740898132,0.5634300112724304,-0.035144742578268,0.7213353514671326,0.4737664759159088,-0.0755853280425071,0.6448626518249512,0.473086267709732,-0.1006107628345489,0.5917819142341614,0.4845153093338012,-0.1138148754835128,0.8103126883506775,0.6076280474662781,-0.0520214177668094,0.6987403035163879,0.5363436937332153,-0.095178335905075,0.6206073760986328,0.5372104644775391,-0.1127115860581398,0.5705909729003906,0.5446902513504028,-0.1172113269567489,0.7820249795913696,0.6533119678497314,-0.0681912824511528,0.6944410800933838,0.5945461392402649,-0.10080037266016,0.6445423364639282,0.5814246535301208,-0.1125393956899643,0.6114751100540161,0.5732259154319763,-0.1153995394706726
2023-08-01 16:28:07.021776,12,383,0.9828086495399476,-0.0142853567376732,0.1632155179977417,-0.0851097330451011,-0.39794921875,0.86181640625,0.21630859375,0.7172898054122925,0.8194303512573242,-8.430175171270093e-07,0.6636852622032166,0.6910027861595154,-0.0110278828069567,0.6449443101882935,0.5905414819717407,-0.0291502363979816,0.6202157735824585,0.5186620950698853,-0.0501097552478313,0.5976989269256592,0.4628022313117981,-0.0717601478099823,0.8031664490699768,0.5243659019470215,-0.0267608687281608,0.7183859348297119,0.4565678536891937,-0.0666863694787025,0.6563270092010498,0.4488482475280761,-0.0939538404345512,0.6114391684532166,0.457112580537796,-0.1094387099146843,0.8210636377334595,0.5652881860733032,-0.0416108407080173,0.7196797728538513,0.4836239814758301,-0.0865136384963989,0.6409610509872437,0.4918023943901062,-0.1110686361789703,0.5907418727874756,0.508529782295227,-0.1232367679476738,0.8149664402008057,0.6167420744895935,-0.0589153468608856,0.7009453177452087,0.5485748648643494,-0.1045989692211151,0.6223958134651184,0.5507089495658875,-0.1201205849647522,0.5745013952255249,0.5598578453063965,-0.1231068894267082,0.7879636287689209,0.6701676249504089,-0.0759457573294639,0.697114884853363,0.6123406887054443,-0.1098245680332183,0.6469811201095581,0.5988880395889282,-0.1209887713193893,0.6160150766372681,0.5916871428489685,-0.1233355402946472
2023-08-01 16:28:07.078255,13,384,0.98270845413208,-0.0130621818825602,0.1628981828689575,-0.087049201130867,-0.443359375,0.8603515625,0.17529296875,0.7186537981033325,0.8233708739280701,-8.378012807952473e-07,0.6631501317024231,0.6939748525619507,-0.0099400803446769,0.6434416174888611,0.5938495993614197,-0.0280897133052349,0.6194183230400085,0.5235596299171448,-0.0492615289986133,0.5976314544677734,0.4701979160308838,-0.0717990770936012,0.8048513531684875,0.5259374380111694,-0.0272142644971609,0.7230621576309204,0.4587826132774353,-0.0675361007452011,0.6630074381828308,0.445247620344162,-0.0964916795492172,0.6155883073806763,0.4483799338340759,-0.1133091524243354,0.8235554695129395,0.5677884221076965,-0.0428702645003795,0.7215551733970642,0.4890652298927307,-0.0880395025014877,0.6425111293792725,0.496363490819931,-0.1142338886857032,0.5904473662376404,0.5114843249320984,-0.1279223263263702,0.8174600601196289,0.6203713417053223,-0.0607377775013446,0.7034712433815002,0.5533149838447571,-0.1070535853505134,0.6243222951889038,0.5561197996139526,-0.1238341853022575,0.5746055245399475,0.5652539730072021,-0.1277668476104736,0.7899594902992249,0.6749929785728455,-0.0781411603093147,0.6987219452857971,0.616922914981842,-0.1125848814845085,0.646754801273346,0.6028106212615967,-0.1238500848412513,0.6132926344871521,0.5944794416427612,-0.1263896524906158
2023-08-01 16:28:07.143294,14,385,0.9832183122634888,-0.0129086235538125,0.1601283550262451,-0.0864516496658325,-0.40625,0.87548828125,0.169921875,0.718363344669342,0.8243671655654907,-8.542731961824757e-07,0.6638305187225342,0.6924750804901123,-0.0116799660027027,0.6460148096084595,0.592397928237915,-0.0302665345370769,0.6237798929214478,0.5213345289230347,-0.0515860617160797,0.601848304271698,0.4682312607765198,-0.0738885328173637,0.8084878921508789,0.5270998477935791,-0.0266936011612415,0.7231795787811279,0.4597068428993225,-0.0673692375421524,0.6622952818870544,0.4466612339019775,-0.0960405170917511,0.6155715584754944,0.4502323269844055,-0.1123498678207397,0.8272058963775635,0.5691866874694824,-0.0412890873849391,0.720848023891449,0.4911850690841675,-0.0872198492288589,0.6420257091522217,0.5006909370422363,-0.11319500207901,0.5908424258232117,0.5165616869926453,-0.1262970566749572,0.8210186958312988,0.6218319535255432,-0.0583519898355007,0.7035609483718872,0.5559511184692383,-0.1052340641617775,0.6251540780067444,0.56028151512146,-0.1215208023786544,0.5762242078781128,0.5689771175384521,-0.1246584355831146,0.7933152914047241,0.6759942173957825,-0.0751734748482704,0.7007042765617371,0.6185505986213684,-0.1094991266727447,0.6499945521354675,0.6060004234313965,-0.1205146685242652,0.6180325746536255,0.5974030494689941,-0.1225873082876205
2023-08-01 16:28:07.206256,15,386,0.9834406971931458,-0.0135543262585997,0.1596695929765701,-0.084655113518238,-0.4091796875,0.87548828125,0.20654296875,0.7183542251586914,0.8228352069854736,-8.427712145930855e-07,0.6665330529212952,0.6910306215286255,-0.011551035568118,0.6501457691192627,0.5923307538032532,-0.0294924098998308,0.6289078593254089,0.5219778418540955,-0.0505341663956642,0.6056239604949951,0.4688912034034729,-0.0728927999734878,0.8099473118782043,0.5229809284210205,-0.0230922568589448,0.7283523082733154,0.4625492990016937,-0.063468761742115,0.6708113551139832,0.4484379887580871,-0.0937321707606315,0.6239702105522156,0.4496052861213684,-0.1111747026443481,0.8296624422073364,0.5664546489715576,-0.0379893518984317,0.7262232303619385,0.4971184134483337,-0.0832196548581123,0.6477081775665283,0.5048786997795105,-0.1111021265387535,0.594120979309082,0.5195019841194153,-0.125433012843132,0.8246928453445435,0.6217570304870605,-0.0555024780333042,0.7098634839057922,0.5612514019012451,-0.1030246764421463,0.6303169131278992,0.5652859210968018,-0.1209981068968772,0.5789700746536255,0.5742663145065308,-0.124632142484188,0.7981456518173218,0.6792658567428589,-0.0727527365088462,0.7055492997169495,0.6219377517700195,-0.1080208197236061,0.6540002226829529,0.6093847155570984,-0.1191864162683487,0.6201955080032349,0.6014904975891113,-0.1208354085683822
2023-08-01 16:28:07.267247,16,387,0.9834434390068054,-0.013060949742794,0.1600377261638641,-0.0840024724602699,-0.412109375,0.8740234375,0.1591796875,0.7170091867446899,0.8204088807106018,-8.390861125917581e-07,0.6666668653488159,0.6918480396270752,-0.0143610527738928,0.648391604423523,0.5927987694740295,-0.0343790501356124,0.6254860758781433,0.5216577053070068,-0.0567522533237934,0.6018437147140503,0.4688789248466491,-0.0800434276461601,0.8106095790863037,0.5264270305633545,-0.0305876266211271,0.7299452424049377,0.4615110158920288,-0.0736271068453788,0.670922040939331,0.4485158920288086,-0.1031181067228317,0.6238431334495544,0.451265811920166,-0.1194720119237899,0.8305625915527344,0.5704805254936218,-0.0445501804351806,0.7264882922172546,0.4946168065071106,-0.0939787551760673,0.6454781889915466,0.5080642104148865,-0.1200367584824562,0.593159556388855,0.5271577835083008,-0.1316999942064285,0.8254822492599487,0.6255624890327454,-0.0613318234682083,0.7081007361412048,0.5620173811912537,-0.1123743280768394,0.6270456910133362,0.5671350955963135,-0.1289334744215011,0.5767180919647217,0.5770387649536133,-0.130428746342659,0.7987409830093384,0.6821223497390747,-0.0778756439685821,0.7084980010986328,0.6233586072921753,-0.1151326745748519,0.6569992899894714,0.6088977456092834,-0.1263668835163116,0.6239936947822571,0.5999555587768555,-0.1275178492069244
2023-08-01 16:28:07.325230,17,388,0.983735740184784,-0.0127279479056596,0.1585742980241775,-0.0834044367074966,-0.3779296875,0.87744140625,0.19140625,0.716956377029419,0.8185200691223145,-8.342855153387063e-07,0.6651005148887634,0.690036952495575,-0.0146451368927955,0.6467118859291077,0.5904791951179504,-0.0339460708200931,0.6239856481552124,0.5193133354187012,-0.055328469723463,0.6050390005111694,0.4696574807167053,-0.0777148902416229,0.8099550008773804,0.5223259925842285,-0.0286927204579114,0.7277660369873047,0.4606678485870361,-0.0687740296125412,0.6692928671836853,0.4471046924591064,-0.0972580388188362,0.6225990056991577,0.449743390083313,-0.113506019115448,0.8297351598739624,0.5670713186264038,-0.0418579839169979,0.7275993227958679,0.4932428002357483,-0.0883294120430946,0.6472452878952026,0.5032005310058594,-0.1142918244004249,0.593935489654541,0.5211200714111328,-0.1264728605747223,0.8244903087615967,0.6228308081626892,-0.0576384142041206,0.7092644572257996,0.5604733824729919,-0.1062182188034057,0.6290194392204285,0.5637193918228149,-0.1231322884559631,0.5782017111778259,0.5733914375305176,-0.1254901140928268,0.7973259091377258,0.6799365878105164,-0.0732509046792984,0.7062870860099792,0.6217928528785706,-0.1088820695877075,0.6538144946098328,0.6066362261772156,-0.1198149174451828,0.6193456649780273,0.5976671576499939,-0.1211143285036087
2023-08-01 16:28:07.387996,18,389,0.9834861159324646,-0.0130102867260575,0.1598437577486038,-0.0838796645402908,-0.41259765625,0.87255859375,0.1728515625,0.7141482830047607,0.8139554262161255,-8.251446388385375e-07,0.6645177602767944,0.6857063174247742,-0.0168379414826631,0.6468738913536072,0.5855551958084106,-0.0370589084923267,0.6235036253929138,0.5141027569770813,-0.0592151209712028,0.602627158164978,0.4688986539840698,-0.0823774337768554,0.8088887929916382,0.5197746157646179,-0.0307438466697931,0.7293912768363953,0.4588408470153808,-0.0722387954592704,0.6698777079582214,0.4500781297683716,-0.1014568582177162,0.6238340139389038,0.4556929767131805,-0.1181719899177551,0.8287692070007324,0.5659717321395874,-0.0432627946138381,0.7275540232658386,0.4928196370601654,-0.0917701870203018,0.6462548971176147,0.5045010447502136,-0.1185912415385246,0.5933955907821655,0.5231087803840637,-0.1309687495231628,0.8236214518547058,0.6226701140403748,-0.0586755126714706,0.7103846073150635,0.5595822334289551,-0.1093672066926956,0.6293208599090576,0.562339723110199,-0.1274707466363906,0.5780661106109619,0.5727748870849609,-0.1301017701625824,0.7971601486206055,0.6803218722343445,-0.0739684402942657,0.7078253030776978,0.621100664138794,-0.1115808337926864,0.6556966304779053,0.6060798168182373,-0.1237707212567329,0.621545135974884,0.5979018807411194,-0.1256200522184372
2023-08-01 16:28:07.453645,19,390,0.9833348393440248,-0.0130562679842114,0.1606643795967102,-0.0840789079666137,-0.3984375,0.87841796875,0.18212890625,0.7153062224388123,0.8154242038726807,-8.373169748665532e-07,0.6655083894729614,0.6871331334114075,-0.0148340808227658,0.6482991576194763,0.588663637638092,-0.0346711538732051,0.6265226006507874,0.5169867873191833,-0.0567992515861988,0.6047232747077942,0.4651916325092315,-0.0800807625055313,0.8079310655593872,0.52203768491745,-0.030206685885787,0.732103168964386,0.458794891834259,-0.0719208046793937,0.6734645366668701,0.4462699294090271,-0.1016958057880401,0.6266107559204102,0.4489125609397888,-0.1185359880328178,0.8279665112495422,0.5670949816703796,-0.0433003678917884,0.7287453413009644,0.4941927194595337,-0.0905467420816421,0.6477096676826477,0.5038692951202393,-0.1167490184307098,0.5937681198120117,0.520825982093811,-0.1288380622863769,0.822918176651001,0.6231417059898376,-0.0590727776288986,0.7085394859313965,0.5634427070617676,-0.1076535135507583,0.629448652267456,0.5663626790046692,-0.1246828511357307,0.5792332887649536,0.5758180618286133,-0.1270491331815719,0.7958909869194031,0.680188775062561,-0.0747283324599266,0.7060331702232361,0.6244540810585022,-0.1100765615701675,0.6550511121749878,0.6093101501464844,-0.1210825070738792,0.6214509010314941,0.6001310348510742,-0.1224360689520835
2023-08-01 16:28:07.518818,20,391,0.9829944372177124,-0.0138287460431456,0.1645987927913665,-0.0802366882562637,-0.54052734375,0.8974609375,0.23046875,0.7161172032356262,0.8164149522781372,-8.124616783788952e-07,0.6646045446395874,0.687070369720459,-0.0164484549313783,0.6469054222106934,0.5881519913673401,-0.0374714508652687,0.6245154142379761,0.5164058208465576,-0.0605803988873958,0.6058393120765686,0.4680452942848205,-0.0846926495432853,0.8089180588722229,0.5215221047401428,-0.0317947082221508,0.732517659664154,0.4591839909553528,-0.0742035508155822,0.6729422807693481,0.4475692212581634,-0.1043661311268806,0.6258805990219116,0.4513032436370849,-0.1216818019747734,0.8289327621459961,0.5672087669372559,-0.0448538735508918,0.7321450114250183,0.4928508996963501,-0.0928641557693481,0.6515882015228271,0.4999017715454101,-0.1194822937250137,0.5982716083526611,0.5156307220458984,-0.1321788877248764,0.8237075805664062,0.6235812902450562,-0.0607755966484546,0.7121675610542297,0.5610381960868835,-0.1100223585963249,0.6326871514320374,0.5617241263389587,-0.1271687448024749,0.5823541879653931,0.5710187554359436,-0.1298750638961792,0.7966104745864868,0.6813018321990967,-0.0767577141523361,0.707180380821228,0.6232590675354004,-0.1127681285142898,0.6558936834335327,0.6076179146766663,-0.1240493804216384,0.6222484707832336,0.599454939365387,-0.1257414519786834
2023-08-01 16:28:07.577988,21,392,0.9831920266151428,-0.0146916666999459,0.1648198068141937,-0.0771498382091522,-0.2890625,0.85595703125,0.13818359375,0.7155083417892456,0.8170362710952759,-8.232751724790432e-07,0.6645870208740234,0.6873367428779602,-0.0151763521134853,0.6472896337509155,0.5884771347045898,-0.035334326326847,0.6250824928283691,0.5169100165367126,-0.0578702762722969,0.6055089235305786,0.4681126475334167,-0.0815477073192596,0.8086655139923096,0.5224161744117737,-0.029591554775834,0.7321853041648865,0.4597662091255188,-0.0714680776000022,0.6729835271835327,0.4472236037254333,-0.1015910431742668,0.6260208487510681,0.4499490857124328,-0.1188746318221092,0.8287566900253296,0.567373514175415,-0.0430381223559379,0.7315834760665894,0.4931544661521911,-0.0906547904014587,0.6507551074028015,0.5005496144294739,-0.1175055503845214,0.5966764688491821,0.516485333442688,-0.1302583366632461,0.8236901164054871,0.623067319393158,-0.0592698976397514,0.7116683721542358,0.5609158277511597,-0.1080973818898201,0.6322152614593506,0.5623602867126465,-0.1254136115312576,0.5816522836685181,0.5717124938964844,-0.1281714439392089,0.7966355085372925,0.6800446510314941,-0.0754749253392219,0.7070242166519165,0.6224938631057739,-0.1108720675110817,0.6558264493942261,0.6071496605873108,-0.1219638586044311,0.6220473051071167,0.5987722873687744,-0.1235646456480026
2023-08-01 16:28:07.640378,22,393,0.98390793800354,-0.0153542030602693,0.1631094068288803,-0.0713086873292923,-0.3798828125,0.89794921875,0.24169921875,0.7154781222343445,0.8173004984855652,-8.484062163915951e-07,0.6636307239532471,0.6891013383865356,-0.015672517940402,0.6455320119857788,0.5892915725708008,-0.035870224237442,0.6232243776321411,0.517265796661377,-0.0584170706570148,0.6075772047042847,0.4671985805034637,-0.081838309764862,0.8087220191955566,0.5235748887062073,-0.0294624436646699,0.734243631362915,0.4589605927467346,-0.0717155113816261,0.6752743721008301,0.4473212659358978,-0.1016209498047828,0.6285907626152039,0.4512487947940826,-0.1185649707913398,0.8289096355438232,0.5691860914230347,-0.0425018481910228,0.7301334738731384,0.4938745498657226,-0.0911742821335792,0.6483596563339233,0.5036147832870483,-0.1182587221264839,0.5946767330169678,0.5205387473106384,-0.1307415217161178,0.8239561319351196,0.6245302557945251,-0.0584359280765056,0.7114028930664062,0.5604028701782227,-0.1081914901733398,0.6322070360183716,0.5626699924468994,-0.1255268007516861,0.5821550488471985,0.5720399618148804,-0.1279376298189163,0.7967499494552612,0.6804530620574951,-0.0742956846952438,0.7065883874893188,0.6209356188774109,-0.1105358302593231,0.6556965708732605,0.6055629849433899,-0.1218815445899963,0.6225773096084595,0.5967479944229126,-0.1232967153191566
2023-08-01 16:28:07.708055,23,394,0.9844192266464232,-0.0151477912440896,0.1621100157499313,-0.0664052665233612,-0.54931640625,0.91748046875,0.203125,0.7130556702613831,0.8167529106140137,-8.36407593851618e-07,0.6603391766548157,0.6894329786300659,-0.0141313998028635,0.6443491578102112,0.5841251611709595,-0.0318478271365165,0.623709499835968,0.5075344443321228,-0.0515781268477439,0.609422504901886,0.4448121786117553,-0.071516677737236,0.8079518675804138,0.5278780460357666,-0.0266342926770448,0.7271484136581421,0.4542520642280578,-0.0662285313010215,0.6653306484222412,0.4412757754325866,-0.0943122282624244,0.6162561178207397,0.4449225068092346,-0.1101665049791336,0.8240804076194763,0.5647855997085571,-0.0390360727906227,0.7312180399894714,0.4735960066318512,-0.0823024585843086,0.6514341831207275,0.4701629281044006,-0.1079417243599891,0.5973352193832397,0.4798464179039001,-0.1212325170636177,0.816564679145813,0.6101270914077759,-0.0542235672473907,0.7069701552391052,0.5350916981697083,-0.0998513102531433,0.6280533671379089,0.5327194333076477,-0.1178415119647979,0.5788699984550476,0.5402354598045349,-0.1223408281803131,0.7878543138504028,0.6577873229980469,-0.0693494454026222,0.7005965113639832,0.5948161482810974,-0.1047336459159851,0.6503470540046692,0.5799073576927185,-0.1177686601877212,0.617836594581604,0.5729134678840637,-0.1209684237837791
2023-08-01 16:28:07.768537,24,395,0.9849668741226196,-0.0155195202678442,0.1597778499126434,-0.063799925148487,-0.283203125,0.88623046875,0.12548828125,0.7123145461082458,0.8141560554504395,-7.851922987356375e-07,0.6617997884750366,0.683843731880188,-0.0109594399109482,0.6466160416603088,0.5817877054214478,-0.0273011159151792,0.62558513879776,0.5077083706855774,-0.046498604118824,0.612226128578186,0.4482475221157074,-0.0657973662018776,0.8072785139083862,0.5327995419502258,-0.021556606516242,0.7330112457275391,0.456514835357666,-0.0599979795515537,0.6733489632606506,0.437638908624649,-0.0871398225426673,0.623086154460907,0.4361149072647095,-0.1020025312900543,0.8222519755363464,0.568416953086853,-0.0351402796804904,0.7355784177780151,0.4727668166160583,-0.0776431486010551,0.6570553779602051,0.4631184339523315,-0.1027309820055961,0.6004913449287415,0.46856290102005,-0.1150376945734024,0.8146711587905884,0.6105759143829346,-0.0514519251883029,0.7091105580329895,0.5339955687522888,-0.0963928699493408,0.6297309994697571,0.5290770530700684,-0.1136197969317436,0.5785020589828491,0.5333895087242126,-0.1170030981302261,0.7861073017120361,0.6538203954696655,-0.0675363689661026,0.7034894227981567,0.5909321308135986,-0.1007674410939216,0.6525219678878784,0.5740821957588196,-0.111973837018013,0.6179191470146179,0.5637432336807251,-0.1138817965984344
2023-08-01 16:28:07.824906,25,396,0.9854779243469238,-0.0164825357496738,0.1579538434743881,-0.0601009093225002,-0.39111328125,0.88916015625,0.25,0.7155116200447083,0.8175567984580994,-7.616984021296958e-07,0.6612867116928101,0.683508038520813,-0.0079149194061756,0.6464609503746033,0.5809223055839539,-0.0236256811767816,0.6255913972854614,0.5079660415649414,-0.042816013097763,0.6126929521560669,0.4486122727394104,-0.0626220852136612,0.8080960512161255,0.5323666930198669,-0.0182805806398391,0.7286525964736938,0.4565576910972595,-0.0556661784648895,0.6691852807998657,0.4358710646629333,-0.0832730829715728,0.618824303150177,0.4315711259841919,-0.0988812744617462,0.8228550553321838,0.5656008124351501,-0.0337470099329948,0.7371166348457336,0.4685401022434234,-0.0751898288726806,0.6601072549819946,0.4529012143611908,-0.1016980409622192,0.6036849021911621,0.4529181122779846,-0.1156789362430572,0.8145560622215271,0.605933427810669,-0.0515078492462635,0.7096827030181885,0.5261155962944031,-0.0954112038016319,0.6303860545158386,0.5199024677276611,-0.1135046631097793,0.5797960758209229,0.5233142375946045,-0.1181145086884498,0.7843085527420044,0.6473214626312256,-0.0687756463885307,0.6988487243652344,0.5822083950042725,-0.1008362919092178,0.6466719508171082,0.5650635361671448,-0.1117840409278869,0.6126295924186707,0.5547216534614563,-0.1140578240156173
2023-08-01 16:28:07.888005,26,397,0.9861821532249452,-0.017939705401659,0.1552058458328247,-0.0550832748413085,-0.35888671875,0.91650390625,0.13232421875,0.7111368775367737,0.8077471256256104,-7.192395514721284e-07,0.6574352979660034,0.6754347681999207,-0.0044433414004743,0.6448504328727722,0.5711486339569092,-0.0183072574436664,0.626605212688446,0.5018684267997742,-0.0365596488118171,0.6165828704833984,0.4474179148674011,-0.0554226376116275,0.8003731369972229,0.5239885449409485,-0.0106636593118309,0.725224494934082,0.4468627572059631,-0.0482755526900291,0.665813684463501,0.4241172671318054,-0.0778219848871231,0.6152370572090149,0.415448933839798,-0.095202624797821,0.815854012966156,0.5530927777290344,-0.0284146387130022,0.7366846799850464,0.4509204030036926,-0.0706130936741828,0.6621811985969543,0.4348295927047729,-0.0997214615345001,0.6063593029975891,0.4339924454689026,-0.1152436211705207,0.8089677095413208,0.5900272130966187,-0.0485778488218784,0.7119826078414917,0.5061652660369873,-0.0925806388258934,0.635830819606781,0.5009153485298157,-0.1125885695219039,0.5858610272407532,0.5025661587715149,-0.1184914335608482,0.7792428731918335,0.6277241706848145,-0.0680563747882843,0.6954636573791504,0.5619313716888428,-0.1002552211284637,0.6448280811309814,0.5460575222969055,-0.1122610941529274,0.6123721599578857,0.5346564650535583,-0.1155911609530448
2023-08-01 16:28:07.950055,27,398,0.9867871403694152,-0.0179859586060047,0.1526151448488235,-0.0513428896665573,-0.330078125,0.8798828125,0.25146484375,0.7113282084465027,0.81242436170578,-7.575485483357625e-07,0.6582494378089905,0.6769140362739563,0.0013291575014591,0.6453540325164795,0.5713585615158081,-0.0107399895787239,0.6262602210044861,0.5002065300941467,-0.028567710891366,0.6168226599693298,0.4437112212181091,-0.0475611537694931,0.8030299544334412,0.5265501141548157,-0.0032183609437197,0.7252780795097351,0.4465290904045105,-0.0388395264744758,0.6662564277648926,0.4178213477134704,-0.0680633261799812,0.6143018007278442,0.4045085310935974,-0.0852020755410194,0.8176743984222412,0.5545824766159058,-0.0232744608074426,0.7344986200332642,0.4493392407894134,-0.0624761208891868,0.659480094909668,0.4338871538639068,-0.0908545181155204,0.602357804775238,0.4362141788005829,-0.106302410364151,0.8100902438163757,0.5893570780754089,-0.0453784689307212,0.7113912105560303,0.5001369118690491,-0.0858363509178161,0.6350917816162109,0.4971610307693481,-0.1049732491374015,0.5844337344169617,0.5029873847961426,-0.110956884920597,0.7797181606292725,0.6243312358856201,-0.0664966404438018,0.6950932741165161,0.555515706539154,-0.0963770076632499,0.6441026926040649,0.5409953594207764,-0.1076531335711479,0.6103497743606567,0.5321885943412781,-0.110727734863758
2023-08-01 16:28:08.009316,28,399,0.986850380897522,-0.0181997418403625,0.1530321538448333,-0.0487455651164054,-0.375,0.88671875,0.2587890625,0.7122296094894409,0.8125324249267578,-7.560142876172904e-07,0.6554351449012756,0.6780296564102173,0.0047475667670369,0.6438568830490112,0.5720347762107849,-0.0054891831241548,0.6282517910003662,0.4995818138122558,-0.0222348570823669,0.6196924448013306,0.4409079551696777,-0.0400753729045391,0.7981788516044617,0.5251168608665466,0.0001470108545618,0.7249734401702881,0.4427545964717865,-0.0349902249872684,0.6651184558868408,0.4168035984039306,-0.0632421746850013,0.6135240793228149,0.4075712561607361,-0.0794022902846336,0.811862587928772,0.551513135433197,-0.0211255326867103,0.7332452535629272,0.4455733299255371,-0.0587387420237064,0.6594623923301697,0.4293347597122192,-0.0848502740263938,0.6041582226753235,0.4333570599555969,-0.0987734198570251,0.8034226894378662,0.5855078101158142,-0.0444876253604888,0.7072619199752808,0.495856910943985,-0.0836078599095344,0.6316419243812561,0.4925864636898041,-0.1007132157683372,0.582691490650177,0.4987247884273529,-0.1056002080440521,0.7727634906768799,0.6205434799194336,-0.066699780523777,0.6887286901473999,0.5517147779464722,-0.0953127369284629,0.638154149055481,0.5381481051445007,-0.105298213660717,0.6057854294776917,0.5305949449539185,-0.1075658574700355
2023-08-01 16:28:08.088512,29,400,0.9872013330459596,-0.0193830411881208,0.1514735370874405,-0.0459717661142349,-0.39013671875,0.8818359375,0.248046875,0.7120651006698608,0.8166074156761169,-7.5003453048339e-07,0.6556732654571533,0.6784619688987732,0.0084955981001257,0.6427969336509705,0.5702633261680603,0.0006507054786197,0.6248153448104858,0.4966490864753723,-0.0144288083538413,0.6184104681015015,0.4401699602603912,-0.0307148322463035,0.7966058850288391,0.5266126394271851,0.0068607446737587,0.721640944480896,0.4464102983474731,-0.023836176842451,0.663424551486969,0.4171363711357116,-0.0500537976622581,0.6129311323165894,0.4021189510822296,-0.0656779929995536,0.8091828227043152,0.551659345626831,-0.015532175078988,0.7278510332107544,0.4430670738220215,-0.0493309572339057,0.6561187505722046,0.4263244867324829,-0.0765829086303711,0.6006959080696106,0.4279878437519073,-0.092166006565094,0.8012642860412598,0.5839391350746155,-0.0394252501428127,0.7041639089584351,0.495218813419342,-0.0751177817583084,0.6306182146072388,0.4909648001194,-0.0942952707409858,0.580375611782074,0.4952801764011383,-0.1013958826661109,0.7712438702583313,0.6165919303894043,-0.0619000680744648,0.6908261775970459,0.5477386116981506,-0.0876126512885093,0.6415622234344482,0.5318065881729126,-0.0981267094612121,0.6063557863235474,0.5217674374580383,-0.1016076132655143
2023-08-01 16:28:08.158209,30,401,0.9874551296234132,-0.0210713911801576,0.1501394510269165,-0.044119443744421,-0.29248046875,0.94189453125,0.01611328125,0.7083496451377869,0.8094931840896606,-7.442941409863124e-07,0.6542434692382812,0.6784707903862,0.0116311013698577,0.6400781869888306,0.5732928514480591,0.0055568716488778,0.6179707646369934,0.5008771419525146,-0.0090122912079095,0.6014463305473328,0.4437366127967834,-0.0242742076516151,0.7889843583106995,0.5276690125465393,0.0162203572690486,0.7258698344230652,0.4391375184059143,-0.0128536811098456,0.6654888391494751,0.4132136106491089,-0.0397352501749992,0.6154100894927979,0.4061683416366577,-0.0562514923512935,0.8004730939865112,0.5484194159507751,-0.0070612700656056,0.7231902480125427,0.4333599805831909,-0.03641352429986,0.6529926657676697,0.4140664041042328,-0.0629094168543815,0.5992175936698914,0.4151389598846435,-0.0794634521007537,0.7923508882522583,0.5775911211967468,-0.0326637998223304,0.6992447972297668,0.4847213923931122,-0.0629026740789413,0.6291443109512329,0.4758958220481872,-0.0816488564014434,0.5790942907333374,0.4774478077888489,-0.0907033085823059,0.7637020945549011,0.6084480285644531,-0.0572405382990837,0.6886811852455139,0.5358501076698303,-0.0792672783136367,0.641028642654419,0.5124238133430481,-0.090473935008049,0.6049636602401733,0.4946493804454803,-0.0963283255696296
2023-08-01 16:28:08.214297,31,402,0.9877562522888184,-0.0222411844879388,0.1483650058507919,-0.0427862294018268,-0.423828125,0.88671875,0.298828125,0.7076600193977356,0.815263032913208,-7.759218760838849e-07,0.6499229073524475,0.6796265244483948,0.0162370800971984,0.6381214261054993,0.573074221611023,0.0133396834135055,0.6202053427696228,0.4984244108200073,0.0010734611423686,0.6088096499443054,0.4388953447341919,-0.0118979774415493,0.7855246067047119,0.5275784134864807,0.0211165752261877,0.7227120399475098,0.4394177198410034,-0.0052728685550391,0.6642717719078064,0.4158899784088135,-0.0290754735469818,0.615563690662384,0.4114122986793518,-0.0432841889560222,0.798258364200592,0.5472793579101562,-0.0037809258792549,0.722758412361145,0.4320494532585144,-0.0299737360328435,0.6539614200592041,0.4127555787563324,-0.0531024411320686,0.6011868119239807,0.4148337244987488,-0.0672438070178031,0.7909215688705444,0.5768821835517883,-0.0306556895375251,0.6969326734542847,0.4820018410682678,-0.0585548467934131,0.6274996399879456,0.4741925299167633,-0.0744720920920372,0.5794091820716858,0.4767085313796997,-0.0816278755664825,0.761335551738739,0.6085999011993408,-0.0561850182712078,0.6830770373344421,0.5340272784233093,-0.0765133872628212,0.6367008686065674,0.5120550990104675,-0.0857677236199379,0.6032024621963501,0.4961487948894501,-0.0900064930319786
2023-08-01 16:28:08.277156,32,403,0.9884403347969056,-0.0225615762174129,0.1439503729343414,-0.0418912209570407,-0.2939453125,0.89794921875,0.224609375,0.7092087864875793,0.8176126480102539,-7.676649147470016e-07,0.6502717733383179,0.6824309229850769,0.0155068216845393,0.6360966563224792,0.5753239989280701,0.0113935684785246,0.6166204214096069,0.4995895326137543,-0.0021786144934594,0.6060028672218323,0.4387167692184448,-0.0164130926132202,0.7844715714454651,0.526639997959137,0.0203043334186077,0.7213350534439087,0.436186134815216,-0.0070941448211669,0.6620005369186401,0.4118768870830536,-0.0317287221550941,0.6140462160110474,0.4079076647758484,-0.0464558526873588,0.7974821925163269,0.5468003749847412,-0.0047877682372927,0.7223334908485413,0.428261786699295,-0.0323045030236244,0.6523231863975525,0.4117798805236816,-0.0562186650931835,0.5998123288154602,0.4174621403217315,-0.0706150010228157,0.7906894087791443,0.5764508843421936,-0.0319789014756679,0.6968599557876587,0.4805535972118377,-0.0605621002614498,0.6262273192405701,0.4739494323730469,-0.0772550776600837,0.5775279402732849,0.4789193272590637,-0.0848109722137451,0.7618519067764282,0.6082213521003723,-0.0578558631241321,0.6827845573425293,0.5334330201148987,-0.0781972631812095,0.6345500349998474,0.5109899044036865,-0.0878083333373069,0.5993422269821167,0.4949946999549866,-0.0924029871821403
2023-08-01 16:28:08.339319,33,404,0.9896714091300964,-0.0227920152246952,0.1359029561281204,-0.0395151413977146,-0.2314453125,0.91796875,0.205078125,0.7100220322608948,0.8300029039382935,-7.397872536785144e-07,0.6471767425537109,0.6960809230804443,0.0229361914098262,0.6342481374740601,0.5894481539726257,0.0236959178000688,0.6134783625602722,0.5130029320716858,0.0136419152840971,0.5944710373878479,0.4520867168903351,0.0026967481244355,0.7744982838630676,0.5369961857795715,0.0337576307356357,0.7150124311447144,0.4460646510124206,0.013318371027708,0.656484842300415,0.4207854866981506,-0.0085563585162162,0.6084654331207275,0.4138977527618408,-0.0223003178834915,0.7879462242126465,0.5512203574180603,0.0068699847906827,0.7172536849975586,0.4310908615589142,-0.011228191666305,0.6484236121177673,0.4094557762145996,-0.0307945907115936,0.5955917835235596,0.4104994833469391,-0.0439610369503498,0.7816903591156006,0.5770807266235352,-0.0220164619386196,0.6900530457496643,0.4777343571186065,-0.0405902564525604,0.6200448870658875,0.4635572135448456,-0.0541504099965095,0.5696801543235779,0.4629911184310913,-0.0624801851809024,0.7525371313095093,0.6053130626678467,-0.0497091710567474,0.6757497191429138,0.5290680527687073,-0.061347983777523,0.6276942491531372,0.5039758086204529,-0.067760095000267,0.5910839438438416,0.4852321743965149,-0.0723538473248481
2023-08-01 16:28:08.402505,34,405,0.9906580448150636,-0.0233228132128715,0.1294828057289123,-0.0358733795583248,-0.37744140625,0.88818359375,0.3583984375,0.7114327549934387,0.8326706886291504,-7.524145075876731e-07,0.6488003134727478,0.698178231716156,0.0204811803996562,0.6334121227264404,0.5920798778533936,0.0181361902505159,0.6119022369384766,0.516251266002655,0.0056516365148127,0.5945815443992615,0.455418050289154,-0.0072488719597458,0.7770547866821289,0.5376386642456055,0.0263136681169271,0.7119596600532532,0.4452294707298279,0.0023777377791702,0.6512088775634766,0.4227487444877624,-0.0211992003023624,0.6029020547866821,0.4208153486251831,-0.0357229262590408,0.7901777625083923,0.551768958568573,-0.0002907703456003,0.7151865363121033,0.427211731672287,-0.0204359963536262,0.6462406516075134,0.4098316133022308,-0.0391049273312091,0.59449303150177,0.4140900075435638,-0.051458578556776,0.7833887338638306,0.5779249668121338,-0.0288633462041616,0.692675769329071,0.4720352292060852,-0.0479534715414047,0.6233837604522705,0.4563770294189453,-0.0583755932748317,0.572737991809845,0.4546259641647339,-0.0646776780486106,0.7524892091751099,0.6084244251251221,-0.0566412918269634,0.6738834381103516,0.5306327939033508,-0.0699934735894203,0.6245837211608887,0.5048258304595947,-0.0754907801747322,0.5864936709403992,0.4856508374214172,-0.078894019126892
2023-08-01 16:28:08.459660,35,406,0.9924595355987548,-0.0227385815232992,0.1162666529417038,-0.0314490534365177,-0.2021484375,0.9013671875,0.20361328125,0.7158979177474976,0.840217113494873,-7.563460826531809e-07,0.6497742533683777,0.7054263353347778,0.0245357695966959,0.6342321634292603,0.5985775589942932,0.0248912870883941,0.6130151748657227,0.5209075212478638,0.0141375549137592,0.594093382358551,0.4601024985313415,0.0026201102882623,0.7744696140289307,0.5384397506713867,0.034098170697689,0.707979679107666,0.4490044116973877,0.0139287272468209,0.6483826637268066,0.4258464574813843,-0.0079458244144916,0.6000936627388,0.4209271371364593,-0.0216174405068159,0.7881323099136353,0.5508562326431274,0.0064932163804769,0.7116290330886841,0.4298100471496582,-0.0087369736284017,0.6437755227088928,0.4106851816177368,-0.0254192966967821,0.5920300483703613,0.411683440208435,-0.0373375006020069,0.7822173833847046,0.5765835046768188,-0.0229704119265079,0.6894981861114502,0.4720355570316314,-0.0379018746316432,0.6205758452415466,0.4563614428043365,-0.0471193827688694,0.5700057148933411,0.4544347524642944,-0.0536112077534198,0.7520673274993896,0.6064968705177307,-0.0515578277409076,0.6712758541107178,0.5293278098106384,-0.0612363368272781,0.621692419052124,0.5040057301521301,-0.0652477517724037,0.5835724472999573,0.4854127764701843,-0.068326748907566
2023-08-01 16:28:08.525843,36,407,0.993703067302704,-0.0216842275112867,0.1062317565083503,-0.0282613392919302,-0.32861328125,0.935546875,0.13330078125,0.7163407802581787,0.8493953943252563,-7.819220400051563e-07,0.6483991146087646,0.7186734676361084,0.0252205803990364,0.6334847807884216,0.6095278263092041,0.0270140394568443,0.6096645593643188,0.5313031077384949,0.0174566600471735,0.5844521522521973,0.4709775149822235,0.0075240121223032,0.7659074068069458,0.5422365665435791,0.0371728353202343,0.7014119625091553,0.4505273699760437,0.018641673028469,0.640703558921814,0.4315155744552612,-0.0019876526203006,0.5934662818908691,0.4318651556968689,-0.0146456165239214,0.7800963521003723,0.5512847304344177,0.0103875258937478,0.702152669429779,0.4323532581329345,-0.0024078872520476,0.634429931640625,0.417328417301178,-0.0171977989375591,0.5828952193260193,0.4248476028442383,-0.0276339519768953,0.7760189771652222,0.574275553226471,-0.0183599479496479,0.6827404499053955,0.4715803265571594,-0.0293449945747852,0.6153634786605835,0.4552954137325287,-0.0364699512720108,0.5655953884124756,0.4556321799755096,-0.0419800356030464,0.7483144998550415,0.6030371785163879,-0.0465565398335456,0.6661294102668762,0.5289412140846252,-0.0529605075716972,0.6162864565849304,0.5023295283317566,-0.0559275597333908,0.5771455764770508,0.4852081537246704,-0.0584529861807823
2023-08-01 16:28:08.581761,37,408,0.9948106408119202,-0.0217417478561401,0.096074990928173,-0.0254674199968576,-0.35400390625,0.9150390625,0.333984375,0.7154118418693542,0.8522971868515015,-7.744238246232271e-07,0.6481959819793701,0.724652886390686,0.0259727500379085,0.6346954703330994,0.6126248240470886,0.0289923474192619,0.6127654910087585,0.5351209044456482,0.0201799683272838,0.5882425308227539,0.4756779968738556,0.0110798608511686,0.7609357833862305,0.5389814376831055,0.0424988567829132,0.6977835893630981,0.4522927105426788,0.0236124489456415,0.6387040019035339,0.4331079125404358,0.0017607683548703,0.5914276242256165,0.4317105412483215,-0.0116215394809842,0.7751697897911072,0.5481032729148865,0.0154554219916462,0.6968739032745361,0.436632752418518,0.0021019510459154,0.6305099725723267,0.422555923461914,-0.0145319318398833,0.5788325071334839,0.4293645620346069,-0.0259737148880958,0.7727280259132385,0.5711050033569336,-0.0139281302690505,0.6813326478004456,0.4719455242156982,-0.0255711730569601,0.6147984862327576,0.4534321427345276,-0.0341846160590648,0.5642659068107605,0.4518349766731262,-0.0403309538960456,0.7467091679573059,0.6003087162971497,-0.0427499525249004,0.6636865139007568,0.5293024182319641,-0.0486717447638511,0.6130073666572571,0.5030852556228638,-0.0518644154071807,0.5725662708282471,0.4865439236164093,-0.05457404255867
2023-08-01 16:28:08.652198,38,409,0.995605170726776,-0.0209520496428012,0.0883828699588775,-0.0228004641830921,-0.19482421875,0.9228515625,0.2861328125,0.7185325622558594,0.8553957939147949,-8.248005087807542e-07,0.6475276350975037,0.7296218276023865,0.0285200700163841,0.6342244744300842,0.6152341365814209,0.0335144251585006,0.611198365688324,0.5371716022491455,0.0254722144454717,0.5845741033554077,0.4769608974456787,0.0168568100780248,0.7576026916503906,0.5377054214477539,0.0486805103719234,0.6945270895957947,0.4520020484924316,0.0295373685657978,0.633989691734314,0.4367940425872803,0.0067247194238007,0.586472749710083,0.4401017427444458,-0.0073256460018455,0.7726714611053467,0.5469442009925842,0.0194938126951456,0.6919127106666565,0.4389175176620483,0.0049896533600986,0.6236463189125061,0.4292168021202087,-0.0140176890417933,0.5716496706008911,0.4386603832244873,-0.0267280470579862,0.7717564105987549,0.5700855255126953,-0.0121503444388508,0.6816270351409912,0.4722254276275635,-0.0251557007431983,0.6134703159332275,0.4563143253326416,-0.0352621749043464,0.5617886185646057,0.4558151662349701,-0.0419186390936374,0.7481101751327515,0.5999983549118042,-0.0430443100631237,0.6650545001029968,0.5287221670150757,-0.049999076873064,0.6140605211257935,0.5050443410873413,-0.0535174943506717,0.5734155774116516,0.491162896156311,-0.0560507029294967
2023-08-01 16:28:08.721484,39,410,0.99592125415802,-0.0211172644048929,0.0850850790739059,-0.0213429201394319,-0.31787109375,0.91455078125,0.255859375,0.7203681468963623,0.8634347915649414,-8.554209784961131e-07,0.6466099619865417,0.7433159351348877,0.0305983237922191,0.6347387433052063,0.6313672661781311,0.0390001572668552,0.6152375936508179,0.5553562641143799,0.0339678786695003,0.5903688073158264,0.4966431856155395,0.0281835012137889,0.7497141361236572,0.5492758750915527,0.05668755620718,0.689825713634491,0.4652406573295593,0.0395285040140152,0.6308205127716064,0.4508270025253296,0.0170044675469398,0.5824772119522095,0.4544064104557037,0.003549963934347,0.7648959755897522,0.5553049445152283,0.0280654858797788,0.6830393671989441,0.4564561247825622,0.0157014783471822,0.616636335849762,0.445786714553833,-0.004599489737302,0.5647190809249878,0.4546375572681427,-0.0182419326156377,0.7659549117088318,0.5759420394897461,-0.0031745913438498,0.6754958629608154,0.4861992001533508,-0.0144343478605151,0.6098743677139282,0.4688065648078918,-0.0261508021503686,0.558918833732605,0.4682492017745971,-0.033905629068613,0.7472226619720459,0.6043960452079773,-0.0335795879364013,0.6641533970832825,0.5385957956314087,-0.0383222289383411,0.6146724820137024,0.5159153938293457,-0.0415242239832878,0.5752466320991516,0.5042552351951599,-0.0438343957066535
2023-08-01 16:28:08.791852,40,411,0.9960323572158812,-0.0204145070165395,0.0838250443339347,-0.0218237172812223,-0.3330078125,0.931640625,0.2236328125,0.7176497578620911,0.8601467609405518,-8.066078862611903e-07,0.6472932696342468,0.7406186461448669,0.0370393954217433,0.6354799866676331,0.6309548616409302,0.0495536774396896,0.6139547228813171,0.5587416291236877,0.0469975844025611,0.5895519852638245,0.500914990901947,0.0431197211146354,0.7485992312431335,0.5518778562545776,0.0674735680222511,0.688886284828186,0.4720814228057861,0.0545791685581207,0.6327813863754272,0.4513455629348755,0.0352231338620185,0.5864441394805908,0.4464260339736938,0.0228704567998647,0.7638943791389465,0.5565444231033325,0.0346997193992137,0.6852414608001709,0.4557931125164032,0.0227020476013422,0.6186662912368774,0.446094274520874,0.0035114143975079,0.5664123892784119,0.454475849866867,-0.0082405507564544,0.76473468542099,0.5753011107444763,-0.0004892101278528,0.6766903400421143,0.4813885688781738,-0.0129059087485075,0.6086512804031372,0.4684829711914062,-0.0233818981796503,0.556533694267273,0.4686131477355957,-0.0289863590151071,0.7447988390922546,0.6030750870704651,-0.0342445150017738,0.6611999273300171,0.5331964492797852,-0.0408250726759433,0.6085482239723206,0.5100955963134766,-0.0435156933963298,0.5665364861488342,0.4949914515018463,-0.0446102023124694
2023-08-01 16:28:08.875507,41,412,0.9960883855819702,-0.0195984076708555,0.0833291709423065,-0.0219087023288011,-0.32421875,0.9287109375,0.22705078125,0.7166012525558472,0.8577920198440552,-8.28191389246058e-07,0.6469986438751221,0.7413947582244873,0.0334600135684013,0.6339187026023865,0.6311430931091309,0.0437793508172035,0.6123490333557129,0.5580059289932251,0.0397969111800193,0.5862694382667542,0.5004259347915649,0.0347738415002822,0.7486481666564941,0.5492197275161743,0.0603792145848274,0.6895465850830078,0.4678391218185425,0.0445411950349807,0.6325135827064514,0.450227677822113,0.0236750021576881,0.5856050252914429,0.4506524503231048,0.0107749588787555,0.7633621096611023,0.555984616279602,0.0292184557765722,0.6820869445800781,0.4564526081085205,0.0151774678379297,0.6142662167549133,0.4489297866821289,-0.0042977170087397,0.5619359016418457,0.4610176086425781,-0.0161105431616306,0.7637931108474731,0.5769491791725159,-0.0045200628228485,0.6730436086654663,0.4837870597839355,-0.0182580091059207,0.6058714389801025,0.4725973010063171,-0.0282593686133623,0.5554250478744507,0.4752293527126312,-0.0333537422120571,0.7441935539245605,0.6070348620414734,-0.0371494404971599,0.6613836288452148,0.5373431444168091,-0.0452839657664299,0.6108483672142029,0.5138224363327026,-0.0485795214772224,0.5714290142059326,0.4995330572128296,-0.0497905611991882
2023-08-01 16:28:08.935603,42,413,0.9960442781448364,-0.0189897306263446,0.0840270742774009,-0.021788015961647,-0.25244140625,0.94287109375,0.1953125,0.7183749675750732,0.856189489364624,-8.269855129583448e-07,0.647685170173645,0.7428761124610901,0.0342130549252033,0.6346006393432617,0.6361914277076721,0.0452801026403903,0.6145464777946472,0.5639821290969849,0.0425171665847301,0.5914356708526611,0.5068507194519043,0.0386857390403747,0.7482752799987793,0.553068995475769,0.0598808415234088,0.690172016620636,0.4724709093570709,0.0461814999580383,0.6333966255187988,0.4558705985546112,0.0267686918377876,0.5863670706748962,0.4561294317245483,0.0147292437031865,0.7636860013008118,0.5582607388496399,0.0296817980706691,0.6821534037590027,0.4618886709213257,0.0187646597623825,0.6158102750778198,0.4526112675666809,0.0006373880896717,0.5648459196090698,0.4626064896583557,-0.0111449845135211,0.7649469375610352,0.5786386132240295,-0.0027583527844399,0.674349844455719,0.4883934259414673,-0.0144084217026829,0.608363687992096,0.4747445583343506,-0.0243493411689996,0.5580058693885803,0.4760781526565552,-0.0302147883921861,0.7466976046562195,0.6075882911682129,-0.0338686667382717,0.6645366549491882,0.5410256385803223,-0.0403066948056221,0.614232063293457,0.5187110900878906,-0.0430213585495948,0.5741010904312134,0.5060851573944092,-0.0443008430302143
2023-08-01 16:28:08.995744,43,414,0.9959306120872498,-0.0191449839621782,0.0854841768741607,-0.0211712252348661,-0.17333984375,0.900390625,0.2958984375,0.7192246317863464,0.8536908626556396,-8.283746524284652e-07,0.6499359011650085,0.7417339086532593,0.0329177267849445,0.6353142857551575,0.6344970464706421,0.0425107926130294,0.6136012673377991,0.562455415725708,0.0383046194911003,0.5892972946166992,0.5044209361076355,0.0329506434500217,0.748042106628418,0.5531042814254761,0.056805845350027,0.6865909695625305,0.4764343500137329,0.0405038483440876,0.628564715385437,0.460542768239975,0.019527968019247,0.5813068747520447,0.4617682099342346,0.006589587777853,0.7635908722877502,0.5588659048080444,0.0257698576897382,0.6843651533126831,0.4603615999221802,0.0122637571766972,0.617225170135498,0.4528430700302124,-0.0056058759801089,0.5657041072845459,0.4648817181587219,-0.0166035927832126,0.7639946937561035,0.5793176293373108,-0.0076589141972362,0.6766752600669861,0.485301673412323,-0.0210686605423688,0.6098761558532715,0.4740040898323059,-0.0295471455901861,0.5601711273193359,0.4767534732818603,-0.0339865460991859,0.7435364127159119,0.6088917255401611,-0.0399456694722175,0.6616703867912292,0.5395686030387878,-0.0485479570925235,0.6105188131332397,0.5162032842636108,-0.051173523068428,0.5707160234451294,0.5018447637557983,-0.0519799217581748
2023-08-01 16:28:09.064731,44,415,0.995539367198944,-0.019269635900855,0.0895339846611023,-0.0226655099540948,-0.26708984375,0.912109375,0.267578125,0.7183642983436584,0.8573454022407532,-8.295435804939189e-07,0.6500069499015808,0.7461605072021484,0.0303944200277328,0.6363571882247925,0.6369714140892029,0.0394918471574783,0.6146906018257141,0.564730167388916,0.0355971828103065,0.5885665416717529,0.5072218179702759,0.0311072282493114,0.7485767602920532,0.5544888973236084,0.054297499358654,0.6905036568641663,0.4726662039756775,0.0374119579792022,0.632387101650238,0.4571354985237121,0.0165527015924453,0.5851182341575623,0.4600194096565246,0.0040829903446137,0.7636157274246216,0.5605577826499939,0.0254238341003656,0.6817769408226013,0.4645593762397766,0.0114959571510553,0.6146140098571777,0.4564343094825744,-0.0069474540650844,0.5640661716461182,0.467189073562622,-0.0182947237044572,0.7647848725318909,0.5811944603919983,-0.0060194050893187,0.6734727621078491,0.4906529188156128,-0.0195571053773164,0.6069961190223694,0.4784477949142456,-0.0284427125006914,0.5579321384429932,0.4804821610450744,-0.0329065918922424,0.7467563152313232,0.6113460659980774,-0.0364885665476322,0.6634868383407593,0.5431550741195679,-0.0440097823739051,0.6133309602737427,0.5205020904541016,-0.0463817790150642,0.5751400589942932,0.5076414346694946,-0.0469607077538967
2023-08-01 16:28:09.125322,45,416,0.9949374198913574,-0.0180783066898584,0.0953764393925666,-0.0260010045021772,-0.302734375,0.9501953125,0.216796875,0.716966450214386,0.8564510941505432,-8.399845228268532e-07,0.6489726901054382,0.7447232604026794,0.0310324691236019,0.6343319416046143,0.6361788511276245,0.0400476418435573,0.6120294332504272,0.5637438893318176,0.0358908176422119,0.5873101353645325,0.5062452554702759,0.0306860096752643,0.7490374445915222,0.5556873679161072,0.0533624254167079,0.685499906539917,0.4768933057785034,0.0368534997105598,0.6269241571426392,0.4621833264827728,0.0159406699240207,0.57985520362854,0.4654192328453064,0.0031087999232113,0.7642036080360413,0.5619532465934753,0.0237232130020856,0.6816544532775879,0.4630147218704223,0.0096170948818326,0.6140679717063904,0.4565144777297973,-0.0086776381358504,0.5630525946617126,0.4693037867546081,-0.0199329052120447,0.7643969058990479,0.5831173062324524,-0.0081966239959001,0.6748091578483582,0.48797607421875,-0.0220754873007535,0.6075377464294434,0.4769800007343292,-0.0310270674526691,0.5580909252166748,0.4804503917694092,-0.0356539338827133,0.7442359924316406,0.6136670708656311,-0.0390175506472587,0.6617453098297119,0.5426921248435974,-0.0483906827867031,0.6100053787231445,0.5190483927726746,-0.051699262112379,0.5701028108596802,0.5054289102554321,-0.0527846924960613
2023-08-01 16:28:09.187997,46,417,0.994567573070526,-0.0178107433021068,0.0990049317479133,-0.0267628394067287,-0.22412109375,0.939453125,0.2607421875,0.7181351184844971,0.8591821789741516,-8.595818030698865e-07,0.6487548351287842,0.7470242977142334,0.0323256663978099,0.6352581977844238,0.6377393007278442,0.0422836616635322,0.6135977506637573,0.5657033324241638,0.038608219474554,0.5893532633781433,0.5073276162147522,0.0341669060289859,0.747514009475708,0.5556654334068298,0.057205244898796,0.6875712871551514,0.4768770337104797,0.0404888652265071,0.6284812688827515,0.4623773097991943,0.0192441064864397,0.5809301733970642,0.4659603834152221,0.0063329548574984,0.7636896967887878,0.5613332390785217,0.0268148891627788,0.6824876666069031,0.4630570709705353,0.0126654813066124,0.6145468950271606,0.4566118121147156,-0.0061239227652549,0.5638715028762817,0.4695303440093994,-0.0175071060657501,0.7659487128257751,0.5815523862838745,-0.0060860174708068,0.6749560832977295,0.4897918403148651,-0.0190313626080751,0.6074080467224121,0.4790033400058746,-0.0280682276934385,0.5580871105194092,0.4823445379734039,-0.0328491777181625,0.748619556427002,0.6113307476043701,-0.0380060300230979,0.6620753407478333,0.5440654754638672,-0.04534762352705,0.6098052263259888,0.52159583568573,-0.0481854900717735,0.5702877044677734,0.5082857608795166,-0.0492183528840541
