Timestamp,Index,Frame ID,w,x,y,z,ax,ay,az,x_0,y_0,z_0,x_1,y_1,z_1,x_2,y_2,z_2,x_3,y_3,z_3,x_4,y_4,z_4,x_5,y_5,z_5,x_6,y_6,z_6,x_7,y_7,z_7,x_8,y_8,z_8,x_9,y_9,z_9,x_10,y_10,z_10,x_11,y_11,z_11,x_12,y_12,z_12,x_13,y_13,z_13,x_14,y_14,z_14,x_15,y_15,z_15,x_16,y_16,z_16,x_17,y_17,z_17,x_18,y_18,z_18,x_19,y_19,z_19,x_20,y_20,z_20
2023-08-01 16:28:15.567981,0,517,0.9960148334503174,-0.0317274704575538,0.0777286067605018,-0.0301010329276323,-0.25439453125,0.912109375,0.298828125,0.7161163091659546,0.8619397878646851,-8.103818913696159e-07,0.6418088674545288,0.7567086219787598,0.0277733244001865,0.621105432510376,0.6473645567893982,0.0348323695361614,0.5971474647521973,0.5773531794548035,0.0294921677559614,0.5690597295761108,0.5241037011146545,0.0231497660279274,0.7350068092346191,0.5552793145179749,0.0501499511301517,0.6673484444618225,0.4844921231269836,0.0311690680682659,0.6082777976989746,0.4705275893211365,0.0080551458522677,0.5606633424758911,0.4717982411384582,-0.0065057259052991,0.7511800527572632,0.5634844899177551,0.0212356392294168,0.6638772487640381,0.470859169960022,0.002283533103764,0.5954011082649231,0.4686840772628784,-0.0194996036589145,0.5439345836639404,0.4835192561149597,-0.0321875475347042,0.7527291774749756,0.5863935947418213,-0.0100836576893925,0.6591237783432007,0.5038484930992126,-0.0278611090034246,0.5906615853309631,0.4958270788192749,-0.0398496836423873,0.5400198101997375,0.4987890124320984,-0.0455274507403373,0.7349146604537964,0.6202108263969421,-0.0403395444154739,0.6506351828575134,0.5586022138595581,-0.0512424744665622,0.5986099243164062,0.5395982265472412,-0.0555523261427879,0.5581679940223694,0.5263956189155579,-0.0571177825331687
2023-08-01 16:28:15.631273,1,518,0.9947648644447328,-0.0317263230681419,0.091501735150814,-0.0326134823262691,-0.3623046875,0.96337890625,0.2705078125,0.7149914503097534,0.8588199615478516,-8.149052632688836e-07,0.6417950987815857,0.7496527433395386,0.031118806451559,0.6221718192100525,0.6422378420829773,0.0405411124229431,0.5988471508026123,0.5721153020858765,0.0363462641835212,0.5719582438468933,0.5170173645019531,0.0308278780430555,0.7339192628860474,0.5530049800872803,0.058655347675085,0.6695210933685303,0.4860079884529114,0.0429535992443561,0.6123577356338501,0.4714125692844391,0.0205110628157854,0.5650119781494141,0.4706330299377441,0.0054528368636965,0.7513155937194824,0.5585218071937561,0.0276865400373935,0.6696222424507141,0.4694960415363312,0.0133539987727999,0.6044129729270935,0.4630768299102783,-0.007993746548891,0.5524879097938538,0.4705113172531128,-0.0218433309346437,0.7549145817756653,0.5805132985115051,-0.0058196834288537,0.6667811274528503,0.4961192607879638,-0.0210483502596616,0.5999820828437805,0.4850556850433349,-0.0325618125498294,0.5474040508270264,0.4840776324272156,-0.0390724726021289,0.7382481098175049,0.6139459013938904,-0.0382411032915115,0.6536024212837219,0.5515608787536621,-0.0489117018878459,0.6012676358222961,0.5307448506355286,-0.0530737377703189,0.5593323707580566,0.5154001712799072,-0.0549024157226085
2023-08-01 16:28:15.699543,2,519,0.9918934106826782,-0.0299249999225139,0.1165418922901153,-0.0408649891614913,-0.4609375,0.9384765625,0.1767578125,0.7138046026229858,0.8573286533355713,-7.654380169697106e-07,0.641716480255127,0.7459704875946045,0.0323498472571373,0.6229367852210999,0.6392121315002441,0.0414235107600688,0.5991233587265015,0.5686059594154358,0.0369394347071647,0.5724157094955444,0.5130396485328674,0.0313584208488464,0.7390481233596802,0.5518501400947571,0.0577129758894443,0.6766287684440613,0.4804172813892364,0.0434789434075355,0.6210744380950928,0.4618715345859527,0.0229706335812807,0.5746073126792908,0.4568825662136078,0.0092361150309443,0.7553515434265137,0.5589715242385864,0.0268084965646266,0.674547016620636,0.4666282534599304,0.0133895324543118,0.6097510457038879,0.4560024738311767,-0.0065427590161561,0.5584588050842285,0.4611918330192566,-0.019518457353115,0.7569634318351746,0.5813512206077576,-0.0063180546276271,0.6649397015571594,0.4983518123626709,-0.0203774888068437,0.5983729362487793,0.486616849899292,-0.0311376396566629,0.5471668839454651,0.4852703213691711,-0.0372893884778022,0.737991988658905,0.6139775514602661,-0.0382145196199417,0.6533807516098022,0.5498090386390686,-0.0468462631106376,0.601836621761322,0.5293207168579102,-0.0501700714230537,0.5612617135047913,0.5148534178733826,-0.0517846643924713
2023-08-01 16:28:15.759570,3,520,0.9892024993896484,-0.0263957250863313,0.1358861774206161,-0.048131313174963,-0.02685546875,0.8798828125,0.2783203125,0.711724042892456,0.8545401096343994,-7.664531267437269e-07,0.641313374042511,0.7401586174964905,0.0309178866446018,0.6226120591163635,0.6314440965652466,0.0397774390876293,0.5988418459892273,0.5595999956130981,0.0354560390114784,0.5742674469947815,0.5017330646514893,0.0301949549466371,0.7396513819694519,0.5488201975822449,0.05617006868124,0.6771819591522217,0.4779193103313446,0.040732130408287,0.6211701035499573,0.4595891535282135,0.0197643097490072,0.5751373767852783,0.4550469517707824,0.0059227622114121,0.7573268413543701,0.556147575378418,0.0257970355451107,0.6783142685890198,0.4605703949928283,0.0115364100784063,0.6134119629859924,0.4499905109405517,-0.0079848282039165,0.5624326467514038,0.456062376499176,-0.0202603563666343,0.7600107192993164,0.5786611437797546,-0.0069972891360521,0.6689683198928833,0.4930498301982879,-0.0219252128154039,0.6020724177360535,0.4804462194442749,-0.0323780700564384,0.5509230494499207,0.4783649146556854,-0.0379735752940177,0.7411808967590332,0.6111013889312744,-0.0386788249015808,0.6557132005691528,0.5476716756820679,-0.0480914339423179,0.6040022373199463,0.5271430015563965,-0.0514852926135063,0.5637562870979309,0.5120093822479248,-0.0528942160308361
2023-08-01 16:28:15.818438,4,521,0.9853807091712952,-0.0225708838552236,0.1602608114480972,-0.0532161667943,-0.51953125,0.931640625,0.18310546875,0.7064400911331177,0.84907066822052,-7.391201393147639e-07,0.6405343413352966,0.7290387749671936,0.0266064815223217,0.6235072016716003,0.6204143166542053,0.0329583026468753,0.598872721195221,0.5484405755996704,0.0270068943500518,0.5734846591949463,0.4899450838565826,0.0205192565917968,0.7441915273666382,0.5415183901786804,0.0512740910053253,0.6844943761825562,0.4683188199996948,0.0327097922563552,0.6290656924247742,0.4487360119819641,0.0099061382934451,0.5830081701278687,0.4437080025672912,-0.004919861909002,0.7624766826629639,0.5514163970947266,0.0222222208976745,0.6875395178794861,0.4507550001144409,0.0038168365135788,0.624381959438324,0.4419701695442199,-0.0176422372460365,0.5738875865936279,0.4490365087985992,-0.0302119795233011,0.7655401825904846,0.5758349299430847,-0.0095350285992026,0.6742810606956482,0.4907310009002685,-0.0278863664716482,0.6081895232200623,0.4790641069412231,-0.0392229221761226,0.5576077103614807,0.4747841358184814,-0.0443270988762378,0.7456784248352051,0.6093388199806213,-0.040401391685009,0.6610929369926453,0.5443885326385498,-0.0521896034479141,0.6101548671722412,0.5208213329315186,-0.0563870929181575,0.5703553557395935,0.5001928806304932,-0.0578081794083118
2023-08-01 16:28:15.877828,5,522,0.9837293028831482,-0.0185751039534807,0.168855682015419,-0.0584758408367633,-0.21728515625,0.875,0.1025390625,0.7049673795700073,0.8269082307815552,-6.615794632125471e-07,0.6517235040664673,0.6942602396011353,0.0152796478942036,0.6342155337333679,0.5892870426177979,0.0119238682091236,0.6048984527587891,0.5176321864128113,-0.0003560722398106,0.5825982689857483,0.4571238160133362,-0.0124280825257301,0.7767742276191711,0.5353431105613708,0.0229472406208515,0.7180877923965454,0.4455078840255737,-0.0017757193418219,0.6608553528785706,0.4229582250118255,-0.0258879587054252,0.6144611835479736,0.4189331829547882,-0.0408329889178276,0.7917912006378174,0.554438054561615,0.0003718664229381,0.7134724259376526,0.4411877989768982,-0.0240685138851404,0.6483998894691467,0.4271314740180969,-0.046534102410078,0.5981917381286621,0.426321268081665,-0.060370173305273,0.7875860333442688,0.5818619132041931,-0.024136584252119,0.6905839443206787,0.4899800419807434,-0.0473406501114368,0.6254615783691406,0.4745587110519409,-0.0593330934643745,0.576962947845459,0.4657897055149078,-0.0648443773388862,0.7596395015716553,0.6120912432670593,-0.0477551184594631,0.6772283315658569,0.5428906679153442,-0.0636736154556274,0.6287448406219482,0.5189158916473389,-0.0693703293800354,0.5913266539573669,0.4987186789512634,-0.0715361312031745
2023-08-01 16:28:15.944232,6,523,0.980034112930298,-0.0159798953682184,0.1882939338684082,-0.0618322938680648,-0.4033203125,0.86279296875,0.2041015625,0.7051084637641907,0.8269334435462952,-7.416074367938563e-07,0.6506562232971191,0.7004377841949463,0.0106557318940758,0.632499098777771,0.593743085861206,0.0037555748131126,0.605514645576477,0.518144965171814,-0.0116982953622937,0.5804816484451294,0.456972062587738,-0.0274197235703468,0.7757460474967957,0.5394218564033508,0.0173751767724752,0.7129613757133484,0.45131716132164,-0.0124616948887705,0.6546006798744202,0.4310254454612732,-0.0400460064411163,0.6072684526443481,0.4320889413356781,-0.057025421410799,0.7906451225280762,0.5586110949516296,-0.0059936745092272,0.71717369556427,0.4406288862228393,-0.0343692563474178,0.6501700282096863,0.4246359467506408,-0.0589555166661739,0.5979231595993042,0.4276060163974762,-0.0741223841905593,0.786427915096283,0.5887895822525024,-0.0320677645504474,0.6950573921203613,0.4906145930290222,-0.0591819398105144,0.6275113224983215,0.4778860211372375,-0.0738319084048271,0.5784075260162354,0.4751649498939514,-0.0810042321681976,0.7595634460449219,0.6226880550384521,-0.0577119328081607,0.6809765696525574,0.5486944913864136,-0.0769635960459709,0.6342061758041382,0.5215775966644287,-0.0855518728494644,0.5990169644355774,0.4991666078567505,-0.0900628343224525
2023-08-01 16:28:16.006935,7,524,0.978876531124115,-0.0142829399555921,0.1936986893415451,-0.0638554468750953,-0.400390625,0.93701171875,0.109375,0.703816294670105,0.8196430206298828,-7.232603138618288e-07,0.6530040502548218,0.6926578283309937,0.0082443691790103,0.6371418237686157,0.5843905210494995,0.0009334964561276,0.6132403016090393,0.5072661638259888,-0.0138803590089082,0.5947632789611816,0.4434182941913605,-0.0286034345626831,0.7836575508117676,0.5367603898048401,0.0115003520622849,0.7231504321098328,0.4443380534648895,-0.0182483848184347,0.6652946472167969,0.4186422228813171,-0.0449010618031024,0.6190884709358215,0.4143569469451904,-0.0614365674555301,0.798975944519043,0.5576207637786865,-0.0101606054231524,0.7278480529785156,0.4356423914432525,-0.0396053828299045,0.659978449344635,0.4145931601524353,-0.0641890689730644,0.6079075932502747,0.41217041015625,-0.0793445333838462,0.7943813800811768,0.5872202515602112,-0.0342170000076293,0.7027051448822021,0.4871979057788849,-0.063009388744831,0.6341453194618225,0.473576009273529,-0.0778532177209854,0.5854047536849976,0.4702514111995697,-0.0846887230873107,0.7662705779075623,0.6191919445991516,-0.0577459521591663,0.6863570213317871,0.5434173345565796,-0.0784024521708488,0.6388452649116516,0.5160123109817505,-0.0873133763670921,0.6039071083068848,0.4940601289272308,-0.0917571857571601
2023-08-01 16:28:16.070269,8,525,0.978013515472412,-0.0122476452961564,0.1970777660608291,-0.0670810043811798,-0.33251953125,0.9326171875,0.08447265625,0.7037656307220459,0.8107916116714478,-7.028179993540107e-07,0.6577221155166626,0.6800621151924133,0.0022857435978949,0.6433820128440857,0.5690267086029053,-0.0091119231656193,0.619651198387146,0.4908775091171264,-0.0255860015749931,0.6051165461540222,0.4290921092033386,-0.0421263724565506,0.7969086766242981,0.5343993306159973,-0.0070519568398594,0.7327778935432434,0.4373638033866882,-0.0388684198260307,0.6741522550582886,0.4084786176681518,-0.0637975856661796,0.6288915276527405,0.399821400642395,-0.0789837539196014,0.8105819821357727,0.5615408420562744,-0.0261801593005657,0.7411224842071533,0.4320629239082336,-0.0598389245569705,0.6715764403343201,0.4112668633460998,-0.0828468948602676,0.6201282143592834,0.4109119176864624,-0.0959188938140869,0.8016930818557739,0.5947989821434021,-0.0468091145157814,0.7085988521575928,0.489822506904602,-0.0802604258060455,0.6369932293891907,0.4731294214725494,-0.0946153551340103,0.588777482509613,0.4674954116344452,-0.0999659672379493,0.7689764499664307,0.6267541646957397,-0.066602885723114,0.6888598203659058,0.5449667572975159,-0.0906673520803451,0.6406036019325256,0.5149304270744324,-0.0996035262942314,0.6070882081985474,0.4912735819816589,-0.1032550632953643
2023-08-01 16:28:16.125765,9,526,0.9754341244697572,-0.0108867799863219,0.2076425850391388,-0.072762593626976,-0.298828125,0.876953125,0.2158203125,0.7068364024162292,0.8133561015129089,-7.261764380928071e-07,0.6560741662979126,0.6724304556846619,0.0040264287963509,0.6445987820625305,0.5633297562599182,-0.0065168007276952,0.6265815496444702,0.4859254360198974,-0.0226701591163873,0.6167469024658203,0.4254088997840881,-0.0390740558505058,0.8018096089363098,0.5349623560905457,-0.0057416311465203,0.7390592694282532,0.4366075694561004,-0.0373438745737075,0.6805025935173035,0.4101579189300537,-0.0610443353652954,0.6347815990447998,0.4044957160949707,-0.0746947526931762,0.8128188848495483,0.5629323124885559,-0.0252096336334943,0.7467544674873352,0.4337053596973419,-0.0579879842698574,0.6770386695861816,0.4150308966636657,-0.0796174705028534,0.6260839700698853,0.4187625050544739,-0.0910820066928863,0.8018911480903625,0.5958545804023743,-0.0460772737860679,0.7094889879226685,0.4911307394504547,-0.0789274424314498,0.637412428855896,0.4728724360466003,-0.093804195523262,0.5893723964691162,0.4669382274150848,-0.0989939346909523,0.7680609822273254,0.6270031929016113,-0.0659070238471031,0.6892484426498413,0.5454971194267273,-0.0880913436412811,0.6412513852119446,0.5184412002563477,-0.096277430653572,0.6079953908920288,0.4980599284172058,-0.099099263548851
2023-08-01 16:28:16.190368,10,527,0.9730029702186584,-0.0099618332460522,0.2164129614830017,-0.0795707702636718,-0.34033203125,0.93505859375,0.078125,0.7034934759140015,0.8087466955184937,-7.283273930625e-07,0.6562920808792114,0.6708361506462097,0.0005692425766028,0.6447471380233765,0.5623570084571838,-0.0114778233692049,0.6274319887161255,0.4847720563411712,-0.0281782131642103,0.6168387532234192,0.4238386154174804,-0.0449728816747665,0.8016910552978516,0.5339537858963013,-0.0112728737294673,0.7400146126747131,0.4381510615348816,-0.0438940674066543,0.6822657585144043,0.4125908017158508,-0.0677960067987442,0.6372148394584656,0.4069333076477051,-0.0816386640071868,0.8130045533180237,0.5639833211898804,-0.0290841478854417,0.7466365694999695,0.4370562434196472,-0.0627524182200431,0.6772298812866211,0.4178240597248077,-0.0846404507756233,0.6267696022987366,0.420093834400177,-0.0967045128345489,0.8021950125694275,0.5983732342720032,-0.0483956150710582,0.7107183933258057,0.495101660490036,-0.0822443813085556,0.6385137438774109,0.4755822122097015,-0.0977293029427528,0.589952826499939,0.4688341617584228,-0.1035117581486702,0.769162118434906,0.6318699717521667,-0.066857986152172,0.6926774978637695,0.5524190664291382,-0.0904925018548965,0.646003246307373,0.5239642858505249,-0.0998887047171592,0.61354660987854,0.5015859603881836,-0.1036167591810226
2023-08-01 16:28:16.253488,11,528,0.9702632427215576,-0.0092884013429284,0.2254551202058792,-0.0875950902700424,-0.44873046875,0.861328125,0.1025390625,0.7012285590171814,0.8068091869354248,-7.391869871753443e-07,0.6550976634025574,0.6648613214492798,-0.0043530473485589,0.6470136642456055,0.5574789047241211,-0.0186964869499206,0.6298370957374573,0.4799010157585144,-0.0360840074717998,0.6205320954322815,0.420617938041687,-0.0539688691496849,0.8082820177078247,0.5330784320831299,-0.0214313324540853,0.7375350594520569,0.4383710622787475,-0.0540514439344406,0.676934540271759,0.4105243682861328,-0.0763300284743309,0.6285057663917542,0.4021876454353332,-0.0888992846012115,0.8190160989761353,0.5653759837150574,-0.036518145352602,0.7444909811019897,0.4399407505989074,-0.0707936882972717,0.6722078919410706,0.4166417717933655,-0.0934226810932159,0.6183207035064697,0.4130294024944305,-0.1066399216651916,0.8066251277923584,0.6008362174034119,-0.0525711551308631,0.705443799495697,0.502596378326416,-0.0880089998245239,0.6320464015007019,0.4831210672855377,-0.1056379824876785,0.5821404457092285,0.4748710989952087,-0.1131108254194259,0.772076427936554,0.6341889500617981,-0.0677428394556045,0.690696120262146,0.558814287185669,-0.0921197533607482,0.6434396505355835,0.5342128872871399,-0.1022749915719032,0.6098208427429199,0.5139397978782654,-0.1068317741155624
2023-08-01 16:28:16.313286,12,529,0.9697570204734802,-0.0090073607861995,0.2258868366479873,-0.092007465660572,-0.54296875,0.84130859375,0.1875,0.7024038434028625,0.8058904409408569,-7.608379064549808e-07,0.656657338142395,0.6641174554824829,-0.0073291673325002,0.6479660272598267,0.5563920736312866,-0.0228320658206939,0.6297367215156555,0.4786944389343261,-0.040970854461193,0.6193810105323792,0.4184249937534332,-0.0597323887050151,0.8127748966217041,0.5306895971298218,-0.0238647498190403,0.7371042966842651,0.4370493292808532,-0.059557881206274,0.6747943758964539,0.4110747575759887,-0.08375995606184,0.6256811618804932,0.4026399254798889,-0.0972415804862976,0.822960376739502,0.564997673034668,-0.0385275483131408,0.7457635402679443,0.441987931728363,-0.0782999396324157,0.6696377992630005,0.4206887185573578,-0.1028912365436554,0.6133410930633545,0.417124480009079,-0.1157400235533714,0.8089800477027893,0.602512538433075,-0.0545519180595874,0.7052753567695618,0.5054203867912292,-0.0961879193782806,0.6278877854347229,0.4882329702377319,-0.115293487906456,0.5767068266868591,0.4803909957408905,-0.1215172559022903,0.7733737230300903,0.6379292011260986,-0.0696214139461517,0.6908257603645325,0.5630142688751221,-0.0988159403204917,0.6413882970809937,0.5368406772613525,-0.1103736758232116,0.607501745223999,0.5139975547790527,-0.1143591850996017
2023-08-01 16:28:16.374145,13,530,0.9698004126548768,-0.0073106833733618,0.2237964570522308,-0.0966894775629043,-0.42431640625,0.86279296875,0.1416015625,0.704619824886322,0.8066324591636658,-7.900451919340412e-07,0.6566773653030396,0.6649446487426758,-0.0112141510471701,0.6479296088218689,0.5558217167854309,-0.0289734154939651,0.6301427483558655,0.477983295917511,-0.0484713017940521,0.618484377861023,0.418136715888977,-0.0686130970716476,0.8160426020622253,0.5301716327667236,-0.0325827933847904,0.7352907061576843,0.4338017702102661,-0.0711956694722175,0.669605016708374,0.4093007445335388,-0.0962732583284378,0.6183661222457886,0.4037284255027771,-0.109988197684288,0.8264408707618713,0.567110002040863,-0.0461705103516578,0.7441097497940063,0.4410107135772705,-0.0900726020336151,0.6640479564666748,0.4241617918014526,-0.1151574775576591,0.606926441192627,0.4246032238006592,-0.1277788877487182,0.811586856842041,0.6066552400588989,-0.0611259937286376,0.7049257159233093,0.5079388618469238,-0.1061557084321975,0.6254646182060242,0.4919536709785461,-0.1252421587705612,0.5737749934196472,0.4855250418186188,-0.1308962106704712,0.7752525806427002,0.6430572867393494,-0.0752709135413169,0.6924300789833069,0.5651271343231201,-0.107440248131752,0.6426333785057068,0.537088930606842,-0.1200262978672981,0.6091364622116089,0.5127995610237122,-0.1242963820695877
2023-08-01 16:28:16.441298,14,531,0.9694303274154664,-0.0033759863581508,0.2217718511819839,-0.1049318239092826,-0.34423828125,0.85107421875,0.0625,0.7044067978858948,0.8050071001052856,-7.905935603957914e-07,0.657527506351471,0.6641075611114502,-0.0120153613388538,0.6495044827461243,0.5565184950828552,-0.0304237809032201,0.6324334144592285,0.4800069332122803,-0.0505707412958145,0.6220333576202393,0.4208700358867645,-0.0715066194534301,0.8187227249145508,0.5323389768600464,-0.0336848460137844,0.7384026646614075,0.4357804656028747,-0.0732173398137092,0.6730894446372986,0.4112454056739807,-0.0991112813353538,0.6222638487815857,0.4048306345939636,-0.1133690476417541,0.8290497064590454,0.5698928833007812,-0.0470703728497028,0.7464565634727478,0.4435231685638428,-0.0921401381492614,0.6666886210441589,0.4274511933326721,-0.1176867112517356,0.6101803183555603,0.427500307559967,-0.130465418100357,0.8140860795974731,0.6100213527679443,-0.0618771091103553,0.7066568732261658,0.5092642307281494,-0.1080279648303985,0.6272624731063843,0.4932683706283569,-0.1269010156393051,0.5759425759315491,0.4867611825466156,-0.1321475505828857,0.7777756452560425,0.6465510725975037,-0.0758770555257797,0.6935039162635803,0.5664652585983276,-0.1086530089378357,0.6441118717193604,0.5386568307876587,-0.1210392117500305,0.6118190884590149,0.5150443315505981,-0.1250291615724563
2023-08-01 16:28:16.499180,15,532,0.968343198299408,0.0003041863092221,0.2228310853242874,-0.1125061586499214,-0.466796875,0.8330078125,0.0908203125,0.70072340965271,0.8015424013137817,-7.731634923402453e-07,0.6627697944641113,0.668694019317627,-0.0163352750241756,0.6584424376487732,0.5609956383705139,-0.0358059406280517,0.6424761414527893,0.4846861958503723,-0.0560891851782798,0.625839352607727,0.4291650652885437,-0.0770324692130088,0.8218348622322083,0.5286910533905029,-0.0366693101823329,0.7394396662712097,0.440835952758789,-0.0797752812504768,0.6720666885375977,0.4167402386665344,-0.1079377904534339,0.6191276907920837,0.4104018211364746,-0.1235835328698158,0.8392731547355652,0.5704024434089661,-0.0497245714068412,0.7586252093315125,0.4497199952602386,-0.098021775484085,0.67654949426651,0.4345932304859161,-0.1229927539825439,0.6188361644744873,0.4386487007141113,-0.1343406736850738,0.8293724656105042,0.6172460317611694,-0.0651982128620147,0.7196359634399414,0.52256840467453,-0.1149448230862617,0.6356213092803955,0.5059525370597839,-0.1321665644645691,0.5833488702774048,0.5000742673873901,-0.1352935582399368,0.796052873134613,0.6616811752319336,-0.0805072858929634,0.7119001150131226,0.5909894704818726,-0.117144301533699,0.664519727230072,0.5686630606651306,-0.1294780224561691,0.6362671256065369,0.5493013262748718,-0.1327449381351471
2023-08-01 16:28:16.561167,16,533,0.966619908809662,0.002532594371587,0.2259143739938736,-0.1208396404981613,-0.5146484375,0.85546875,0.11376953125,0.7040492296218872,0.804623544216156,-8.181603448065289e-07,0.6593047976493835,0.6636688709259033,-0.0182628873735666,0.6537531018257141,0.5571917295455933,-0.0388529971241951,0.6372396945953369,0.4831953644752502,-0.0600441955029964,0.6204210519790649,0.4274585843086242,-0.0821833610534668,0.8280768990516663,0.5325932502746582,-0.0385265462100505,0.7442548871040344,0.4393989741802215,-0.0801623240113258,0.6751278042793274,0.4186392724514007,-0.1080285459756851,0.6239287853240967,0.4179422855377197,-0.1239203810691833,0.8423832654953003,0.5744367837905884,-0.0499205254018306,0.7574055790901184,0.451528251171112,-0.0978623703122139,0.6734691858291626,0.4379377961158752,-0.1245844066143035,0.6175427436828613,0.4407747685909271,-0.1376349478960037,0.8300325870513916,0.6195746064186096,-0.0634092688560485,0.7200913429260254,0.5230085253715515,-0.1128271520137786,0.6366597414016724,0.5059331655502319,-0.1323781162500381,0.5855401158332825,0.4992277026176452,-0.1373636722564697,0.7951411604881287,0.6614724397659302,-0.0766449570655822,0.7092190384864807,0.5845257043838501,-0.1118502169847488,0.6587347984313965,0.5576151013374329,-0.1245523318648338,0.6276277899742126,0.5358461737632751,-0.1282870024442672
2023-08-01 16:28:16.623043,17,534,0.9652084112167358,0.0034397162962704,0.2281807363033294,-0.1276496648788452,-0.52197265625,0.85205078125,0.11328125,0.7012859582901001,0.7991516590118408,-7.812795956851915e-07,0.6648077368736267,0.6649482846260071,-0.0195028576999902,0.6613211035728455,0.558379054069519,-0.040392730385065,0.6461362838745117,0.4818975031375885,-0.0616386607289314,0.6323139071464539,0.4238645434379577,-0.0836477801203727,0.8287903070449829,0.5341474413871765,-0.0410215854644775,0.7482349872589111,0.4422078430652618,-0.0832564085721969,0.6816151738166809,0.4209255874156952,-0.1110409945249557,0.6332399249076843,0.420291393995285,-0.1272011399269104,0.8447104692459106,0.5781266689300537,-0.0520248971879482,0.763538658618927,0.4561336636543274,-0.1003863662481308,0.6828949451446533,0.4412283897399902,-0.12641042470932,0.6282102465629578,0.4440875053405761,-0.1390773206949234,0.8336775302886963,0.6259794235229492,-0.0652493089437484,0.7235881686210632,0.5278335213661194,-0.1160022988915443,0.6406117677688599,0.5095943808555603,-0.1345117837190628,0.5891907811164856,0.5025501251220703,-0.1386515647172927,0.8000948429107666,0.6702659726142883,-0.078286625444889,0.7148575782775879,0.5934317111968994,-0.1160030961036682,0.6659818291664124,0.5660123825073242,-0.1295110583305359,0.636216402053833,0.5433863401412964,-0.1335830986499786
2023-08-01 16:28:16.682563,18,535,0.9649958610534668,0.0061647645197808,0.2266738265752792,-0.1317717880010604,-0.466796875,0.85400390625,0.10498046875,0.7012845873832703,0.8010585308074951,-7.555828460681369e-07,0.6678557991981506,0.6683261394500732,-0.0199429057538509,0.6622148752212524,0.5618066787719727,-0.0424290411174297,0.6460373997688293,0.4820466339588165,-0.0651997923851013,0.63201904296875,0.4268451333045959,-0.0882072746753692,0.8333566188812256,0.5378726720809937,-0.0423941202461719,0.7569400072097778,0.4495185017585754,-0.0845705643296241,0.6904366612434387,0.429303765296936,-0.1110425591468811,0.6398463249206543,0.4300466179847717,-0.12587271630764,0.8494040966033936,0.5817651152610779,-0.0536860935389995,0.7729737162590027,0.4634705185890198,-0.1012859493494033,0.6954615116119385,0.4443119466304779,-0.1257637590169906,0.6389741897583008,0.4460821747779846,-0.1369708776473999,0.8386663198471069,0.630860447883606,-0.0672266408801078,0.7296010851860046,0.5315340757369995,-0.1172292903065681,0.6477157473564148,0.509661853313446,-0.1338612586259842,0.5949597358703613,0.5025716423988342,-0.13654425740242,0.8047718405723572,0.6766688823699951,-0.0807321518659591,0.7176250219345093,0.5965903997421265,-0.1176274567842483,0.6661670207977295,0.5656596422195435,-0.1295356452465057,0.632231593132019,0.5430882573127747,-0.1321961730718612
2023-08-01 16:28:16.746556,19,536,0.9643908739089966,0.0092961257323622,0.2275476902723312,-0.1344839483499527,-0.50927734375,0.8447265625,0.08203125,0.6986218094825745,0.8098173141479492,-7.376517032753327e-07,0.6691310405731201,0.6776528358459473,-0.0279055777937173,0.665675163269043,0.5741798281669617,-0.0541106015443801,0.6492025852203369,0.4965153634548187,-0.0794783979654312,0.6330759525299072,0.4489207863807678,-0.1049343198537826,0.8433318734169006,0.5521471500396729,-0.047485277056694,0.7735186219215393,0.4690070450305938,-0.0937092304229736,0.7079073786735535,0.4488508999347687,-0.1241343766450882,0.6553007364273071,0.4476356208324432,-0.1414292007684707,0.8609545826911926,0.6020804643630981,-0.055910512804985,0.7824252247810364,0.4900695085525512,-0.1076707988977432,0.7031069397926331,0.4694714248180389,-0.135638028383255,0.64686119556427,0.4666661024093628,-0.1490156650543213,0.8490062952041626,0.6558364629745483,-0.0674793422222137,0.7404019236564636,0.5594075918197632,-0.1215337067842483,0.6575255393981934,0.5334770083427429,-0.1389742940664291,0.6039243936538696,0.5225991010665894,-0.1413513571023941,0.8113676905632019,0.7029600739479065,-0.0797161906957626,0.7219893336296082,0.6232795715332031,-0.1203104332089424,0.6710761189460754,0.592231273651123,-0.1325573921203613,0.6391725540161133,0.5693173408508301,-0.1345556229352951
2023-08-01 16:28:16.814958,20,537,0.9640677571296692,0.009480345994234,0.2281909137964248,-0.13569276034832,-0.50927734375,0.845703125,0.09423828125,0.7017726898193359,0.8203653693199158,-7.528591936534212e-07,0.6691951155662537,0.6842149496078491,-0.0281938184052705,0.6625330448150635,0.5788110494613647,-0.0545401945710182,0.6475926637649536,0.499834805727005,-0.0799490287899971,0.6389467120170593,0.4476968646049499,-0.1049366891384124,0.8447302579879761,0.5568467378616333,-0.0471443310379982,0.773867130279541,0.4687962532043457,-0.0922433584928512,0.7074658870697021,0.4563985764980316,-0.1206764280796051,0.6583386659622192,0.4637289643287658,-0.1364500224590301,0.8613195419311523,0.6058956384658813,-0.0548973679542541,0.7845861315727234,0.4897885918617248,-0.1073061898350715,0.7037906646728516,0.4737811982631683,-0.1339695155620575,0.6474135518074036,0.4782483279705047,-0.1450728625059127,0.8486039042472839,0.6592289209365845,-0.0658334195613861,0.7384145855903625,0.5632430911064148,-0.1203946471214294,0.6561033725738525,0.5356485843658447,-0.1384696811437606,0.6037466526031494,0.5254566073417664,-0.1403298676013946,0.8110522031784058,0.7060062289237976,-0.0773291364312172,0.7223641276359558,0.6283566355705261,-0.1173967272043228,0.6734656095504761,0.5970973372459412,-0.1303391009569168,0.6428406238555908,0.5736063122749329,-0.1323675364255905
2023-08-01 16:28:16.884490,21,538,0.9638809561729432,0.009590009227395,0.2289465367794037,-0.1357392370700836,-0.5234375,0.8447265625,0.0654296875,0.7012755870819092,0.8207051753997803,-7.436350415446213e-07,0.6711268424987793,0.6819385290145874,-0.0284649934619665,0.6669315695762634,0.5761463642120361,-0.0557230450212955,0.6531231999397278,0.4974760413169861,-0.0822319164872169,0.6434360146522522,0.455211877822876,-0.1085560098290443,0.8481020927429199,0.5597713589668274,-0.0463155806064605,0.7802313566207886,0.4735886454582214,-0.0930100902915,0.7140145301818848,0.4553694128990173,-0.1233458817005157,0.6610460877418518,0.4563921689987182,-0.1399687975645065,0.8656184673309326,0.6108835935592651,-0.0542345270514488,0.7903972268104553,0.4978391230106354,-0.1076079159975051,0.7076440453529358,0.4801526069641113,-0.1350210160017013,0.6471412777900696,0.4817984104156494,-0.1462863087654113,0.8535367250442505,0.6650844812393188,-0.0655639693140983,0.7445146441459656,0.5678068399429321,-0.1200092062354087,0.6615005731582642,0.5412160158157349,-0.1383296996355056,0.6068518757820129,0.5313081741333008,-0.1401281207799911,0.8166301250457764,0.712597131729126,-0.0776066705584526,0.7300799489021301,0.6342118382453918,-0.1165369153022766,0.6818169355392456,0.6049578189849854,-0.1290062516927719,0.6504653096199036,0.5835968255996704,-0.1307796835899353
2023-08-01 16:28:16.965495,22,539,0.9643468260765076,0.0100358985364437,0.2277856767177581,-0.1343431025743484,-0.51416015625,0.861328125,0.03466796875,0.7018758654594421,0.8222664594650269,-7.593818622808612e-07,0.6770652532577515,0.6880087852478027,-0.0275564026087522,0.6756353378295898,0.584433376789093,-0.0541401915252208,0.6630814075469971,0.505254328250885,-0.0801974833011627,0.652687668800354,0.4575985074043274,-0.1057595983147621,0.8547751903533936,0.572617769241333,-0.0454743281006813,0.792538046836853,0.4831505417823791,-0.0916561111807823,0.7252084016799927,0.4674050807952881,-0.1208194345235824,0.6738907694816589,0.4732244312763214,-0.1367261260747909,0.8736534714698792,0.6242519021034241,-0.053395327180624,0.8052573800086975,0.5060895681381226,-0.107013888657093,0.723590612411499,0.4883767366409302,-0.1338902711868286,0.6659010648727417,0.4912481904029846,-0.1443978399038314,0.8624007701873779,0.6783018112182617,-0.0645153149962425,0.7565491795539856,0.5756279230117798,-0.1187254041433334,0.6736803650856018,0.5468047261238098,-0.1359833478927612,0.620045006275177,0.5352734327316284,-0.136999174952507,0.8262178301811218,0.7230169177055359,-0.0762725695967674,0.7386858463287354,0.6398207545280457,-0.1155227646231651,0.6882568597793579,0.6067094802856445,-0.1276200264692306,0.6561077237129211,0.5823436975479126,-0.1289125084877014
2023-08-01 16:28:17.032115,23,540,0.965324878692627,0.0091069284826517,0.2247485220432281,-0.1324879825115203,-0.505859375,0.85498046875,0.10791015625,0.7038990259170532,0.8264537453651428,-6.812148285462172e-07,0.6766867637634277,0.688809335231781,-0.030903348699212,0.673524022102356,0.5823577642440796,-0.0602572485804557,0.6618461608886719,0.5024804472923279,-0.0888234004378318,0.655523955821991,0.4644576907157898,-0.116841472685337,0.8555067181587219,0.5731554627418518,-0.0481020770967006,0.7910252809524536,0.4864481687545776,-0.097473494708538,0.7251346707344055,0.4703240394592285,-0.129749059677124,0.6736045479774475,0.4750337600708008,-0.1475826054811477,0.8731316924095154,0.624484658241272,-0.0562043599784374,0.8066521883010864,0.5096817016601562,-0.1125969588756561,0.727605938911438,0.4881375730037689,-0.141200378537178,0.6697490215301514,0.4896415472030639,-0.1524318605661392,0.8606232404708862,0.6797446608543396,-0.0681441128253936,0.7561870217323303,0.5809202790260315,-0.1261744648218155,0.6729985475540161,0.5477681756019592,-0.1454949080944061,0.619013786315918,0.534547746181488,-0.1467624604701995,0.8225748538970947,0.726714551448822,-0.0809240862727165,0.7378624677658081,0.6460646390914917,-0.1224157363176345,0.6893759965896606,0.6114295125007629,-0.1355404555797577,0.6583633422851562,0.5866519808769226,-0.1370694190263748
2023-08-01 16:28:17.092835,24,541,0.965840756893158,0.0089518465101718,0.2237993776798248,-0.1303274780511856,-0.5185546875,0.8525390625,0.111328125,0.7013659477233887,0.8274854421615601,-7.458506274815591e-07,0.6769636869430542,0.6928337812423706,-0.0258766412734985,0.6774899363517761,0.5861592888832092,-0.0515909641981124,0.6666256785392761,0.5034759640693665,-0.0775383412837982,0.6571123600006104,0.4585514962673187,-0.1033519878983497,0.8579480648040771,0.5820457935333252,-0.0401683785021305,0.801300585269928,0.4900184571743011,-0.0868080928921699,0.7388166785240173,0.4664380550384521,-0.1179717853665351,0.6870689392089844,0.4662230312824249,-0.1351184993982315,0.8727167844772339,0.6310788989067078,-0.049343254417181,0.806765079498291,0.510082483291626,-0.1023829355835914,0.7261645197868347,0.4893270134925842,-0.1292092502117157,0.6673522591590881,0.4914111196994781,-0.1394470185041427,0.8592381477355957,0.6827289462089539,-0.0622600726783275,0.7577237486839294,0.5761667490005493,-0.1167886778712272,0.6761456727981567,0.5459896326065063,-0.1346721947193145,0.622458815574646,0.5353941917419434,-0.1355795711278915,0.8215652108192444,0.7259959578514099,-0.0758019238710403,0.7384687662124634,0.6387161612510681,-0.1151226535439491,0.6896991729736328,0.6057053804397583,-0.1274597942829132,0.6577842831611633,0.5837478637695312,-0.1286524087190628
2023-08-01 16:28:17.158049,25,542,0.967245876789093,0.0086885737255215,0.2196408808231353,-0.1269565969705581,-0.4716796875,0.8505859375,0.078125,0.7009360790252686,0.8324643969535828,-7.59664146698924e-07,0.6777433156967163,0.6933639645576477,-0.0232807397842407,0.6788651347160339,0.5889566540718079,-0.047484166920185,0.6683711409568787,0.5090057849884033,-0.072459876537323,0.6589048504829407,0.4570064544677734,-0.0972615852952003,0.8587373495101929,0.5847513675689697,-0.0356459580361843,0.799443781375885,0.4906039535999298,-0.0807365849614143,0.7367078065872192,0.4666045904159546,-0.1115521714091301,0.6860538721084595,0.4646222591400146,-0.1284133195877075,0.8727544546127319,0.6316612362861633,-0.0453038662672042,0.8056822419166565,0.512150228023529,-0.094913400709629,0.7271470427513123,0.4889699816703796,-0.1214804947376251,0.6702090501785278,0.4872101843357086,-0.1327362358570099,0.858835756778717,0.6811966896057129,-0.0586169548332691,0.7578268647193909,0.5765175819396973,-0.1099391058087349,0.6772705912590027,0.5454313158988953,-0.1278074830770492,0.6242104768753052,0.5332084894180298,-0.1298525482416153,0.8213905692100525,0.7229366302490234,-0.0725310668349266,0.7392696738243103,0.6377950310707092,-0.10948396474123,0.6917635798454285,0.6074455380439758,-0.1213021874427795,0.6611905097961426,0.5872403383255005,-0.1227737069129943
2023-08-01 16:28:17.223801,26,543,0.9670573472976683,0.0081023890525102,0.22199048101902,-0.1243170574307441,-0.46923828125,0.8330078125,0.07421875,0.7003337144851685,0.8327104449272156,-7.566814019810408e-07,0.6777006387710571,0.6926703453063965,-0.0250094011425972,0.6787623763084412,0.5860253572463989,-0.0502702593803405,0.6672295928001404,0.504519522190094,-0.0759110748767852,0.655617892742157,0.4568407535552978,-0.1010476127266883,0.8596505522727966,0.5820740461349487,-0.0380774810910224,0.7975879311561584,0.487525999546051,-0.0830114856362342,0.7341272234916687,0.4655267298221588,-0.1125552579760551,0.6826421022415161,0.46462082862854,-0.1283420920372009,0.8731904029846191,0.6303271055221558,-0.0469761565327644,0.8023394346237183,0.5102274417877197,-0.0975332930684089,0.7234551906585693,0.4886409342288971,-0.1240491867065429,0.6666706800460815,0.4874431490898132,-0.1350061595439911,0.8593905568122864,0.6809324026107788,-0.0594876073300838,0.7566026449203491,0.5754379034042358,-0.1122784167528152,0.6753551363945007,0.5457791090011597,-0.130523219704628,0.6216321587562561,0.5345531702041626,-0.1322279572486877,0.8225980401039124,0.7233355641365051,-0.0726029947400093,0.7411091923713684,0.6381768584251404,-0.1103899180889129,0.692712128162384,0.6078845262527466,-0.1224417239427566,0.6607838869094849,0.5872414708137512,-0.1237444952130317
2023-08-01 16:28:17.277745,27,544,0.9670767784118652,0.0078003169037401,0.2246225625276565,-0.1193580999970436,-0.3359375,0.82763671875,0.08935546875,0.6990313529968262,0.8301094770431519,-7.802081540830841e-07,0.6784527897834778,0.6921461820602417,-0.0224963519722223,0.6824193000793457,0.5863622426986694,-0.0446195118129253,0.674356997013092,0.5040367841720581,-0.0672210976481437,0.6639297604560852,0.4485316872596741,-0.089405246078968,0.8579660654067993,0.5838894844055176,-0.0351003631949424,0.7981303930282593,0.4890708029270172,-0.0781949833035469,0.7358781695365906,0.4652382135391235,-0.1062850952148437,0.6843127608299255,0.4621610045433044,-0.1210476607084274,0.8720787763595581,0.6307815909385681,-0.0441689528524875,0.8050532937049866,0.5092217326164246,-0.0921002998948097,0.7269647121429443,0.4848736822605133,-0.1170282661914825,0.6688690185546875,0.4818247556686401,-0.1271736770868301,0.8593543767929077,0.6792735457420349,-0.0567552633583545,0.757323145866394,0.5720365643501282,-0.1077231094241142,0.6766214966773987,0.5428800582885742,-0.1258752793073654,0.6230641603469849,0.5321864485740662,-0.1279188990592956,0.8234049677848816,0.7197595238685608,-0.0697558000683784,0.7399411797523499,0.6341366767883301,-0.1071210205554962,0.6909977793693542,0.6058350205421448,-0.1197208985686302,0.6587823629379272,0.587360143661499,-0.1215282529592514
2023-08-01 16:28:17.342257,28,545,0.967488408088684,0.0070211864076554,0.2259145081043243,-0.1134877577424049,-0.3740234375,0.845703125,0.11328125,0.7020077705383301,0.8321524858474731,-7.699958928242268e-07,0.6756182909011841,0.6904777884483337,-0.0233188048005104,0.6765545010566711,0.5845367312431335,-0.0467090122401714,0.6700727939605713,0.5025290846824646,-0.0702578723430633,0.6652825474739075,0.4467780590057373,-0.0924319848418235,0.8560439348220825,0.5799154043197632,-0.0359958373010158,0.7918833494186401,0.4795361161231994,-0.0790808871388435,0.7284300327301025,0.4564799070358276,-0.1052479147911071,0.679078221321106,0.4587927758693695,-0.1180107370018959,0.8678805828094482,0.6233183741569519,-0.044617049396038,0.797763466835022,0.4972194731235504,-0.0921628251671791,0.7206891775131226,0.4793866872787475,-0.1136089116334915,0.6665775179862976,0.4852227866649627,-0.1205257549881935,0.8537232875823975,0.6681385040283203,-0.0569605156779289,0.7466062307357788,0.5617320537567139,-0.1066608875989914,0.6667259335517883,0.5416020154953003,-0.1207004934549331,0.617091178894043,0.538576066493988,-0.1197359338402748,0.8171048164367676,0.7071865797042847,-0.0700630769133567,0.7336329817771912,0.6232067942619324,-0.1045574694871902,0.6840003728866577,0.5956069827079773,-0.1139432787895202,0.6526298522949219,0.5770004987716675,-0.1134872063994407
2023-08-01 16:28:17.405411,29,546,0.9677661061286926,0.0060692969709634,0.2290207743644714,-0.1046013012528419,-0.42236328125,0.82763671875,0.20703125,0.7006608843803406,0.8343650102615356,-7.841006208764156e-07,0.6760513782501221,0.6893247365951538,-0.0164418220520019,0.682278573513031,0.5835402607917786,-0.03623703494668,0.6781250834465027,0.5031044483184814,-0.0575404688715934,0.6720187067985535,0.4425091743469238,-0.0783843100070953,0.8535991907119751,0.5820865035057068,-0.0313093662261962,0.7897868156433105,0.4778207838535309,-0.0732153058052063,0.7247070074081421,0.4492316246032715,-0.099910944700241,0.67209392786026,0.4455297589302063,-0.1132032871246337,0.863914430141449,0.6230121850967407,-0.0427063591778278,0.7983852624893188,0.492601603269577,-0.086968220770359,0.7246093153953552,0.4626853466033935,-0.1090285405516624,0.6696025133132935,0.4592451751232147,-0.118150308728218,0.8493577241897583,0.6637952923774719,-0.0570341385900974,0.7470811605453491,0.551262617111206,-0.1026302874088287,0.6688264608383179,0.5312774777412415,-0.1160664558410644,0.619539201259613,0.5300781726837158,-0.1165977641940116,0.8131689429283142,0.6998144388198853,-0.0718045160174369,0.7295691967010498,0.6107386350631714,-0.1042573451995849,0.6784834861755371,0.583580732345581,-0.1128491088747978,0.6456812024116516,0.5682249069213867,-0.1128105223178863
2023-08-01 16:28:17.465042,30,547,0.9688521027565002,0.005062093026936,0.2267549186944961,-0.0994085073471069,-0.2783203125,0.87646484375,0.03955078125,0.7020258903503418,0.8268474340438843,-7.903048526713974e-07,0.6720789670944214,0.6798499822616577,-0.0195657424628734,0.6755760312080383,0.5745700597763062,-0.0413939766585826,0.6685025691986084,0.4959042966365814,-0.0641417354345321,0.6585109829902649,0.4365308880805969,-0.0863969847559928,0.848901629447937,0.572399377822876,-0.0368444435298442,0.7854579091072083,0.4662497341632843,-0.0797004848718643,0.7179155349731445,0.4409235417842865,-0.1061561182141304,0.6645350456237793,0.4389974176883697,-0.119582399725914,0.8604844212532043,0.6141520142555237,-0.0479482412338256,0.7959577441215515,0.4801523089408874,-0.0947864353656768,0.716242790222168,0.4524288475513458,-0.1179914996027946,0.6599356532096863,0.4500616192817688,-0.1275963187217712,0.8463402390480042,0.6554309725761414,-0.0619777403771877,0.7439379096031189,0.5454965233802795,-0.1099030300974845,0.6632090210914612,0.5240916609764099,-0.1256153434514999,0.6149998903274536,0.519202709197998,-0.1274273097515106,0.8104989528656006,0.6919130086898804,-0.0764793455600738,0.7289009094238281,0.6055682897567749,-0.109704777598381,0.6781104207038879,0.5771679282188416,-0.1193409487605094,0.64723140001297,0.5586762428283691,-0.1203050836920738
2023-08-01 16:28:17.526829,31,548,0.970218062400818,0.0023675207048654,0.2232446819543838,-0.0939850881695747,-0.4560546875,0.84716796875,0.20166015625,0.6993047595024109,0.8295878767967224,-7.769264129819931e-07,0.6727703213691711,0.6839398741722107,-0.0169447623193264,0.675959587097168,0.5770925879478455,-0.03735913336277,0.6657075881958008,0.4944037497043609,-0.0591569617390632,0.6575666666030884,0.4363930225372314,-0.0808318778872489,0.8502966165542603,0.574734628200531,-0.0303376074880361,0.7845737338066101,0.4712068736553192,-0.0709664821624755,0.7198172807693481,0.4404720664024353,-0.0982371643185615,0.6685041785240173,0.4332869350910187,-0.1130523681640625,0.861092746257782,0.6164351105690002,-0.0419349148869514,0.7969745993614197,0.4853515923023224,-0.0850967839360237,0.7211939096450806,0.4556457996368408,-0.1089468225836753,0.665908932685852,0.450446605682373,-0.1203719601035118,0.8463689684867859,0.6570228934288025,-0.0562870986759662,0.7476484775543213,0.5453489422798157,-0.1011439636349678,0.6682858467102051,0.5211157202720642,-0.1173142418265342,0.6183446645736694,0.5146756172180176,-0.1206291392445564,0.8097490072250366,0.6922767162322998,-0.0709913000464439,0.7275024652481079,0.6055168509483337,-0.1033019721508026,0.6768871545791626,0.5779256820678711,-0.1136545687913894,0.6447786092758179,0.5604045391082764,-0.1156132072210311
2023-08-01 16:28:17.586906,32,549,0.9712792038917542,-0.000787743658293,0.2203295230865478,-0.0898381322622299,-0.46484375,0.85498046875,0.18310546875,0.7010170221328735,0.8195575475692749,-7.627465379300702e-07,0.6663568019866943,0.6646122932434082,-0.0036610176321119,0.6719158887863159,0.5635488033294678,-0.0167708415538072,0.6721741557121277,0.4906591475009918,-0.0335903167724609,0.6720575094223022,0.4350606203079223,-0.0507935173809528,0.8381400108337402,0.5639798641204834,-0.0153934452682733,0.7840620875358582,0.4552846848964691,-0.0477161146700382,0.7232626676559448,0.4243036806583404,-0.0689893886446952,0.6748804450035095,0.4203167557716369,-0.0801956802606582,0.8479729890823364,0.5964561104774475,-0.0306991729885339,0.7898834943771362,0.4609709978103637,-0.0661650002002716,0.7156380414962769,0.4288072288036346,-0.0872186720371246,0.6612325310707092,0.4260660409927368,-0.0973735749721527,0.8337482213973999,0.6288925409317017,-0.0476994328200817,0.736126720905304,0.5200135707855225,-0.0852852761745452,0.6600074172019958,0.4961214959621429,-0.1025266200304031,0.6136795878410339,0.4909999966621399,-0.1081014722585678,0.7973841428756714,0.6555067300796509,-0.0639938190579414,0.7140969634056091,0.5729342699050903,-0.0884081348776817,0.6638644933700562,0.5444213151931763,-0.0981998518109321,0.6332429647445679,0.5263609886169434,-0.1017371863126754
2023-08-01 16:28:17.649068,33,550,0.9744194746017456,-0.0033144517801702,0.2085165083408355,-0.0837646201252937,-0.3525390625,0.92041015625,0.07275390625,0.7018486261367798,0.8197045922279358,-7.940320188026817e-07,0.6649558544158936,0.6656769514083862,-0.000349498266587,0.6699320077896118,0.5622836351394653,-0.0113648800179362,0.6684996485710144,0.4856177568435669,-0.0265158955007791,0.6676046848297119,0.4256315231323242,-0.0421529524028301,0.8364121317863464,0.5563701391220093,-0.0118902893736958,0.7793816328048706,0.4494269490242004,-0.0425440929830074,0.717696487903595,0.4182701706886291,-0.06368338316679,0.6707940101623535,0.4119550883769989,-0.0753542855381965,0.8455300331115723,0.5888497233390808,-0.0280781090259552,0.7829749584197998,0.4544050097465515,-0.0606203600764274,0.7092679142951965,0.4235204756259918,-0.0814191848039627,0.6564857959747314,0.4188075065612793,-0.0925723165273666,0.8304453492164612,0.6215366125106812,-0.0455915965139865,0.7301982045173645,0.5124692320823669,-0.0805613324046135,0.6547676920890808,0.4876171350479126,-0.097682885825634,0.607120156288147,0.4792411029338836,-0.1042687892913818,0.793416440486908,0.6485073566436768,-0.0621001571416854,0.7063773274421692,0.5652436017990112,-0.085501842200756,0.6562360525131226,0.5375062823295593,-0.0955665633082389,0.6241467595100403,0.5175486207008362,-0.0996154099702835
2023-08-01 16:28:17.717500,34,551,0.9776071310043336,-0.0059363734908401,0.1960173994302749,-0.0763305127620697,-0.44384765625,0.92919921875,0.12109375,0.7073544263839722,0.8267272114753723,-7.972370781317295e-07,0.6602920889854431,0.66961270570755,0.0037222427781671,0.6581611633300781,0.5639842748641968,-0.00565519137308,0.6534655690193176,0.4868035316467285,-0.0203336793929338,0.651608943939209,0.4277282953262329,-0.0355789139866828,0.81983482837677,0.5443745851516724,-0.0048687797971069,0.7607005834579468,0.4413697123527527,-0.0337674841284751,0.6990520358085632,0.412870705127716,-0.055425651371479,0.6517379283905029,0.4054162204265594,-0.0677226111292839,0.829230010509491,0.5738899111747742,-0.0224612727761268,0.7624112367630005,0.4464533925056457,-0.0528412833809852,0.6897725462913513,0.4170299768447876,-0.0742105916142463,0.6386882662773132,0.4131287336349487,-0.0864813402295112,0.8155516386032104,0.6063767671585083,-0.0413264334201812,0.719936728477478,0.5032309293746948,-0.0739090964198112,0.6458470225334167,0.4784926772117615,-0.0913201570510864,0.5977648496627808,0.472100555896759,-0.0986364260315895,0.7807853817939758,0.6341375708580017,-0.0590272471308708,0.6959935426712036,0.556058943271637,-0.0808136984705925,0.6471688747406006,0.5272606015205383,-0.0909284874796867,0.6138989925384521,0.5078343749046326,-0.0952493995428085
2023-08-01 16:28:17.779289,35,552,0.9797434210777284,-0.0081381760537624,0.1873192191123962,-0.0703424885869026,-0.35546875,0.8623046875,0.2099609375,0.7045801877975464,0.8171893358230591,-7.124206149455858e-07,0.6565326452255249,0.6684920787811279,0.0071434392593801,0.6563024520874023,0.5636129975318909,0.0003695690829772,0.6550899147987366,0.4866496920585632,-0.0122112268581986,0.656779408454895,0.4297595918178558,-0.025219215080142,0.8089618682861328,0.5413873791694641,-0.0023901944514364,0.7551034092903137,0.4375189840793609,-0.0289600472897291,0.696061372756958,0.4087037444114685,-0.0477028116583824,0.6515523791313171,0.4022845029830932,-0.0579098835587501,0.8203471302986145,0.5704044103622437,-0.0209458116441965,0.7606544494628906,0.4378181397914886,-0.0498843118548393,0.6903479099273682,0.4088028073310852,-0.0688676983118057,0.6387938857078552,0.4067128896713257,-0.0788591206073761,0.8088696002960205,0.6021131873130798,-0.0404633283615112,0.7148321866989136,0.4970694780349731,-0.0712882876396179,0.6418956518173218,0.47614786028862,-0.0868408605456352,0.5940583348274231,0.4718755781650543,-0.0926425755023956,0.7748522162437439,0.6288867592811584,-0.0585230253636837,0.6938788890838623,0.5478626489639282,-0.0791583284735679,0.646156370639801,0.5230944752693176,-0.0881050452589988,0.6140633225440979,0.5078192949295044,-0.0915416330099105
2023-08-01 16:28:17.839423,36,553,0.981822669506073,-0.0100925955921411,0.1777775287628173,-0.0657084062695503,-0.37744140625,0.87451171875,0.2255859375,0.7053217887878418,0.8152323961257935,-7.099202434801555e-07,0.6549006700515747,0.6703810095787048,0.0092042023316025,0.652755856513977,0.5649576783180237,0.0037099290639162,0.6499611139297485,0.4878952205181122,-0.0082610305398702,0.6497598886489868,0.4290031194686889,-0.0205129794776439,0.8016129732131958,0.5347380638122559,0.0034241161774843,0.7497830390930176,0.4356104135513305,-0.0225683450698852,0.6913564205169678,0.4073544144630432,-0.042162712663412,0.6453341245651245,0.4004278481006622,-0.0529835373163223,0.8139621019363403,0.5615423321723938,-0.016193863004446,0.7560416460037231,0.4343592524528503,-0.042546596378088,0.6876326203346252,0.404289186000824,-0.0612348690629005,0.6364645957946777,0.3998327851295471,-0.0716381818056106,0.8042515516281128,0.5930741429328918,-0.0371030606329441,0.7105213403701782,0.4911297559738159,-0.0657189264893531,0.6369178891181946,0.4713152348995209,-0.0805930271744728,0.5878376364707947,0.467018723487854,-0.0865805074572563,0.772243857383728,0.6214544773101807,-0.0566728375852108,0.6903883814811707,0.5419014692306519,-0.075483351945877,0.6412338018417358,0.5171370506286621,-0.0833496749401092,0.6070758104324341,0.5011299252510071,-0.086526058614254
2023-08-01 16:28:17.903065,37,554,0.9849163889884948,-0.012250866740942,0.1612579226493835,-0.0615268573164939,-0.27734375,0.90185546875,0.12060546875,0.7038315534591675,0.8130736947059631,-7.065460749799968e-07,0.655448317527771,0.6734319925308228,0.0094092544168233,0.6515600085258484,0.5659328699111938,0.0030577445868402,0.6451855897903442,0.4878712594509125,-0.0101310638710856,0.6429345011711121,0.4268333911895752,-0.02363265119493,0.8003157377243042,0.5347753167152405,0.0028808109927922,0.7510679960250854,0.4343268275260925,-0.0254199858754873,0.6920202970504761,0.4058876633644104,-0.0466943122446537,0.6454200744628906,0.3998420238494873,-0.0585677325725555,0.8131808042526245,0.5618377923965454,-0.0177907776087522,0.7566311955451965,0.4325447678565979,-0.0462500229477882,0.6873305439949036,0.403259128332138,-0.0653593689203262,0.6353456377983093,0.4011897444725036,-0.0756925418972969,0.8035279512405396,0.5938445329666138,-0.0399898327887058,0.7123458385467529,0.4897632002830505,-0.0702300444245338,0.6390618681907654,0.4717910289764404,-0.0845044180750846,0.5900064706802368,0.4693123698234558,-0.0897766426205635,0.7716971039772034,0.6228582859039307,-0.0608532056212425,0.691550076007843,0.5424599051475525,-0.0815641060471534,0.6428163051605225,0.5184073448181152,-0.0897854268550872,0.6094401478767395,0.502363920211792,-0.0929232984781265
2023-08-01 16:28:17.967260,38,555,0.9866836071014404,-0.0139398872852325,0.1510975956916809,-0.0585707016289234,-0.39599609375,0.896484375,0.18017578125,0.7172824740409851,0.8244832158088684,-6.798150025133509e-07,0.6546132564544678,0.6824801564216614,0.0137608386576175,0.6419777870178223,0.5742587447166443,0.0091632967814803,0.6245267987251282,0.4958245456218719,-0.0037802101578563,0.610722541809082,0.4338527917861938,-0.0171054452657699,0.7854788899421692,0.5270835161209106,0.0135991759598255,0.7365353107452393,0.425414890050888,-0.0111429970711469,0.6798481941223145,0.3982020914554596,-0.0319396331906318,0.6333731412887573,0.3919150829315185,-0.0436174534261226,0.7985864281654358,0.5498984456062317,-0.0092654144391417,0.7400957345962524,0.4198310077190399,-0.0336895622313022,0.6712421774864197,0.3944039344787597,-0.0534799769520759,0.6194781064987183,0.3942041397094726,-0.0646718516945838,0.7914180159568787,0.5805081129074097,-0.033719964325428,0.6986584663391113,0.4802600145339966,-0.0590292364358902,0.6241589784622192,0.4633597731590271,-0.0742915049195289,0.573569655418396,0.4614025950431824,-0.0810917690396308,0.7621370553970337,0.6095921397209167,-0.056869801133871,0.6813592910766602,0.5310492515563965,-0.0715127065777778,0.6317669749259949,0.5033394694328308,-0.0781775936484336,0.5957214832305908,0.4841744303703308,-0.0814236849546432
2023-08-01 16:28:18.029275,39,556,0.9879727959632874,-0.0152727551758289,0.1429233998060226,-0.0570048615336418,-0.30224609375,0.91552734375,0.19677734375,0.7160319089889526,0.8218324780464172,-6.901055940033984e-07,0.65580815076828,0.689145565032959,0.0118751553818583,0.6400709748268127,0.5782760977745056,0.0063760541379451,0.6199110746383667,0.5005818605422974,-0.0071270712651312,0.6012263298034668,0.4363314509391784,-0.0205683447420597,0.7796235680580139,0.520465612411499,0.0140383578836917,0.7286482453346252,0.4274432957172394,-0.0143897160887718,0.671323299407959,0.400282084941864,-0.0390049219131469,0.6232563853263855,0.3951669335365295,-0.0534062981605529,0.7955342531204224,0.5413329005241394,-0.008996220305562,0.7326083183288574,0.4172280430793762,-0.0351471900939941,0.6643204689025879,0.3980748057365417,-0.0553688257932662,0.6123461127281189,0.4008621275424957,-0.0671911239624023,0.7910013198852539,0.5736579298973083,-0.0344714559614658,0.7025818228721619,0.4728079438209533,-0.0601018965244293,0.6305573582649231,0.4588676691055298,-0.0728114023804664,0.5790197849273682,0.4574346542358398,-0.0786659494042396,0.7623544335365295,0.6098237037658691,-0.0592718720436096,0.6848356127738953,0.5320080518722534,-0.0764131844043731,0.6358097791671753,0.5067892074584961,-0.0829900205135345,0.599355936050415,0.487125813961029,-0.0862619578838348
2023-08-01 16:28:18.085374,40,557,0.9896050095558168,-0.0175250116735696,0.1315972656011581,-0.0552897341549396,-0.2890625,0.89697265625,0.28125,0.7216960191726685,0.8264334201812744,-6.919225938872842e-07,0.6583256721496582,0.6947169303894043,0.0153242722153663,0.640470564365387,0.5834205746650696,0.0115462793037295,0.6183397769927979,0.5055342316627502,-0.0013005519285798,0.5992299914360046,0.4424278140068054,-0.0141955520957708,0.7769336104393005,0.5205249786376953,0.0208553597331047,0.7241561412811279,0.4276744127273559,-0.0060091773048043,0.6657724380493164,0.3992690443992615,-0.0303278714418411,0.6159851551055908,0.3925195336341858,-0.0445659048855304,0.7928807139396667,0.5386941432952881,-0.0037279094103723,0.7272074222564697,0.4162755608558655,-0.0275219473987817,0.6583462357521057,0.3958619832992553,-0.0471352264285087,0.6059368848800659,0.3969581723213196,-0.0589435286819934,0.7891921997070312,0.5694707036018372,-0.0309001393616199,0.700100839138031,0.4697023928165436,-0.0545036122202873,0.6282492876052856,0.4568952918052673,-0.0668039619922638,0.5763312578201294,0.4575245380401611,-0.0726748406887054,0.7619994282722473,0.6050738096237183,-0.0573502071201801,0.6841169595718384,0.5279195308685303,-0.072593443095684,0.6348354816436768,0.5031857490539551,-0.0785011127591133,0.5975839495658875,0.4850187003612518,-0.081563226878643
2023-08-01 16:28:18.147868,41,558,0.9905425310134888,-0.0173432100564241,0.1241653189063072,-0.0557467862963676,-0.26171875,0.90283203125,0.24072265625,0.7202935814857483,0.8256770968437195,-6.933275358278479e-07,0.6596397161483765,0.6957724690437317,0.0161102395504713,0.6407589316368103,0.5856618285179138,0.0110095627605915,0.6144676804542542,0.5075312256813049,-0.003626599907875,0.5899494886398315,0.4432697892189026,-0.0181401949375867,0.7772205471992493,0.5232546925544739,0.0208860039710998,0.7241904139518738,0.4285143911838531,-0.006382206454873,0.6642792224884033,0.4052928686141968,-0.0311994161456823,0.6141335368156433,0.4044834971427917,-0.0459238849580287,0.7934415936470032,0.5397912263870239,-0.0044801402837038,0.7271613478660583,0.4141879081726074,-0.0283738300204277,0.6578508019447327,0.3969209492206573,-0.0481227375566959,0.6052141189575195,0.4011014401912689,-0.0604648403823375,0.78999924659729,0.5684446692466736,-0.0323683731257915,0.7014240622520447,0.4650317430496216,-0.0545429028570652,0.6302831172943115,0.4522800147533417,-0.0659922584891319,0.578052818775177,0.4539799690246582,-0.0721548572182655,0.7623031139373779,0.602195680141449,-0.0596484094858169,0.682101309299469,0.5248507261276245,-0.0739488080143928,0.6314237713813782,0.4993043839931488,-0.0798103436827659,0.5925967693328857,0.4808852076530456,-0.0834134742617607
2023-08-01 16:28:18.207812,42,559,0.9912819862365724,-0.0165107771754264,0.1179956942796707,-0.0562535300850868,-0.3779296875,0.91064453125,0.1875,0.7302156686782837,0.8395407199859619,-7.240359423121845e-07,0.6609723567962646,0.7083900570869446,0.0263797212392091,0.6401562094688416,0.6002748608589172,0.0279985852539539,0.6158345937728882,0.5229531526565552,0.0168194789439439,0.5938464403152466,0.4575961232185364,0.0048283208161592,0.761238157749176,0.5238187313079834,0.0410280637443065,0.7089036703109741,0.4355303049087524,0.0198083203285932,0.6554876565933228,0.4140024483203888,-0.002114079426974,0.6118228435516357,0.413087785243988,-0.0155702577903866,0.7784711122512817,0.5379552841186523,0.0100687844678759,0.7158039808273315,0.4229776859283447,-0.010634715668857,0.6492699980735779,0.4079238772392273,-0.0308072119951248,0.5979608297348022,0.4181360304355621,-0.0427460744976997,0.7793118357658386,0.5670128464698792,-0.0233454667031765,0.6920004487037659,0.4749061167240143,-0.0442835725843906,0.6225228309631348,0.4662597775459289,-0.057432934641838,0.5733275413513184,0.4722925722599029,-0.0641888603568077,0.7585687637329102,0.6033317446708679,-0.0555479079484939,0.6780313849449158,0.5326146483421326,-0.0686922073364257,0.6276429295539856,0.5100877285003662,-0.0744250491261482,0.5901488065719604,0.4948751926422119,-0.0777094811201095
2023-08-01 16:28:18.278781,43,560,0.9927997589111328,-0.0167765412479639,0.1052808687090873,-0.0546186380088329,-0.2841796875,0.91259765625,0.1708984375,0.7241224050521851,0.8379789590835571,-6.710216666760971e-07,0.6601687669754028,0.711127758026123,0.0239297691732645,0.6394657492637634,0.6010130643844604,0.0235368106514215,0.6110637187957764,0.5261769890785217,0.0107661662623286,0.5812929272651672,0.4619429111480713,-0.0022542357910424,0.7610349655151367,0.5221799612045288,0.0409433580935001,0.705329418182373,0.4410175681114197,0.0170785672962665,0.6492307782173157,0.4211886823177337,-0.0078561948612332,0.6033487319946289,0.4208113551139831,-0.0236347783356905,0.7796052694320679,0.5339477062225342,0.0099408030509948,0.7156455516815186,0.4219015836715698,-0.012810118496418,0.6511431932449341,0.4088790118694305,-0.0339686684310436,0.6012259721755981,0.4175500571727752,-0.0466202050447464,0.7806842923164368,0.5624578595161438,-0.0240642093122005,0.6946285963058472,0.4668648242950439,-0.0454211346805095,0.6266360282897949,0.456039547920227,-0.0562168359756469,0.5772627592086792,0.4585559666156769,-0.0616410411894321,0.7581251263618469,0.600857675075531,-0.0574163012206554,0.6765525937080383,0.5309366583824158,-0.0720154643058776,0.6237533092498779,0.5074491500854492,-0.0770896226167678,0.5836325883865356,0.4913354516029358,-0.079809159040451
2023-08-01 16:28:18.354986,44,561,0.9933183193206788,-0.0171003956347703,0.1004883274435997,-0.0541150271892547,-0.41357421875,0.9248046875,0.154296875,0.7408639788627625,0.8496339321136475,-6.928139555384405e-07,0.6698967814445496,0.7222194075584412,0.0273850113153457,0.6421828866004944,0.6148445010185242,0.0275038890540599,0.6101028919219971,0.5402700901031494,0.0136978114023804,0.5801029205322266,0.4756049215793609,-0.0002757116162683,0.7573873400688171,0.52739417552948,0.0479804128408432,0.7020750641822815,0.4446181058883667,0.0230858419090509,0.6475303173065186,0.4271882176399231,-0.0032320264726877,0.6035359501838684,0.4316044747829437,-0.0199797265231609,0.7771717309951782,0.536128580570221,0.0140604870393872,0.7104323506355286,0.4204453825950622,-0.00793092045933,0.6476967930793762,0.4120785593986511,-0.0298113729804754,0.6008066534996033,0.428219735622406,-0.043325699865818,0.7828710675239563,0.5622905492782593,-0.0231981351971626,0.6971283555030823,0.4686638116836548,-0.0430980809032917,0.6289237141609192,0.4632716178894043,-0.0543110445141792,0.5792036652565002,0.4734371900558471,-0.0607381127774715,0.7662180662155151,0.6001970171928406,-0.0599447079002857,0.6819310188293457,0.5400044918060303,-0.0733973458409309,0.6291650533676147,0.520556628704071,-0.079157255589962,0.5882874131202698,0.5081731081008911,-0.0828438103199005
2023-08-01 16:28:18.411949,45,562,0.9940296411514282,-0.0183132402598857,0.0939086526632309,-0.0524482317268848,-0.28369140625,0.90234375,0.2763671875,0.7385674118995667,0.8510832786560059,-6.332375619422237e-07,0.6683096885681152,0.725110650062561,0.0258249212056398,0.6418119072914124,0.6167537569999695,0.0266168694943189,0.6111058592796326,0.5418717861175537,0.0146812656894326,0.5784755945205688,0.4806313812732696,0.0026446566917002,0.7604259848594666,0.5295922160148621,0.0448067933320999,0.7048508524894714,0.4483431577682495,0.0240853335708379,0.6508032083511353,0.4299230575561523,0.0018074321560561,0.6078249216079712,0.4288290441036224,-0.0124124437570571,0.7794872522354126,0.5384876728057861,0.0135838501155376,0.7146997451782227,0.4265841245651245,-0.0062515125609934,0.6533060073852539,0.414836049079895,-0.025830116122961,0.6064371466636658,0.4244847297668457,-0.037409707903862,0.7826212048530579,0.5651484131813049,-0.0204412899911403,0.693703830242157,0.475992888212204,-0.0396490171551704,0.6270087361335754,0.4672053158283233,-0.0501228310167789,0.5783922672271729,0.4712943434715271,-0.0554575733840465,0.7626095414161682,0.6038818359375,-0.0536810643970966,0.6782989501953125,0.540614128112793,-0.0659656748175621,0.6247321963310242,0.5214170813560486,-0.0698500797152519,0.5827450752258301,0.5083410739898682,-0.0718598216772079
2023-08-01 16:28:18.473136,46,563,0.9939608573913574,-0.0186317283660173,0.0939069017767906,-0.0536296665668487,-0.26904296875,0.8916015625,0.33349609375,0.738928496837616,0.8503503799438477,-6.810422519265558e-07,0.6678920984268188,0.7297323942184448,0.0238849557936191,0.6407673358917236,0.6194653511047363,0.0245027970522642,0.6115828156471252,0.5439307689666748,0.0129460403695702,0.5809542536735535,0.4819696545600891,0.0016337803099304,0.7580887675285339,0.5271307826042175,0.0407935120165348,0.7020735740661621,0.4402128458023071,0.0190466325730085,0.6468573808670044,0.4245854616165161,-0.0028282434213906,0.6042654514312744,0.431182861328125,-0.0160400252789258,0.7767713069915771,0.5385404229164124,0.0111907105892896,0.7057755589485168,0.427380621433258,-0.0072111063636839,0.6424367427825928,0.4201852679252624,-0.0252868216484785,0.5965487957000732,0.4358050227165222,-0.0363250896334648,0.7799369096755981,0.5668156147003174,-0.0214397348463535,0.6904368996620178,0.476350873708725,-0.0394507423043251,0.6224056482315063,0.468379408121109,-0.0493078678846359,0.573678195476532,0.4757314026355743,-0.0547828450798988,0.760521650314331,0.6067625284194946,-0.0534390248358249,0.6760959625244141,0.5421998500823975,-0.0663243159651756,0.6216185688972473,0.5233261585235596,-0.0712079331278801,0.5794479846954346,0.5123680830001831,-0.0738125145435333
2023-08-01 16:28:18.538150,47,564,0.9938995838165284,-0.0176475588232278,0.0939017534255981,-0.0550889894366264,-0.34375,0.91650390625,0.21240234375,0.7389489412307739,0.8507472276687622,-6.667648335678678e-07,0.6683283448219299,0.732543408870697,0.0228338427841663,0.6422712206840515,0.621978759765625,0.0237619392573833,0.61327064037323,0.5475028157234192,0.0124299572780728,0.580387532711029,0.4878017604351043,0.0011882205726578,0.75644451379776,0.5301492810249329,0.0428937412798404,0.703144907951355,0.4465445578098297,0.0204512327909469,0.6471021771430969,0.4291806817054748,-0.0028077999595552,0.6021084785461426,0.4343202412128448,-0.0169584676623344,0.7755613327026367,0.5393643379211426,0.0137782841920852,0.7081239819526672,0.4312291145324707,-0.0054556201212108,0.6450448632240295,0.4216276109218597,-0.0250113885849714,0.5976197123527527,0.4337293803691864,-0.0368501879274845,0.7796873450279236,0.5665016770362854,-0.0186811946332454,0.6913107633590698,0.4759174585342407,-0.0376909039914608,0.6234483122825623,0.4679764807224273,-0.0484832003712654,0.5738369822502136,0.474254846572876,-0.0542270205914974,0.7617601156234741,0.6059709787368774,-0.0506434626877307,0.6770996451377869,0.5412405133247375,-0.0639029592275619,0.6225797533988953,0.5219860076904297,-0.0690331757068634,0.5801674127578735,0.5100634694099426,-0.0717495009303093
2023-08-01 16:28:18.593782,48,565,0.993983030319214,-0.0178342908620834,0.093030497431755,-0.0550011657178401,-0.3193359375,0.9111328125,0.1865234375,0.7403573989868164,0.855525016784668,-7.093985914252698e-07,0.669914722442627,0.7360957264900208,0.0286121927201747,0.6442025899887085,0.6273288130760193,0.0317973010241985,0.6156460642814636,0.553907573223114,0.0209436081349849,0.5853913426399231,0.4902295470237732,0.0098303575068712,0.7564126253128052,0.5336645245552063,0.0515903197228908,0.7025073170661926,0.4505798816680908,0.0301973968744277,0.6479756236076355,0.4346071183681488,0.0073407716117799,0.6047898530960083,0.4420098066329956,-0.0064608342945575,0.7760435342788696,0.5429581999778748,0.0191685389727354,0.7044164538383484,0.4387362599372864,0.0003975857689511,0.6401427388191223,0.4317798614501953,-0.0194998271763324,0.5925309658050537,0.4467546343803406,-0.0314033403992652,0.7815579771995544,0.5688507556915283,-0.0166352670639753,0.6907608509063721,0.4811915755271911,-0.0351698249578475,0.6218452453613281,0.4746524095535278,-0.0457384772598743,0.5720424652099609,0.4825031459331512,-0.0513660535216331,0.7660733461380005,0.6066824793815613,-0.0516182966530323,0.6789358258247375,0.5446458458900452,-0.0645127147436142,0.6235761046409607,0.527448832988739,-0.0693109706044197,0.5812311768531799,0.517234742641449,-0.0716963559389114
2023-08-01 16:28:18.661805,49,566,0.993767261505127,-0.0182937439531087,0.095315434038639,-0.0548336841166019,-0.32666015625,0.90869140625,0.22607421875,0.7444679737091064,0.8551711440086365,-7.24293840903556e-07,0.6719834208488464,0.7400362491607666,0.0280387904495,0.6473844647407532,0.6296200752258301,0.0318302623927593,0.6210031509399414,0.5570421814918518,0.0218017101287841,0.5909028053283691,0.4974050223827362,0.0115005197003483,0.7580253481864929,0.5323971509933472,0.0513624995946884,0.7072455286979675,0.4515416622161865,0.0290109533816576,0.6493480801582336,0.4392309188842773,0.0049176127649843,0.604697585105896,0.4508244395256042,-0.0095670893788337,0.7771991491317749,0.5411121845245361,0.0192829016596078,0.7098206877708435,0.4360554814338684,-0.0002086533932015,0.6457186341285706,0.4324994683265686,-0.0207445602864027,0.6001172065734863,0.4510416388511657,-0.0325151681900024,0.7826870083808899,0.5677099823951721,-0.0161850322037935,0.6952658295631409,0.4796352386474609,-0.0346746370196342,0.6267483830451965,0.4750200808048248,-0.0455006994307041,0.5782784223556519,0.4839171469211578,-0.0510519072413444,0.7678261995315552,0.6070874929428101,-0.0508626848459243,0.6810930967330933,0.5446779727935791,-0.0629790946841239,0.626407265663147,0.529089093208313,-0.0672848746180534,0.58589768409729,0.5204018354415894,-0.0692676678299903
2023-08-01 16:28:18.727761,50,567,0.993578314781189,-0.019005075097084,0.097437135875225,-0.0542864985764026,-0.30615234375,0.9052734375,0.24853515625,0.745805025100708,0.8576459884643555,-7.722971986368066e-07,0.6735437512397766,0.7403162717819214,0.0260584726929664,0.6474373936653137,0.629726231098175,0.0280834008008241,0.6197597980499268,0.5571036338806152,0.0164691861718893,0.5879988670349121,0.4966936707496643,0.0044143036939203,0.760193943977356,0.5309876203536987,0.047719832509756,0.7050472497940063,0.4490781724452972,0.0218259841203689,0.6459038853645325,0.4401898086071014,-0.004600060172379,0.6002712845802307,0.4560351967811584,-0.020195310935378,0.7806261777877808,0.540423572063446,0.0156380925327539,0.7082913517951965,0.4368867874145508,-0.007187099661678,0.640994131565094,0.436621755361557,-0.0293353348970413,0.5929607152938843,0.4583674669265747,-0.0419146940112113,0.78628009557724,0.5687867403030396,-0.0201303642243146,0.6987433433532715,0.4787316620349884,-0.0416074097156524,0.6283044219017029,0.4741691052913666,-0.0534187294542789,0.5779241323471069,0.4834460318088531,-0.059151642024517,0.7707445025444031,0.6107375025749207,-0.0551834553480148,0.6841553449630737,0.5478157997131348,-0.0703430026769638,0.628801167011261,0.5310546159744263,-0.0760209187865257,0.5872900485992432,0.5207302570343018,-0.0784502476453781
2023-08-01 16:28:18.795821,51,568,0.993076503276825,-0.0196002330631017,0.1018005013465881,-0.0552396215498447,-0.34130859375,0.9091796875,0.21728515625,0.7449867129325867,0.8597769737243652,-7.700534752075328e-07,0.6724469065666199,0.7396891713142395,0.029305437579751,0.6464744806289673,0.6308738589286804,0.0323141627013683,0.6175311803817749,0.5573770999908447,0.0211471002548933,0.5850904583930969,0.497001051902771,0.0096426792442798,0.7609817385673523,0.5315954685211182,0.0513721220195293,0.7043145895004272,0.4468799829483032,0.029675256460905,0.6462580561637878,0.4374733567237854,0.0059446538798511,0.6018214821815491,0.4518528878688812,-0.00858586281538,0.779246985912323,0.541149914264679,0.0185898002237081,0.7007136344909668,0.4370593428611755,0.0001740057341521,0.6343140006065369,0.4392703175544739,-0.0200673304498195,0.587646484375,0.4629689157009125,-0.0325387939810752,0.7830397486686707,0.5680574178695679,-0.0174531955271959,0.6925238370895386,0.4784338772296905,-0.0348280407488346,0.6239237785339355,0.4748992323875427,-0.0457897260785102,0.5747362375259399,0.4868041276931762,-0.0522265918552875,0.7660386562347412,0.6079941391944885,-0.0526740252971649,0.680525541305542,0.5465630292892456,-0.0655889511108398,0.6252939701080322,0.5297716856002808,-0.0712882280349731,0.5831253528594971,0.5214568376541138,-0.0744448080658912
2023-08-01 16:28:18.860107,52,569,0.9925872683525084,-0.0212357696145772,0.1059089452028274,-0.0557024031877517,-0.38916015625,0.904296875,0.22412109375,0.7476128935813904,0.8605291843414307,-7.259499170686468e-07,0.6719186902046204,0.7394940853118896,0.0298312436789274,0.6456599831581116,0.6311377882957458,0.0327934958040714,0.6168867349624634,0.5588893294334412,0.0211332030594348,0.5846637487411499,0.4983888566493988,0.0089475996792316,0.7589607834815979,0.5342833995819092,0.0535182692110538,0.7048360705375671,0.4542675018310547,0.0308801960200071,0.6474959254264832,0.4428948163986206,0.0060752783901989,0.6021233797073364,0.4543887972831726,-0.0090693291276693,0.7784059047698975,0.5429039001464844,0.019571166485548,0.7072309851646423,0.4385603070259094,-0.0002822604146786,0.6423231959342957,0.4366773962974548,-0.0217612665146589,0.5952524542808533,0.4568638801574707,-0.034545574337244,0.7834464311599731,0.5699222087860107,-0.0177684389054775,0.6942344903945923,0.4816249310970306,-0.0362413860857486,0.6250366568565369,0.4773256182670593,-0.0475070215761661,0.5754531025886536,0.4870922565460205,-0.0537137910723686,0.7673138976097107,0.6100201606750488,-0.0542875044047832,0.68031245470047,0.5481150150299072,-0.0664507299661636,0.6248723864555359,0.5320910811424255,-0.071066603064537,0.5830035209655762,0.5230874419212341,-0.0735491588711738
2023-08-01 16:28:18.920636,53,570,0.992080569267273,-0.0218440871685743,0.1102614998817443,-0.0560485646128654,-0.32177734375,0.8798828125,0.28515625,0.74809330701828,0.8633062243461609,-7.427905188706063e-07,0.6732622385025024,0.7414791584014893,0.0312229972332716,0.6467456817626953,0.6318871378898621,0.0349485389888286,0.6184989213943481,0.560409665107727,0.0239285007119178,0.5872254371643066,0.5004005432128906,0.0121590653434395,0.761401891708374,0.5343245267868042,0.0516225360333919,0.7064563632011414,0.4505757093429565,0.0292125791311264,0.6499776840209961,0.4378442764282226,0.0053472062572836,0.6051487922668457,0.4482508301734924,-0.009142561815679,0.7800760269165039,0.5444759130477905,0.0173776187002658,0.704309344291687,0.4420254230499267,-0.0028634329792112,0.638066828250885,0.4401618242263794,-0.0242651142179965,0.5904823541641235,0.4593290984630584,-0.0372322909533977,0.7837305068969727,0.5724557042121887,-0.0199662465602159,0.6926560401916504,0.4839468598365783,-0.03914026170969,0.6228421926498413,0.4790312647819519,-0.0509685911238193,0.5726061463356018,0.4880918264389038,-0.0576457008719444,0.766638994216919,0.61307293176651,-0.0561893247067928,0.6816200017929077,0.549540638923645,-0.0694697722792625,0.6266812682151794,0.5329923629760742,-0.0748732611536979,0.5847502946853638,0.5240789651870728,-0.077882632613182
2023-08-01 16:28:18.983283,54,571,0.9920033812522888,-0.0219248123466968,0.1111408174037933,-0.0556435771286487,-0.32861328125,0.90234375,0.2333984375,0.7433626651763916,0.8610466718673706,-7.018194310148829e-07,0.6701433062553406,0.7370474338531494,0.0315538980066776,0.641821563243866,0.6300657391548157,0.0342354103922843,0.6089488863945007,0.5586151480674744,0.022044401615858,0.5750912427902222,0.4969562292098999,0.0093312710523605,0.7589627504348755,0.5349124073982239,0.0551820807158947,0.6996611952781677,0.4563717246055603,0.0335041247308254,0.6421927809715271,0.4457443356513977,0.0090976143255829,0.5975590944290161,0.4557921886444092,-0.0062671233899891,0.7778754830360413,0.5429758429527283,0.02005160972476,0.7026358842849731,0.4357363581657409,0.0002925147418864,0.6376093626022339,0.4351378083229065,-0.0212457329034805,0.5903183221817017,0.4567734599113464,-0.0342303216457366,0.7813011407852173,0.5690673589706421,-0.0181911345571279,0.6897746324539185,0.4815837740898132,-0.0364019572734832,0.6212670803070068,0.4797238409519195,-0.0472724102437496,0.5723097324371338,0.491576075553894,-0.0532430447638034,0.7625826001167297,0.6085115075111389,-0.0554682128131389,0.6764259338378906,0.5510431528091431,-0.0674894079566001,0.62224280834198,0.5362122058868408,-0.0720705240964889,0.5810259580612183,0.5278909206390381,-0.0746483951807022
2023-08-01 16:28:19.049182,55,572,0.991801619529724,-0.0220277700573205,0.1125918626785278,-0.0562793463468551,-0.31005859375,0.91455078125,0.2109375,0.7421612739562988,0.8600496053695679,-7.101555752342392e-07,0.6687932014465332,0.7381970286369324,0.0262715835124254,0.6397050619125366,0.6282514333724976,0.0271671414375305,0.6075035333633423,0.5545136332511902,0.0149812083691358,0.574057400226593,0.4952011704444885,0.0026215699035674,0.759361982345581,0.534748911857605,0.0441543273627758,0.7017765045166016,0.4510720670223236,0.0209707207977771,0.6429225206375122,0.4388889670372009,-0.0029808515682816,0.5965574979782104,0.4488757252693176,-0.0175732430070638,0.778215765953064,0.5436538457870483,0.0126739265397191,0.7049015760421753,0.4311985373497009,-0.0077413958497345,0.639601469039917,0.4295102059841156,-0.0281710028648376,0.5926738381385803,0.4501600265502929,-0.0402760840952396,0.7813313603401184,0.5710211396217346,-0.0217299293726682,0.68958979845047,0.4789591431617737,-0.0404864028096199,0.6208261251449585,0.4758871495723724,-0.0513183698058128,0.5716727375984192,0.4871330261230469,-0.057152722030878,0.7620896100997925,0.6115483641624451,-0.0553534254431724,0.6757118105888367,0.5483472347259521,-0.0679658502340316,0.620315670967102,0.5303843021392822,-0.0729901045560836,0.577857255935669,0.5196722745895386,-0.0757524073123931
2023-08-01 16:28:19.108987,56,573,0.9916436672210692,-0.0222033504396677,0.1135711073875427,-0.0570224747061729,-0.3115234375,0.8876953125,0.27197265625,0.7428305745124817,0.8642151355743408,-7.1620667085881e-07,0.669009268283844,0.7360071539878845,0.0308155864477157,0.6382140517234802,0.6277886629104614,0.0319537781178951,0.6036666631698608,0.5550898909568787,0.0186856277287006,0.571973443031311,0.4920830130577087,0.0050091901794075,0.7602579593658447,0.5344677567481995,0.0486755594611167,0.697248637676239,0.4520663022994995,0.0260528475046157,0.6386798024177551,0.4413776099681854,0.0024855758529156,0.594769299030304,0.4524086117744446,-0.0119445212185382,0.7784141898155212,0.5453720688819885,0.0139142563566565,0.7012871503829956,0.4327124357223511,-0.0056977476924657,0.6349096894264221,0.4311853647232055,-0.0256639383733272,0.5887424945831299,0.4537326693534851,-0.0378357470035553,0.7807989120483398,0.5734845995903015,-0.0235817469656467,0.6859624981880188,0.4837175011634826,-0.041165567934513,0.6160574555397034,0.4809745550155639,-0.0510755702853202,0.5677787065505981,0.4940667450428009,-0.0568105690181255,0.7608082294464111,0.6138585209846497,-0.0601146705448627,0.673599362373352,0.5517176389694214,-0.0711906403303146,0.6189005970954895,0.5352962613105774,-0.0749288648366928,0.5778244733810425,0.5269193649291992,-0.0771276950836181
