Timestamp,Index,Frame ID,w,x,y,z,ax,ay,az,x_0,y_0,z_0,x_1,y_1,z_1,x_2,y_2,z_2,x_3,y_3,z_3,x_4,y_4,z_4,x_5,y_5,z_5,x_6,y_6,z_6,x_7,y_7,z_7,x_8,y_8,z_8,x_9,y_9,z_9,x_10,y_10,z_10,x_11,y_11,z_11,x_12,y_12,z_12,x_13,y_13,z_13,x_14,y_14,z_14,x_15,y_15,z_15,x_16,y_16,z_16,x_17,y_17,z_17,x_18,y_18,z_18,x_19,y_19,z_19,x_20,y_20,z_20
2023-08-01 16:27:46.181070,0,61,0.9982186555862428,-0.0218212213367223,-0.0519909746944904,0.0195018835365772,0.0029296875,0.89697265625,0.3740234375,0.7495288848876953,0.8267931938171387,-6.816041491219949e-07,0.6728293299674988,0.7434393763542175,0.0067369914613664,0.630499541759491,0.645466148853302,0.0032066274434328,0.5869563221931458,0.5797387957572937,-0.0102968616411089,0.541951060295105,0.5316195487976074,-0.0231889504939317,0.7109778523445129,0.5417922735214233,0.0408072657883167,0.6491016745567322,0.4762729406356811,0.0120595004409551,0.5925567150115967,0.478433609008789,-0.0186427738517522,0.5463374257087708,0.4984898269176483,-0.0371303223073482,0.7345998883247375,0.5361911654472351,0.0197090227156877,0.6557844877243042,0.4538733959197998,-0.0075830426067113,0.5918013453483582,0.4699747562408447,-0.0358298532664775,0.5467946529388428,0.5013863444328308,-0.052941583096981,0.7501096129417419,0.550506055355072,-0.0064672003500163,0.6794677972793579,0.4572365283966064,-0.033735129982233,0.6131004691123962,0.4748234450817108,-0.0491491556167602,0.5670304894447327,0.5105979442596436,-0.0548890866339206,0.7488406896591187,0.5807275176048279,-0.0329665914177894,0.6806697845458984,0.5171381235122681,-0.0519594550132751,0.630757749080658,0.5131707191467285,-0.0586474798619747,0.593700647354126,0.5236831903457642,-0.0604883916676044
2023-08-01 16:27:46.238030,1,62,0.9988594651222228,-0.0223322547972202,-0.0399763733148574,0.0135247148573398,-0.24365234375,0.9248046875,0.2666015625,0.7410824298858643,0.8202381134033203,-7.042477250251977e-07,0.666175901889801,0.7302411198616028,0.0110958395525813,0.6269071698188782,0.6336277723312378,0.0075257439166307,0.583934485912323,0.5684050917625427,-0.0071260030381381,0.5412407517433167,0.5191429257392883,-0.021141467615962,0.7174818515777588,0.5302388668060303,0.0432628877460956,0.6547653675079346,0.4638581275939941,0.0150115396827459,0.5986464023590088,0.466391384601593,-0.0152757251635193,0.552646279335022,0.4869793653488159,-0.0335699915885925,0.7388525009155273,0.5276807546615601,0.0199390202760696,0.6565673351287842,0.4468795657157898,-0.0072328820824623,0.5935248136520386,0.463873028755188,-0.0359254740178585,0.5485663414001465,0.4953047037124634,-0.0533008463680744,0.7515982389450073,0.5424861311912537,-0.0079548778012394,0.6749294996261597,0.4550651311874389,-0.034539595246315,0.607694149017334,0.474846750497818,-0.0495374985039234,0.5601303577423096,0.5108177065849304,-0.0549980849027633,0.7473627328872681,0.5726723670959473,-0.0358824618160724,0.677259087562561,0.5141164064407349,-0.0547158904373645,0.6265860199928284,0.5100386142730713,-0.0616592951118946,0.5874454975128174,0.5193694233894348,-0.0634307861328125
2023-08-01 16:27:46.303020,2,63,0.9995761513710022,-0.0225107036530971,-0.0184548646211624,0.0003116924490313,0.14794921875,0.87646484375,0.28564453125,0.7421706914901733,0.815841794013977,-7.475578058802057e-07,0.6658517718315125,0.7214545607566833,0.0175076480954885,0.6282715201377869,0.6237963438034058,0.016346575692296,0.5882378220558167,0.5598923563957214,0.0023981090635061,0.5503706932067871,0.5056382417678833,-0.0115951411426067,0.7166120409965515,0.516521692276001,0.0510898679494857,0.6512119770050049,0.4582901895046234,0.0228999406099319,0.5949227213859558,0.4592959880828857,-0.0086480043828487,0.5497924089431763,0.478445827960968,-0.027808180078864,0.7394838333129883,0.5182875990867615,0.0238038469105958,0.6552079916000366,0.4441749155521393,-0.0033183528576046,0.5912490487098694,0.4614809155464172,-0.0339294709265232,0.5459170937538147,0.4920440018177032,-0.0523694567382335,0.7529283165931702,0.5357860326766968,-0.0077872234396636,0.6737062335014343,0.4569435119628906,-0.0336157940328121,0.6053214073181152,0.4759376049041748,-0.0493740402162075,0.5577532052993774,0.5086957216262817,-0.0555060841143131,0.7493343949317932,0.5674148201942444,-0.0390966162085533,0.6767957806587219,0.5116925239562988,-0.0574028268456459,0.624823272228241,0.5080729722976685,-0.0639964789152145,0.5848044753074646,0.5167117714881897,-0.0653753727674484
2023-08-01 16:27:46.370970,3,64,0.9996508955955504,-0.0213240925222635,0.013230912387371,-0.0082660587504506,-0.35400390625,0.91748046875,0.3984375,0.7425838112831116,0.8117512464523315,-7.32828993932344e-07,0.6656711101531982,0.7162843346595764,0.0197720620781183,0.626762330532074,0.6187729835510254,0.0199487842619419,0.5857505798339844,0.5540846586227417,0.0068228943273425,0.5496304631233215,0.4949486553668976,-0.0065908818505704,0.7202184796333313,0.512377917766571,0.0551571287214756,0.651758074760437,0.46429243683815,0.030363880097866,0.5979705452919006,0.4582799673080444,0.0006067653303034,0.5530264973640442,0.4619842171669006,-0.0187692418694496,0.7439900636672974,0.5137969851493835,0.0260224174708127,0.6576982140541077,0.4489164650440216,0.0006960049504414,0.596572756767273,0.4577489197254181,-0.0283533949404954,0.5505815148353577,0.4779263138771057,-0.0465353280305862,0.7579796314239502,0.5307108759880066,-0.0074988370761275,0.6747572422027588,0.4632571339607239,-0.0337962992489337,0.6077325344085693,0.4776114225387573,-0.0487941652536392,0.5593566298484802,0.5032727122306824,-0.0544873587787151,0.7553819417953491,0.5609609484672546,-0.0407128483057022,0.678806722164154,0.5127377510070801,-0.0608528479933738,0.6260839700698853,0.5087686777114868,-0.0682164281606674,0.5843756794929504,0.5155527591705322,-0.0700622126460075
2023-08-01 16:27:46.431875,4,65,0.9993088841438292,-0.0176198091357946,0.0294339917600154,-0.0143136298283934,-0.2998046875,0.9541015625,0.30712890625,0.7401167750358582,0.8042938709259033,-7.61208241328859e-07,0.6645455956459045,0.7082825899124146,0.0191814675927162,0.6269090175628662,0.6132792830467224,0.0194487236440181,0.5891048908233643,0.5515042543411255,0.0071594933979213,0.5545822381973267,0.4965884089469909,-0.0057768640108406,0.7254959940910339,0.5052890777587891,0.0487982258200645,0.6525563597679138,0.4624751806259155,0.0226829722523689,0.5977708697319031,0.457200139760971,-0.0075747086666524,0.5519951581954956,0.461459755897522,-0.0270425081253051,0.7484360933303833,0.5075156092643738,0.0208214912563562,0.6585646271705627,0.4510127902030945,-0.0036169544328004,0.5966163873672485,0.4592974185943603,-0.0314742736518383,0.5504509806632996,0.476732850074768,-0.0495377406477928,0.7605567574501038,0.5259266495704651,-0.0112075172364711,0.6719577312469482,0.4664362668991089,-0.0376613214612007,0.6064164042472839,0.4825581908226013,-0.0525215305387973,0.5602242946624756,0.5069382190704346,-0.0585306845605373,0.7558092474937439,0.5585211515426636,-0.0427994765341281,0.6764935255050659,0.5138813853263855,-0.0632816478610038,0.6264095902442932,0.5165250301361084,-0.0699486657977104,0.5881479382514954,0.5283821225166321,-0.0713512971997261
2023-08-01 16:27:46.490550,5,66,0.9967527985572816,-0.0097086774185299,0.0755472332239151,-0.026117093861103,-0.23779296875,0.82958984375,0.16357421875,0.7436795234680176,0.8029593229293823,-7.351919748543878e-07,0.666638970375061,0.6940321922302246,0.0259030107408761,0.6283996105194092,0.6066015362739563,0.0239570476114749,0.5874896049499512,0.5513731837272644,0.0078606707975268,0.5534825921058655,0.4948400259017944,-0.0097584379836916,0.7403721809387207,0.5028706789016724,0.0483942069113254,0.6648901104927063,0.4606040716171264,0.0212328620254993,0.6086763143539429,0.4527871310710907,-0.0104987919330596,0.5620598793029785,0.4548481702804565,-0.0319441221654415,0.7614060044288635,0.5114995241165161,0.0136853083968162,0.6701794266700745,0.4549893140792846,-0.0118468953296542,0.6071641445159912,0.4561704993247986,-0.0422334000468254,0.5605135560035706,0.4665757417678833,-0.0639239847660064,0.7707587480545044,0.5352731347084045,-0.0244037844240665,0.6791068911552429,0.4796986877918243,-0.0518180392682552,0.6141986846923828,0.4935303926467895,-0.0683792531490325,0.5695266723632812,0.5143049955368042,-0.0776249319314956,0.76399827003479,0.5720010995864868,-0.0614615604281425,0.6839150786399841,0.5277586579322815,-0.0844170227646827,0.6339471936225891,0.5353211164474487,-0.092271938920021,0.5973259806632996,0.5508726239204407,-0.0956396982073783
2023-08-01 16:27:46.553316,6,67,0.9933342933654784,-0.0043721320107579,0.109744556248188,-0.0349857881665229,-0.35986328125,0.89306640625,0.28857421875,0.7436040043830872,0.8028291463851929,-7.840022817617864e-07,0.6741418242454529,0.6894373893737793,0.0091199809685349,0.6366596817970276,0.5939924716949463,0.0006743593257851,0.598533034324646,0.5342749357223511,-0.0163965802639722,0.5754547715187073,0.4807280898094177,-0.0332826226949691,0.7668913006782532,0.499612033367157,0.0175212565809488,0.6840766668319702,0.4479561746120453,-0.0140214199200272,0.6268273591995239,0.4445546567440033,-0.0442318245768547,0.5809671878814697,0.4541329145431518,-0.0623603723943233,0.7877588868141174,0.5170006155967712,-0.0047346809878945,0.6837747693061829,0.4609878063201904,-0.0350567065179348,0.619225263595581,0.4829082489013672,-0.0606615915894508,0.5773684978485107,0.5145280957221985,-0.0760640501976013,0.7931475639343262,0.5481303930282593,-0.0298415813595056,0.693196713924408,0.4910783171653747,-0.0593946687877178,0.6251843571662903,0.514982283115387,-0.0710200816392898,0.5821583271026611,0.546890914440155,-0.0740740820765495,0.7789961099624634,0.5910651087760925,-0.0546148084104061,0.698879063129425,0.541685163974762,-0.0777168720960617,0.6467435956001282,0.5501583218574524,-0.0834095999598503,0.6107903718948364,0.5691481828689575,-0.0827999338507652
2023-08-01 16:27:46.614055,7,68,0.991186499595642,0.0012385403970256,0.1256518512964248,-0.0419456362724304,-0.2646484375,0.908203125,0.158203125,0.7476999163627625,0.8049843311309814,-8.370841442228993e-07,0.679304301738739,0.6947609782218933,-0.0044649369083344,0.6393473148345947,0.6019083857536316,-0.020194312557578,0.5994793772697449,0.5427353382110596,-0.0400234200060367,0.5749952793121338,0.4902385473251343,-0.0597281008958816,0.7774652242660522,0.4862676858901977,-0.0129336295649409,0.6847167611122131,0.4527777433395386,-0.0473680086433887,0.6275113821029663,0.4544299244880676,-0.0745101347565651,0.583266019821167,0.4658973217010498,-0.0905839055776596,0.801415205001831,0.5166342854499817,-0.0295419227331876,0.6917315721511841,0.47754967212677,-0.0628788992762565,0.6213982701301575,0.4963865876197815,-0.0863611549139022,0.5738804936408997,0.5178158283233643,-0.1013248711824417,0.8060706257820129,0.5645117163658142,-0.0483609363436698,0.6994962692260742,0.5283361077308655,-0.0834977328777313,0.6272087097167969,0.5448416471481323,-0.09690423309803,0.5791882872581482,0.5643396377563477,-0.1016269102692604,0.7900880575180054,0.6216432452201843,-0.0670739188790321,0.7011708617210388,0.587321400642395,-0.0957167670130729,0.6477094888687134,0.5887246131896973,-0.1044616997241973,0.6093115210533142,0.5942004919052124,-0.1060543581843376
2023-08-01 16:27:46.680285,8,69,0.9900785684585572,0.0043853358365595,0.1318809986114502,-0.0482971109449863,-0.330078125,0.8818359375,0.15185546875,0.7507981061935425,0.8052745461463928,-8.13712631497765e-07,0.6795331835746765,0.6898285746574402,-0.0020976762752979,0.6420291066169739,0.6024509072303772,-0.0219786409288644,0.6052682399749756,0.5462053418159485,-0.0469141118228435,0.581674337387085,0.4950127303600311,-0.0731653869152069,0.7826025485992432,0.4951601326465606,-0.0262345429509878,0.6853320598602295,0.457131028175354,-0.0669467821717262,0.6299296617507935,0.4551329016685486,-0.0963578298687934,0.5869953632354736,0.4638994932174682,-0.1142421662807464,0.8048475384712219,0.5273296236991882,-0.0483693927526474,0.6925599575042725,0.486897736787796,-0.0916379988193512,0.6223672032356262,0.5051217675209045,-0.118175633251667,0.5747011303901672,0.5256814360618591,-0.1345118880271911,0.8080835342407227,0.5783007144927979,-0.0720829516649246,0.6965335607528687,0.5393438935279846,-0.115950271487236,0.6237744688987732,0.5545580983161926,-0.1320379227399826,0.5761659145355225,0.5719383955001831,-0.1379227191209793,0.793118953704834,0.637367844581604,-0.0950048565864563,0.7007333040237427,0.5984221696853638,-0.1317903101444244,0.6453069448471069,0.5935289263725281,-0.1444287151098251,0.6064475178718567,0.5922362208366394,-0.1484473347663879
2023-08-01 16:27:46.737990,9,70,0.9903919100761414,0.0052652624435722,0.1269138306379318,-0.0546715594828128,-0.3720703125,0.89208984375,0.1884765625,0.7503423094749451,0.8077620267868042,-8.721071935724467e-07,0.6798753142356873,0.6958765387535095,-0.0073665757663547,0.6453740000724792,0.6042923331260681,-0.0252470429986715,0.6100656986236572,0.5432150959968567,-0.0460074730217456,0.5873636603355408,0.4920001029968261,-0.0677419081330299,0.7875416874885559,0.4950796365737915,-0.0264838282018899,0.6902350187301636,0.4600602984428406,-0.0654065459966659,0.6325689554214478,0.4613795876502991,-0.0948190465569496,0.5883471369743347,0.4725886583328247,-0.1125357076525688,0.8108557462692261,0.5308251976966858,-0.0430966168642044,0.695091962814331,0.4973994493484497,-0.0829716399312019,0.6233484745025635,0.5180943608283997,-0.1088078394532203,0.5739611387252808,0.5387679934501648,-0.1249415352940559,0.8131421208381653,0.5852675437927246,-0.0615632496774196,0.6966963410377502,0.5548916459083557,-0.1027665734291076,0.6247076392173767,0.5690624713897705,-0.1192753762006759,0.5765031576156616,0.5830776691436768,-0.1256032437086105,0.7954809665679932,0.6465284824371338,-0.0796040967106819,0.6991469860076904,0.6132795810699463,-0.1132554486393928,0.6454154253005981,0.609025776386261,-0.125152051448822,0.607330322265625,0.6065282225608826,-0.1288176774978637
2023-08-01 16:27:46.803084,10,71,0.9906870722770692,0.0066635571420192,0.1218912750482559,-0.0603090561926364,-0.44287109375,0.888671875,0.1923828125,0.7524124979972839,0.8111771941184998,-8.654873795421736e-07,0.679571270942688,0.6940211057662964,-0.0024845416191965,0.6474944949150085,0.6026591062545776,-0.0196715611964464,0.6159822344779968,0.5414773225784302,-0.0415454879403114,0.5917816162109375,0.4882049560546875,-0.0651786923408508,0.7875926494598389,0.4974000751972198,-0.0230660904198884,0.6907151341438293,0.4604144096374511,-0.0650287419557571,0.6330225467681885,0.4582925736904144,-0.0970505326986312,0.5864134430885315,0.4667454957962036,-0.1161003783345222,0.8094896078109741,0.5317712426185608,-0.0442001596093177,0.6948748826980591,0.4951506555080414,-0.0879686325788497,0.6202825903892517,0.5136941075325012,-0.116057388484478,0.5686011910438538,0.5328081846237183,-0.1328262984752655,0.8120880126953125,0.5853638052940369,-0.0672082751989364,0.6968461275100708,0.5523664951324463,-0.1119165420532226,0.6226509809494019,0.5676306486129761,-0.1297242492437362,0.5742465257644653,0.5817298293113708,-0.13600555062294,0.7957164645195007,0.6467596888542175,-0.0894358977675437,0.7002987265586853,0.6102095246315002,-0.1253283768892288,0.6446736454963684,0.6055952310562134,-0.1374342292547226,0.6066015362739563,0.6034863591194153,-0.1407907605171203
2023-08-01 16:27:46.869451,11,72,0.9915309548377992,0.0086604068055748,0.1136349216103553,-0.0622773021459579,-0.3359375,0.88916015625,0.20703125,0.7559733390808105,0.8140678405761719,-8.983902830550505e-07,0.6859700679779053,0.7017767429351807,-0.0159434173256158,0.6498349905014038,0.6144500970840454,-0.0376230143010616,0.6122209429740906,0.5555769205093384,-0.0604817755520343,0.5851342678070068,0.5135714411735535,-0.0838810205459594,0.7865232825279236,0.4954493641853332,-0.0367436669766902,0.6942023634910583,0.4738309383392334,-0.0774145945906639,0.6331501007080078,0.4886863529682159,-0.1073908880352974,0.5889402627944946,0.5064086318016052,-0.1251949965953827,0.8122571706771851,0.535271167755127,-0.0483149774372577,0.6962926983833313,0.5206079483032227,-0.0881189256906509,0.625577449798584,0.5451247096061707,-0.113969974219799,0.5781011581420898,0.5659258365631104,-0.1309080570936203,0.8176966309547424,0.5934058427810669,-0.06203044205904,0.7023755311965942,0.5816984176635742,-0.1013965234160423,0.6341904997825623,0.5948249697685242,-0.1183784753084182,0.5875262022018433,0.6100584268569946,-0.1258708536624908,0.8045099377632141,0.6591756343841553,-0.0761931240558624,0.7064533829689026,0.6378498673439026,-0.1057666391134262,0.6549425721168518,0.6333835124969482,-0.1165061965584755,0.6181254982948303,0.6321872472763062,-0.1202725544571876
2023-08-01 16:27:46.928083,12,73,0.9913219213485718,0.0104859853163361,0.1145247593522071,-0.0636780112981796,-0.38623046875,0.89306640625,0.16650390625,0.7613376379013062,0.8181400299072266,-9.28353017570771e-07,0.6890453696250916,0.7030652165412903,-0.0155810331925749,0.654626190662384,0.6151402592658997,-0.0373804941773414,0.617611289024353,0.5569213628768921,-0.0611564740538597,0.5897608399391174,0.5136523246765137,-0.0858539119362831,0.7894158959388733,0.5013049244880676,-0.0366240218281745,0.6952900290489197,0.4789860844612121,-0.0811348855495452,0.6331037282943726,0.4951315522193908,-0.1130127310752868,0.5868934392929077,0.514980137348175,-0.1311349123716354,0.814819872379303,0.5393728613853455,-0.0496069528162479,0.6963928937911987,0.525360107421875,-0.094495341181755,0.6237877011299133,0.5552492737770081,-0.1229138299822807,0.5754399299621582,0.5789711475372314,-0.1401269435882568,0.8210861682891846,0.5949540734291077,-0.0649655684828758,0.7019044756889343,0.5854735970497131,-0.1089905351400375,0.6301369071006775,0.6046977639198303,-0.1281413286924362,0.5818514823913574,0.6231943368911743,-0.1356394439935684,0.809548020362854,0.6583344340324402,-0.0806178897619247,0.7073802351951599,0.640194833278656,-0.1133490428328514,0.6527170538902283,0.6388626098632812,-0.1257810443639755,0.6140573024749756,0.6379421949386597,-0.1300382018089294
2023-08-01 16:27:46.989192,13,74,0.9915125966072084,0.0108237294480204,0.1126967072486877,-0.0639146715402603,-0.3837890625,0.89404296875,0.173828125,0.7583976984024048,0.8165722489356995,-9.139595249507692e-07,0.6897326707839966,0.7043344974517822,-0.0178445465862751,0.657444179058075,0.6157450079917908,-0.0395295657217502,0.6239388585090637,0.5589683055877686,-0.0624676272273063,0.5980075597763062,0.5175954103469849,-0.0861395522952079,0.792288064956665,0.4999554753303528,-0.0349872149527072,0.6995112299919128,0.4807190895080566,-0.0788406506180763,0.6383465528488159,0.4915253221988678,-0.111026793718338,0.5913912057876587,0.5069898962974548,-0.1294624507427215,0.8200128674507141,0.5377357602119446,-0.046235516667366,0.7007827162742615,0.5279543995857239,-0.0909555703401565,0.6270415186882019,0.5567891597747803,-0.1200084313750267,0.5756188035011292,0.5780719518661499,-0.1373659670352935,0.8272139430046082,0.5946793556213379,-0.0601255409419536,0.7074170112609863,0.5892074704170227,-0.1047962009906768,0.6342146992683411,0.608676552772522,-0.1245573163032531,0.5832241177558899,0.6240392327308655,-0.1318762302398681,0.815070629119873,0.6600965857505798,-0.0743949636816978,0.7153078317642212,0.6438178420066833,-0.1072137877345085,0.6616160273551941,0.6408717632293701,-0.1197712942957878,0.622047483921051,0.6359035968780518,-0.1238747984170913
2023-08-01 16:27:47.053007,14,75,0.9917709827423096,0.0108344741165637,0.1099336296319961,-0.0647128447890281,-0.3359375,0.900390625,0.1591796875,0.757196843624115,0.8171820640563965,-9.046488571584632e-07,0.6924319863319397,0.6987818479537964,-0.0203293934464454,0.660310685634613,0.6089743971824646,-0.0441279523074626,0.6260048747062683,0.5504094362258911,-0.0687782242894172,0.6093683838844299,0.5145060420036316,-0.0937989056110382,0.800557553768158,0.5055606365203857,-0.0412587001919746,0.7085421085357666,0.4860020875930786,-0.0857856497168541,0.6482445001602173,0.5020951628684998,-0.1163378432393074,0.6047804355621338,0.5184626579284668,-0.1339083909988403,0.8265571594238281,0.5464514493942261,-0.0519401915371418,0.7090455293655396,0.5319463014602661,-0.1000551134347915,0.6363008618354797,0.5598178505897522,-0.1298065185546875,0.5868396759033203,0.5805212259292603,-0.1471076756715774,0.8337110280990601,0.6036127209663391,-0.0650312900543212,0.7159766554832458,0.5920628309249878,-0.1129009425640106,0.6421837210655212,0.6070502400398254,-0.1342633217573166,0.5905352830886841,0.6216288208961487,-0.1420404762029647,0.8226532340049744,0.6665931344032288,-0.0784487500786781,0.7244840264320374,0.6448938250541687,-0.114792063832283,0.6688544154167175,0.6394312381744385,-0.1299315989017486,0.6272650957107544,0.6342441439628601,-0.1352606564760208
2023-08-01 16:27:47.115907,15,76,0.9917219877243042,0.0099280318245291,0.1101260334253311,-0.0652770400047302,-0.40625,0.89697265625,0.16650390625,0.756561815738678,0.8192789554595947,-8.94608092494309e-07,0.6923727989196777,0.700917661190033,-0.0189996231347322,0.6631903052330017,0.6105178594589233,-0.0419872663915157,0.6318145990371704,0.5526261329650879,-0.0659405067563057,0.6146766543388367,0.5206804871559143,-0.0907101929187774,0.8063824772834778,0.506814181804657,-0.0386867858469486,0.7144176959991455,0.4883260130882263,-0.0817730650305748,0.6536808013916016,0.4991042017936706,-0.11282529681921,0.6076011657714844,0.5107104182243347,-0.1310227960348129,0.8311336040496826,0.5501640439033508,-0.0498651079833507,0.7136706113815308,0.5339431166648865,-0.0950554087758064,0.6403857469558716,0.5570809245109558,-0.123925432562828,0.5897536277770996,0.5738487839698792,-0.1410250812768936,0.8354093432426453,0.6089446544647217,-0.0633823722600936,0.7165319323539734,0.594407856464386,-0.1092488020658493,0.6420730352401733,0.6065259575843811,-0.1293039470911026,0.5894925594329834,0.617314875125885,-0.1365223824977874,0.8195903301239014,0.6724956631660461,-0.0772485509514808,0.7194910049438477,0.6486498117446899,-0.1122682318091392,0.6641521453857422,0.6410736441612244,-0.1258054226636886,0.6226343512535095,0.6330925226211548,-0.1300735771656036
2023-08-01 16:27:47.182404,16,77,0.9919621348381042,0.0094828223809599,0.1083908826112747,-0.0645946636795997,-0.4091796875,0.88818359375,0.21435546875,0.7590872049331665,0.8201435208320618,-9.045515412253736e-07,0.6928637623786926,0.7006257176399231,-0.0212607029825449,0.6645907163619995,0.6115074753761292,-0.0457899644970893,0.6349925398826599,0.5522627234458923,-0.0706990584731102,0.6172993183135986,0.5126760601997375,-0.0965102910995483,0.8072792887687683,0.506657600402832,-0.0444161817431449,0.712495744228363,0.4901059865951538,-0.0892238542437553,0.6516385078430176,0.498593658208847,-0.1211143732070922,0.6047074794769287,0.5084862112998962,-0.1397870481014251,0.8315088152885437,0.5499282479286194,-0.0552460253238678,0.7128437161445618,0.5345370173454285,-0.1022017821669578,0.638099193572998,0.557146430015564,-0.1312534064054489,0.5864894390106201,0.5753153562545776,-0.1484976410865783,0.8352431654930115,0.6092872619628906,-0.0684780329465866,0.7167007327079773,0.5943753719329834,-0.1151910424232482,0.6423598527908325,0.6054222583770752,-0.134796604514122,0.5902726650238037,0.6171193718910217,-0.1420786529779434,0.8192241787910461,0.6735213994979858,-0.0823729932308197,0.7186922430992126,0.6498221755027771,-0.1189197152853012,0.6630570292472839,0.6415156722068787,-0.133030280470848,0.6220794916152954,0.6339206099510193,-0.137740284204483
2023-08-01 16:27:47.240981,17,78,0.992504894733429,0.0087181888520717,0.104253314435482,-0.0631608217954635,-0.3896484375,0.87451171875,0.16552734375,0.754301130771637,0.8196430802345276,-9.20947854865517e-07,0.6930496692657471,0.6988788843154907,-0.0221478808671236,0.6701663136482239,0.608748733997345,-0.0456719323992729,0.6494594812393188,0.547630786895752,-0.0694177076220512,0.6391830444335938,0.5043240189552307,-0.0939216837286949,0.808173418045044,0.5073983073234558,-0.0435545481741428,0.7138194441795349,0.4878818392753601,-0.0892339274287223,0.6524193286895752,0.4948319792747497,-0.1216676607728004,0.6043208241462708,0.5045545697212219,-0.1402366459369659,0.8333696126937866,0.5513424873352051,-0.0536550059914588,0.7156047821044922,0.5342862010002136,-0.1013459414243698,0.6409801840782166,0.5560936331748962,-0.1309765726327896,0.5877922773361206,0.5741119384765625,-0.1480989158153534,0.8380715847015381,0.6112197637557983,-0.0664410591125488,0.7191274166107178,0.5957270264625549,-0.1140608713030815,0.6438437700271606,0.6067197322845459,-0.1343307048082351,0.5897294282913208,0.6178889274597168,-0.141308382153511,0.8232128024101257,0.676915168762207,-0.0799551159143447,0.7233507633209229,0.6520790457725525,-0.1171639412641525,0.6674318313598633,0.6430935859680176,-0.1318055093288421,0.6246331334114075,0.6343400478363037,-0.1363615989685058
2023-08-01 16:27:47.298044,18,79,0.9927711486816406,0.0078333653509616,0.1026990860700607,-0.0616211779415607,-0.3291015625,0.8837890625,0.18212890625,0.7584007382392883,0.8162550926208496,-8.596893508183712e-07,0.6920971870422363,0.6969888806343079,-0.0213472805917263,0.6643631458282471,0.6128232479095459,-0.0519394874572753,0.6381053328514099,0.5566761493682861,-0.0836250036954879,0.6184934377670288,0.5108778476715088,-0.1171743124723434,0.8060396313667297,0.5077610015869141,-0.0604434721171855,0.7116342782974243,0.4882722198963165,-0.1137537360191345,0.6528728604316711,0.4974746108055115,-0.1493187844753265,0.6046993732452393,0.5077277421951294,-0.1697487533092498,0.8292732834815979,0.5514279007911682,-0.075831800699234,0.7161108255386353,0.5307812690734863,-0.1332584172487259,0.6394196152687073,0.553959846496582,-0.1664332896471023,0.5852125287055969,0.5706039071083069,-0.1856722384691238,0.8342289924621582,0.6105543971061707,-0.0930506214499473,0.7209771871566772,0.590740978717804,-0.1478211879730224,0.6450868844985962,0.6023887395858765,-0.1694031059741974,0.5927440524101257,0.6142380833625793,-0.1774407178163528,0.820679783821106,0.6741552352905273,-0.1105863600969314,0.7257623076438904,0.6453277468681335,-0.1524012833833694,0.6688184142112732,0.6380495429039001,-0.1674320548772812,0.6291004419326782,0.6319410800933838,-0.1727921217679977
2023-08-01 16:27:47.363145,19,80,0.9934272170066832,0.0063494839705526,0.098530538380146,-0.0579122453927993,-0.35546875,0.9033203125,0.19775390625,0.7586431503295898,0.818379819393158,-8.64463402194815e-07,0.6945263147354126,0.699225902557373,-0.0191710796207189,0.66780686378479,0.6131829619407654,-0.046457290649414,0.6401311159133911,0.5572551488876343,-0.0756497085094451,0.6213773488998413,0.5139939785003662,-0.1065328866243362,0.806331217288971,0.5110110640525818,-0.0485147684812545,0.7154404520988464,0.4868421554565429,-0.1011393219232559,0.6560327410697937,0.4938083589076996,-0.1383166909217834,0.6070854663848877,0.5031770467758179,-0.1595498472452163,0.8301903009414673,0.5511268973350525,-0.0640434622764587,0.7173768281936646,0.5275323987007141,-0.1206904500722885,0.6416928172111511,0.5522334575653076,-0.1550919860601425,0.5880061984062195,0.5698862075805664,-0.1742242127656936,0.8360288739204407,0.6073655486106873,-0.0819624960422515,0.7220578789710999,0.5886633396148682,-0.1370401531457901,0.6450956463813782,0.6041021347045898,-0.1594700813293457,0.5919443368911743,0.6171475648880005,-0.166567862033844,0.8227710723876953,0.6685335040092468,-0.1000265926122665,0.7280320525169373,0.6405292749404907,-0.1408346742391586,0.6712764501571655,0.634732723236084,-0.1551546305418014,0.6308438181877136,0.628530740737915,-0.1592488884925842
2023-08-01 16:27:47.420993,20,81,0.9941253066062928,0.0039415801875293,0.0947903990745544,-0.0520958378911018,-0.6220703125,1.0146484375,0.2255859375,0.7567687034606934,0.8154159188270569,-8.49260572977073e-07,0.692497730255127,0.6996985673904419,-0.0185116939246654,0.6643865704536438,0.61570143699646,-0.0458056628704071,0.6371779441833496,0.5613078474998474,-0.0751241520047187,0.6186388731002808,0.517117977142334,-0.1059227511286735,0.8042590022087097,0.5106212496757507,-0.0465638488531112,0.715924084186554,0.4863525032997131,-0.0982499122619628,0.6575567722320557,0.492890328168869,-0.1351422667503357,0.6094441413879395,0.5029661059379578,-0.1564533561468124,0.8284751772880554,0.5512433648109436,-0.0623475275933742,0.7187559008598328,0.5274461507797241,-0.1178816854953765,0.64262855052948,0.5490509271621704,-0.1520526707172393,0.5881747007369995,0.5639147758483887,-0.17145736515522,0.8336836099624634,0.6081812977790833,-0.080511063337326,0.7232875227928162,0.5887653231620789,-0.1338532567024231,0.6475714445114136,0.6019430756568909,-0.1556081622838974,0.5948317050933838,0.6123631000518799,-0.1628811210393905,0.819905161857605,0.6700644493103027,-0.0988915488123893,0.7270432710647583,0.6425305604934692,-0.138363778591156,0.6710383296012878,0.6360664367675781,-0.1521172821521759,0.6311850547790527,0.6283510327339172,-0.156143456697464
2023-08-01 16:27:47.487154,21,82,0.9948897361755372,0.0010851445840671,0.0892536118626594,-0.0471904762089252,-0.27783203125,0.8583984375,0.19970703125,0.762178897857666,0.8144575953483582,-7.971354989422252e-07,0.6959108114242554,0.6938888430595398,-0.0155886961147189,0.6675378084182739,0.6120291948318481,-0.0466656275093555,0.6425912976264954,0.557990312576294,-0.0811575129628181,0.6279667615890503,0.5136556625366211,-0.1181999072432518,0.8029974699020386,0.5111728310585022,-0.0561638064682483,0.7145138382911682,0.4861881732940674,-0.1145669221878051,0.6568105816841125,0.4923597276210785,-0.1550723612308502,0.6076569557189941,0.5023337602615356,-0.1787040829658508,0.8251569867134094,0.5512322187423706,-0.0776573792099952,0.7188021540641785,0.5246008038520813,-0.1412367224693298,0.6433725357055664,0.5478863716125488,-0.178567498922348,0.5891618132591248,0.5625006556510925,-0.1997549384832382,0.8309961557388306,0.6085565686225891,-0.1009416580200195,0.7227650284767151,0.5865204334259033,-0.1600899249315261,0.6464420557022095,0.6005939841270447,-0.1825949102640152,0.593500018119812,0.6113189458847046,-0.1904931813478469,0.8181810975074768,0.6696392893791199,-0.1240819171071052,0.7257567048072815,0.6417168974876404,-0.1670593321323394,0.6683573722839355,0.635172426700592,-0.1809045225381851,0.628782331943512,0.6281783580780029,-0.185415118932724
2023-08-01 16:27:47.555747,22,83,0.9954383969306946,-0.0025700852274894,0.0862340703606605,-0.0407369323074817,-0.3466796875,0.90771484375,0.2412109375,0.7474727630615234,0.8046290874481201,-7.619477173648193e-07,0.6880715489387512,0.689960777759552,-0.0142324632033705,0.6590650677680969,0.6072988510131836,-0.0415170118212699,0.6302866339683533,0.5502123236656189,-0.0719035267829895,0.6161984205245972,0.5012406706809998,-0.1032512560486793,0.7982193827629089,0.5115606188774109,-0.0461330562829971,0.7181139588356018,0.4733366966247558,-0.0976062044501304,0.6630955338478088,0.4742275476455688,-0.1328302323818206,0.6159527897834778,0.4879741966724396,-0.1532258093357086,0.8213892579078674,0.548051655292511,-0.0651862770318985,0.7192163467407227,0.5090543031692505,-0.1207581758499145,0.6459740400314331,0.5284218192100525,-0.1522061228752136,0.5942840576171875,0.5469793677330017,-0.1696659177541732,0.8281688690185547,0.6024704575538635,-0.0866425558924675,0.7245061993598938,0.5691385269165039,-0.1405037641525268,0.6503875851631165,0.5792456865310669,-0.159607246518135,0.5993800163269043,0.5927085876464844,-0.1652702689170837,0.8156067132949829,0.6626853346824646,-0.1080031171441078,0.727683961391449,0.6242128610610962,-0.1502432078123092,0.6706643104553223,0.6141195893287659,-0.1643296480178833,0.6304807662963867,0.6097884178161621,-0.1682626903057098
2023-08-01 16:27:47.627530,23,84,0.9963499903678894,-0.006582073867321,0.0782318189740181,-0.0335138998925685,-0.3359375,0.91650390625,0.28564453125,0.7440101504325867,0.8020918965339661,-8.016706942726159e-07,0.6836125254631042,0.6921926736831665,-0.0170886069536209,0.6556108593940735,0.6043373346328735,-0.0411876551806926,0.627731204032898,0.5427221655845642,-0.0670104101300239,0.6025130748748779,0.4916527271270752,-0.0939374715089798,0.7927898168563843,0.5081106424331665,-0.0422539450228214,0.7132881283760071,0.4690992832183838,-0.0912276655435562,0.6578375101089478,0.4666319489479065,-0.1262027770280838,0.6083173751831055,0.4758341908454895,-0.1463221311569214,0.8201277256011963,0.5458253622055054,-0.057828851044178,0.7174698710441589,0.5066574215888977,-0.1097036749124527,0.6433526277542114,0.5244400501251221,-0.1398554295301437,0.5905412435531616,0.5425957441329956,-0.1561633348464965,0.8279459476470947,0.6015554666519165,-0.0762574076652526,0.7235023975372314,0.5679145455360413,-0.1277815550565719,0.6492727994918823,0.5766972303390503,-0.1464137583971023,0.5976465940475464,0.5893343687057495,-0.1514287590980529,0.8157804608345032,0.6632291078567505,-0.0949278026819229,0.7268832325935364,0.6249979734420776,-0.1364174485206604,0.6717987060546875,0.6155106425285339,-0.1501881331205368,0.6320722103118896,0.6107991337776184,-0.1534987241029739
2023-08-01 16:27:47.685124,24,85,0.9972316026687622,-0.0076942597515881,0.068917416036129,-0.0268394537270069,-0.2734375,0.9345703125,0.248046875,0.7404145002365112,0.8018137216567993,-7.360657718891161e-07,0.6766902208328247,0.7056146264076233,-0.0130369458347558,0.6404303312301636,0.6248455047607422,-0.036177109926939,0.6004595160484314,0.5729851126670837,-0.0616196319460868,0.5624587535858154,0.5336750745773315,-0.0887500643730163,0.7754639983177185,0.5017654299736023,-0.0330628417432308,0.6968782544136047,0.4623373448848724,-0.0750712230801582,0.6425296068191528,0.4598622918128967,-0.1068753451108932,0.5938656330108643,0.4671497941017151,-0.1255455315113067,0.804595947265625,0.5368673205375671,-0.0491056852042675,0.70564866065979,0.4962750971317291,-0.0913749784231185,0.6340456604957581,0.509083092212677,-0.118006631731987,0.5840124487876892,0.523521900177002,-0.1333831548690796,0.8132489323616028,0.5913401246070862,-0.0676201730966568,0.7173082232475281,0.5554897785186768,-0.1120901256799697,0.6443965435028076,0.5642049312591553,-0.128882884979248,0.5946034789085388,0.5764711499214172,-0.1336124688386917,0.8018293976783752,0.6525403261184692,-0.0861765518784523,0.7210106253623962,0.6111876368522644,-0.1221201494336128,0.6647318601608276,0.6041298508644104,-0.1323142498731613,0.6229386925697327,0.6037487387657166,-0.1336145251989364
2023-08-01 16:27:47.747533,25,86,0.9977583289146424,-0.007999163120985,0.0625492632389068,-0.0224026720970869,-0.2099609375,0.8876953125,0.23486328125,0.7358529567718506,0.797995924949646,-7.21422111382708e-07,0.6763269305229187,0.6980004906654358,-0.0119355656206607,0.641051173210144,0.6144248843193054,-0.0360648967325687,0.6024813055992126,0.5595130920410156,-0.0634766444563865,0.5708094835281372,0.5081149339675903,-0.0917871594429016,0.7765565514564514,0.5045456886291504,-0.0345613062381744,0.6978393197059631,0.457222044467926,-0.079297088086605,0.6454668045043945,0.4541084468364715,-0.1115812137722969,0.6009467244148254,0.4647963643074035,-0.1304947435855865,0.802585244178772,0.5376691222190857,-0.0520921722054481,0.7076162695884705,0.4881153702735901,-0.0979558303952217,0.6371138095855713,0.4991520047187805,-0.1252232193946838,0.5883103609085083,0.5126082301139832,-0.1409479230642318,0.8104625344276428,0.5884017944335938,-0.0723132789134979,0.7165653109550476,0.5421478152275085,-0.119484931230545,0.6430805921554565,0.5495262145996094,-0.1364476382732391,0.5933114886283875,0.5617710947990417,-0.1415989995002746,0.7986247539520264,0.646354615688324,-0.092437095940113,0.719245195388794,0.6028110384941101,-0.1323604881763458,0.6620590686798096,0.5958284735679626,-0.1451401710510254,0.620401918888092,0.5949554443359375,-0.1480356156826019
2023-08-01 16:27:47.808913,26,87,0.998199999332428,-0.0101141855120658,0.0564946644008159,-0.0174010843038558,-0.27685546875,0.88037109375,0.27685546875,0.7293843626976013,0.7925487756729126,-7.616633865836775e-07,0.6737757921218872,0.6945794820785522,-0.0098736258223652,0.6407821178436279,0.6047138571739197,-0.0305620972067117,0.6065186262130737,0.5411660075187683,-0.0550165809690952,0.5807474255561829,0.4824671745300293,-0.0797015205025672,0.7740684747695923,0.4983130395412445,-0.021700358018279,0.6978524923324585,0.4496505856513977,-0.0630131289362907,0.6444488167762756,0.4471359848976135,-0.094132125377655,0.6015899181365967,0.4597048759460449,-0.1119356900453567,0.7994207739830017,0.5297338366508484,-0.0379806905984878,0.7071978449821472,0.4777689576148987,-0.0775007754564285,0.6382540464401245,0.4901347160339355,-0.1009781956672668,0.5920278429985046,0.5046111345291138,-0.113991342484951,0.8069753050804138,0.5776079893112183,-0.0574973672628402,0.7157034873962402,0.529901385307312,-0.0989800468087196,0.645237922668457,0.5388531684875488,-0.112270101904869,0.5980095863342285,0.5521776676177979,-0.1151979342103004,0.7944396138191223,0.6327219009399414,-0.0771763697266578,0.715705394744873,0.5888869762420654,-0.1121164485812187,0.6612004041671753,0.5848991870880127,-0.1218462884426117,0.6216667294502258,0.5882321000099182,-0.1226130872964859
2023-08-01 16:27:47.872541,27,88,0.9991452693939208,-0.0124137979000806,0.0379748195409774,-0.010607817210257,-0.14599609375,0.8857421875,0.25390625,0.7335341572761536,0.7952759861946106,-7.690422876294178e-07,0.6743058562278748,0.6922852396965027,-0.0087198475375771,0.6389203667640686,0.6045895218849182,-0.0314043350517749,0.6037107706069946,0.5428287386894226,-0.0582004897296428,0.5800380706787109,0.4828548431396484,-0.0848993733525276,0.774371325969696,0.4959554374217987,-0.0242180712521076,0.6971108317375183,0.4470989406108856,-0.0664533600211143,0.6435681581497192,0.4466840028762817,-0.096769206225872,0.6011377573013306,0.4614595770835876,-0.1141738519072532,0.7998030185699463,0.528052568435669,-0.0426431074738502,0.7065539956092834,0.477865070104599,-0.0840358063578605,0.6382253170013428,0.4934130012989044,-0.1076214089989662,0.5936581492424011,0.5109889507293701,-0.1207364499568939,0.807577908039093,0.5767741203308105,-0.0641704723238945,0.7171990275382996,0.5301573872566223,-0.1070422008633613,0.6466895937919617,0.5384424328804016,-0.1202775090932846,0.599493145942688,0.5517234206199646,-0.1235626190900802,0.7955118417739868,0.6326296329498291,-0.0857597216963768,0.7184029817581177,0.5912915468215942,-0.1227564886212349,0.6630840301513672,0.5879442095756531,-0.1332158595323562,0.6219846606254578,0.5911988615989685,-0.1345247626304626
2023-08-01 16:27:47.937038,28,89,0.9997758269309998,-0.0161846876144409,0.013465522788465,-0.0022496010642498,-0.296875,0.90966796875,0.18408203125,0.7300874590873718,0.7920838594436646,-8.004290066310205e-07,0.6698644161224365,0.6872795820236206,-0.0008700676844455,0.6368572115898132,0.5931243896484375,-0.0197480246424675,0.6012334823608398,0.5299954414367676,-0.0460449531674385,0.5782769918441772,0.4684224426746368,-0.0725602060556411,0.7720721960067749,0.4954873919486999,-0.0086503429338335,0.6940357685089111,0.4402080178260803,-0.0532946363091468,0.6357284784317017,0.4446642398834228,-0.0867349579930305,0.5913132429122925,0.4655588865280151,-0.1053172573447227,0.793894350528717,0.5231502652168274,-0.0322373956441879,0.7022759914398193,0.4585208296775818,-0.0773279666900634,0.6310240030288696,0.4723855853080749,-0.1048385500907898,0.5847567915916443,0.4931079447269439,-0.1188365370035171,0.7998181581497192,0.5645540952682495,-0.0594310872256755,0.7129207253456116,0.5036696195602417,-0.1041017919778823,0.6403976678848267,0.513611912727356,-0.1190264970064163,0.5939252972602844,0.5319303870201111,-0.1218232214450836,0.7881684899330139,0.6119222044944763,-0.0863503366708755,0.7135937809944153,0.5606793761253357,-0.1227418556809425,0.6586320400238037,0.5578485131263733,-0.1336694061756134,0.6206221580505371,0.5647156834602356,-0.134791299700737
2023-08-01 16:27:48.002423,29,90,0.9996753334999084,-0.0197895970195531,-0.0155614474788308,0.0039209621027112,-0.14794921875,0.8974609375,0.455078125,0.7256838083267212,0.7914789915084839,-8.395367103730678e-07,0.6706001162528992,0.6923593282699585,-0.0030930987559258,0.6369687914848328,0.5950185060501099,-0.016794990748167,0.5986807346343994,0.5325164794921875,-0.0364726819097995,0.5678155422210693,0.4793572127819061,-0.0558059141039848,0.7663465142250061,0.4915868937969208,0.0015044183237478,0.6866768598556519,0.4412655532360077,-0.0372092574834823,0.627545952796936,0.446509301662445,-0.0699781849980354,0.583523690700531,0.4640631675720215,-0.0885525345802307,0.7903831005096436,0.5139325857162476,-0.0165597759187221,0.6948341131210327,0.4543454051017761,-0.0527512244880199,0.6255507469177246,0.4663138687610626,-0.0792775303125381,0.5795885920524597,0.4875378012657165,-0.093930147588253,0.7982603907585144,0.5527442097663879,-0.03850819170475,0.7085300087928772,0.4952262639999389,-0.0752905383706092,0.6373718976974487,0.5041223764419556,-0.090554691851139,0.5914030075073242,0.5220136046409607,-0.0944862961769104,0.7877380847930908,0.5998415946960449,-0.0606391578912735,0.7153887152671814,0.546450674533844,-0.0889687687158584,0.6614048480987549,0.5436404347419739,-0.0973174124956131,0.6224939227104187,0.5511789321899414,-0.0975388661026954
2023-08-01 16:27:48.058972,30,91,0.9993066787719728,-0.0231482163071632,-0.0284887701272964,0.0062161404639482,-0.19580078125,0.88671875,0.369140625,0.7281617522239685,0.7941034436225891,-8.589274216319609e-07,0.6689892411231995,0.6942306756973267,0.0003473331744316,0.6365785002708435,0.5972572565078735,-0.0114138461649417,0.5982919335365295,0.534673273563385,-0.0306271035224199,0.5651732683181763,0.4829660058021545,-0.0497299656271934,0.7606120705604553,0.497143417596817,0.0112722348421812,0.6831039190292358,0.4427101612091064,-0.0291197076439857,0.6205964684486389,0.4458588361740112,-0.0650650337338447,0.5730596780776978,0.4636443853378296,-0.0855868980288505,0.7829544544219971,0.5153325796127319,-0.0094044608995318,0.6911340951919556,0.4462462663650512,-0.0461215898394584,0.6204034090042114,0.4598293006420135,-0.0744676366448402,0.5748775601387024,0.4842520654201507,-0.0897037833929061,0.7908616662025452,0.550592839717865,-0.0345065295696258,0.7052564024925232,0.4835603833198547,-0.0697419345378875,0.6336177587509155,0.492407739162445,-0.0848869308829307,0.588420033454895,0.5118680596351624,-0.0885113850235939,0.7804937958717346,0.5958799123764038,-0.0600241161882877,0.7050313949584961,0.5384178161621094,-0.0862130671739578,0.6516711711883545,0.5328322649002075,-0.0940526202321052,0.614990234375,0.5402289032936096,-0.0940108969807624
2023-08-01 16:27:48.125809,31,92,0.9987578988075256,-0.0238391626626253,-0.0432705245912075,0.0064744274131953,-0.09033203125,0.91845703125,0.28076171875,0.7248735427856445,0.7950763702392578,-8.409309657508857e-07,0.6681725978851318,0.6948328018188477,0.0020802232902497,0.6361996531486511,0.5975843071937561,-0.0097094941884279,0.5972234010696411,0.5349193215370178,-0.0293560065329074,0.5631999969482422,0.4842097759246826,-0.0488361567258834,0.760258138179779,0.500356137752533,0.0108404848724603,0.6821638941764832,0.4434788227081299,-0.0294913332909345,0.6202069520950317,0.4457448124885559,-0.0650440007448196,0.5725857615470886,0.4626857936382293,-0.0853785425424575,0.7822928428649902,0.5179083347320557,-0.0110068786889314,0.6894108653068542,0.4444419741630554,-0.0474568530917167,0.6198760867118835,0.455439031124115,-0.0753436088562011,0.5738387107849121,0.4784604907035827,-0.090731032192707,0.7903625965118408,0.5523107051849365,-0.0370771214365959,0.7029564380645752,0.48198401927948,-0.0727965235710144,0.632613480091095,0.4906263053417206,-0.0875399336218833,0.5872578620910645,0.5099844336509705,-0.0909628048539161,0.7803290486335754,0.596804678440094,-0.0633865371346473,0.7062548398971558,0.5354489088058472,-0.0905763581395149,0.6527062058448792,0.5284302234649658,-0.0986483320593833,0.6142463088035583,0.5347450375556946,-0.0988754481077194
2023-08-01 16:27:48.181839,32,93,0.9982479214668274,-0.0233285687863826,-0.0540020726621151,0.0063700736500322,-0.23193359375,0.9267578125,0.3447265625,0.7364789843559265,0.8070988059043884,-8.607095196566661e-07,0.6640599966049194,0.7171470522880554,0.0181758925318717,0.6349348425865173,0.61952143907547,0.0188428852707147,0.6047799587249756,0.5530203580856323,0.0079901563003659,0.5681277513504028,0.5024817585945129,-0.0052543259225785,0.7218573093414307,0.5169562101364136,0.0445028431713581,0.6588674783706665,0.4637972414493561,0.0201195497065782,0.6038001179695129,0.4573322236537933,-0.0106010492891073,0.5546819567680359,0.4614017009735107,-0.0306461136788129,0.7475715279579163,0.5204889178276062,0.0179059598594903,0.66871178150177,0.4501581192016601,-0.0044416487216949,0.6031794548034668,0.4557520449161529,-0.035373318940401,0.5510019659996033,0.4715562164783478,-0.0558741651475429,0.764501690864563,0.540397047996521,-0.011810790747404,0.6919962763786316,0.4662981629371643,-0.0350151062011718,0.624597430229187,0.4713998734951019,-0.0556604638695716,0.5740661025047302,0.4893033802509308,-0.0671484172344207,0.7643922567367554,0.5711339712142944,-0.0407901778817176,0.6940993666648865,0.5141981840133667,-0.0590451918542385,0.6447929739952087,0.5094544887542725,-0.0685686022043228,0.6062145233154297,0.5169151425361633,-0.0734824687242508
2023-08-01 16:27:48.254914,33,94,0.9974198937416076,-0.0235466174781322,-0.0675431862473487,0.0060841948725283,-0.2158203125,0.91357421875,0.380859375,0.7318286895751953,0.8088738918304443,-7.849974963392015e-07,0.6632979512214661,0.7124210596084595,0.0172751005738973,0.6361331939697266,0.613018274307251,0.0174095965921878,0.6062666177749634,0.5490808486938477,0.0051325778476893,0.5711665749549866,0.4974257946014404,-0.0088119506835937,0.7192172408103943,0.5146089196205139,0.0476111210882663,0.6549561023712158,0.4700121879577636,0.0182010363787412,0.5998732447624207,0.4648254513740539,-0.0157504417002201,0.5504202842712402,0.4694112837314605,-0.0376754775643348,0.7463865876197815,0.5163446664810181,0.0192647371441125,0.6705216765403748,0.4517739713191986,-0.0090259304270148,0.6076828837394714,0.4556863009929657,-0.0415998809039592,0.55601966381073,0.4697498381137848,-0.0624380856752395,0.7646739482879639,0.5355846881866455,-0.013315949589014,0.6928021907806396,0.4646632969379425,-0.0429020933806896,0.6252683997154236,0.470380961894989,-0.0634350553154945,0.5728412866592407,0.4868879914283752,-0.0732649862766265,0.7665610909461975,0.5701000690460205,-0.0453598946332931,0.6982086896896362,0.5140805244445801,-0.0686199367046356,0.6463924646377563,0.5072081685066223,-0.0791087225079536,0.6036865711212158,0.5106772184371948,-0.0836989507079124
2023-08-01 16:27:48.311386,34,95,0.9971837997436525,-0.0223840419203043,-0.0713216811418533,0.006051096599549,-0.08984375,0.8876953125,0.3896484375,0.7467097640037537,0.8186171054840088,-7.936307611089433e-07,0.6727139353752136,0.7321305274963379,0.0290082246065139,0.6406295895576477,0.629088282585144,0.0369724258780479,0.609744131565094,0.5651589035987854,0.030174596235156,0.5742292404174805,0.5172512531280518,0.0217773728072643,0.7249535918235779,0.5312273502349854,0.066105842590332,0.667060375213623,0.4749502837657928,0.0464310497045517,0.6144977807998657,0.4640495777130127,0.0190638359636068,0.5669565796852112,0.4671400189399719,0.0008522088173776,0.7499043941497803,0.5308780670166016,0.0328207127749919,0.6764172911643982,0.4602514505386352,0.0134506337344646,0.6151322722434998,0.4603649377822876,-0.0146602364256978,0.564086377620697,0.473770797252655,-0.0330069921910762,0.7658909559249878,0.5458464622497559,-0.0042791166342794,0.6956916451454163,0.4683451950550079,-0.0268489327281713,0.629330575466156,0.4733963012695312,-0.0438624396920204,0.5776649713516235,0.4895242154598236,-0.052310261875391,0.7652484774589539,0.573689341545105,-0.0402117408812046,0.6937329173088074,0.5146046876907349,-0.058227002620697,0.6413038969039917,0.5069310665130615,-0.0654368475079536,0.5995520353317261,0.5092435479164124,-0.068373903632164
2023-08-01 16:27:48.373148,35,96,0.9968867301940918,-0.0205505304038524,-0.0757630616426467,0.0073785129934549,-0.1689453125,0.908203125,0.25341796875,0.7485609650611877,0.8245425224304199,-7.232165444293059e-07,0.6737779378890991,0.7342199683189392,0.0183006655424833,0.6412773132324219,0.6320482492446899,0.0196191072463989,0.608561635017395,0.5649111866950989,0.008399992249906,0.5690943002700806,0.5150860548019409,-0.0033205514773726,0.7274770140647888,0.5349299311637878,0.0536312088370323,0.6697298884391785,0.476046472787857,0.0274849496781826,0.6147040128707886,0.4660471677780151,-0.0038508151192218,0.5643934011459351,0.4713203310966491,-0.0239793118089437,0.7519809007644653,0.5340361595153809,0.0252267774194479,0.6777130365371704,0.4597854614257812,0.0005979317938908,0.615523636341095,0.4617078900337219,-0.0292130447924137,0.5653104782104492,0.4765451848506927,-0.0483640804886817,0.767231822013855,0.5504372715950012,-0.0077442526817321,0.6976985335350037,0.4691475927829742,-0.0337180197238922,0.6315246820449829,0.4760879278182983,-0.0501053556799888,0.5806487202644348,0.4953881204128265,-0.0573693551123142,0.7658010721206665,0.5816245079040527,-0.0404374934732914,0.6978307962417603,0.5219855904579163,-0.0600310750305652,0.6472529768943787,0.5123237371444702,-0.0674136653542518,0.6068179607391357,0.5134400725364685,-0.0700215101242065
2023-08-01 16:27:48.431475,36,97,0.9964637160301208,-0.0196621026843786,-0.0809891298413276,0.0106868408620357,-0.1259765625,0.91943359375,0.37744140625,0.7464389801025391,0.8282895684242249,-7.149696443775611e-07,0.6760609745979309,0.7459841370582581,0.0096096722409129,0.6413111686706543,0.6413922905921936,0.0085767162963747,0.6078149080276489,0.5725231170654297,-0.0024190791882574,0.5686558485031128,0.5230023264884949,-0.0134663768112659,0.7257421612739563,0.5377312898635864,0.0418151691555976,0.6687583327293396,0.478225976228714,0.0131463455036282,0.6136162877082825,0.4689047336578369,-0.0187009833753108,0.5638463497161865,0.4765078425407409,-0.0383447036147117,0.7496144771575928,0.5363951325416565,0.0191069915890693,0.677399754524231,0.4629708528518677,-0.0068322289735078,0.6153687834739685,0.4649502635002136,-0.0354281403124332,0.5658655166625977,0.4805249571800232,-0.053214494138956,0.7645978331565857,0.5543308258056641,-0.0085199438035488,0.6970839500427246,0.4730361998081207,-0.0360670089721679,0.6307121515274048,0.4784172177314758,-0.0524932257831096,0.5796682834625244,0.4969975650310516,-0.0591638535261154,0.7628206014633179,0.5881016850471497,-0.0363329574465751,0.6971615552902222,0.5274314880371094,-0.0570389069616794,0.6478104591369629,0.5171951055526733,-0.0648779645562172,0.6080822348594666,0.5179060697555542,-0.0672274753451347
2023-08-01 16:27:48.495778,37,98,0.9965689778327942,-0.0184836406260728,-0.0799443051218986,0.0108391446992754,-0.18994140625,0.94140625,0.39697265625,0.7471321225166321,0.8309523463249207,-7.167470243985008e-07,0.6764136552810669,0.7496963739395142,0.0099569233134388,0.6417890787124634,0.6432142853736877,0.0095400922000408,0.6095815300941467,0.5730583667755127,-0.0009939119918271,0.5707003474235535,0.5222352147102356,-0.0113442093133926,0.7237774133682251,0.5399966239929199,0.043802585452795,0.667931079864502,0.4806693196296692,0.0159644670784473,0.6129915714263916,0.4706724882125854,-0.0151878269389271,0.563590407371521,0.476203978061676,-0.0347778312861919,0.7482016682624817,0.5367748737335205,0.020755685865879,0.6766809821128845,0.4627361893653869,-0.0047761220484972,0.6150851249694824,0.4637593030929565,-0.0325563699007034,0.5655368566513062,0.476757675409317,-0.049765296280384,0.7643531560897827,0.5524214506149292,-0.0073916111141443,0.6962471008300781,0.4694641232490539,-0.0347249619662761,0.6294959783554077,0.4752689301967621,-0.0502086840569973,0.5779010057449341,0.4929301142692566,-0.0562866292893886,0.7643880844116211,0.5839390754699707,-0.0358226411044597,0.6965711116790771,0.5241621136665344,-0.056738443672657,0.6458701491355896,0.5146093368530273,-0.0645827054977417,0.6050857305526733,0.5145718455314636,-0.0669659823179245
2023-08-01 16:27:48.560237,38,99,0.9966897368431092,-0.0176258478313684,-0.078584112226963,0.011105902493,-0.14501953125,0.94873046875,0.271484375,0.750914454460144,0.838121771812439,-7.471551839444146e-07,0.6783917546272278,0.7606158256530762,0.0115201994776725,0.6407088041305542,0.6595199108123779,0.0125035112723708,0.6074742078781128,0.5944119095802307,0.0029647867195308,0.5694332718849182,0.5470385551452637,-0.0070634367875754,0.71543949842453,0.5526697635650635,0.0454179197549819,0.6552100777626038,0.4969643652439117,0.0185107644647359,0.6000847816467285,0.4872297048568725,-0.0127358790487051,0.5504496693611145,0.4942419230937958,-0.0320866927504539,0.7384783625602722,0.5491685271263123,0.02208779938519,0.6649717092514038,0.4768396019935608,-0.0023306561633944,0.6020961999893188,0.4796917140483856,-0.0312963388860225,0.5510083436965942,0.4973679780960083,-0.0495781674981117,0.753846287727356,0.5628265738487244,-0.0059429770335555,0.6867759823799133,0.4819794297218323,-0.031332891434431,0.6222104430198669,0.4901389479637146,-0.0491093844175338,0.5730156898498535,0.5127984285354614,-0.0572965517640113,0.7541953921318054,0.5919109582901001,-0.0341175608336925,0.6852142214775085,0.5365878343582153,-0.0522175319492816,0.634547770023346,0.5318355560302734,-0.0598746426403522,0.5946962237358093,0.5390255451202393,-0.0628848224878311
2023-08-01 16:27:48.623208,39,100,0.9970769882202148,-0.0159251485019922,-0.073956124484539,0.010691862553358,-0.16650390625,0.935546875,0.3017578125,0.7457247376441956,0.84075927734375,-6.860698817945377e-07,0.6756933927536011,0.7642603516578674,0.0070062209852039,0.6396958231925964,0.6611015200614929,0.0063613662496209,0.60598224401474,0.5930083990097046,-0.0040158769115805,0.565321147441864,0.5447725057601929,-0.0139755709096789,0.7167257070541382,0.562251091003418,0.0439375638961792,0.6627054214477539,0.4988219738006592,0.0160731095820665,0.6064551472663879,0.4893039464950561,-0.0146809192374348,0.5562477111816406,0.4984341859817505,-0.0334058068692684,0.7398053407669067,0.5561681389808655,0.0228784102946519,0.6706741452217102,0.4786511361598968,-0.0035384157672524,0.6083909869194031,0.4820573031902313,-0.0322056822478771,0.5584521889686584,0.5008177757263184,-0.04942062869668,0.7556548714637756,0.5673295259475708,-0.0036053461953997,0.689042866230011,0.4829036295413971,-0.0308235473930835,0.6236662864685059,0.4919641017913818,-0.0479425117373466,0.5733493566513062,0.5160316228866577,-0.0547463186085224,0.7568268775939941,0.5938000679016113,-0.0305595677345991,0.6869572997093201,0.5355771780014038,-0.0492659024894237,0.6364763975143433,0.5287377834320068,-0.0571404471993446,0.596903383731842,0.5329788327217102,-0.0599739290773868
2023-08-01 16:27:48.687027,40,101,0.9970601797103882,-0.0155403092503547,-0.0742223039269447,0.0109807141125202,-0.15087890625,0.92529296875,0.36962890625,0.7471525073051453,0.8452714681625366,-7.022816248536401e-07,0.6767573356628418,0.7657750248908997,0.0077458745799958,0.6400039196014404,0.6637732982635498,0.0066422703675925,0.605173647403717,0.596206545829773,-0.0044601657427847,0.5662542581558228,0.5466005206108093,-0.0153880193829536,0.7189654111862183,0.5639041066169739,0.0438693985342979,0.6593480110168457,0.5030506253242493,0.0156006533652544,0.6024080514907837,0.4952646493911743,-0.0161592029035091,0.5518618822097778,0.5047258138656616,-0.0355108603835105,0.7416649460792542,0.5585896372795105,0.0222983546555042,0.6673531532287598,0.4811661839485168,-0.0036750542931258,0.6032605767250061,0.486591100692749,-0.0332779102027416,0.5530041456222534,0.5078662633895874,-0.0514915883541107,0.7562597990036011,0.5708693861961365,-0.0043997187167406,0.6874459385871887,0.4862335622310638,-0.0307696163654327,0.6202094554901123,0.4955278038978576,-0.0483840964734554,0.5701450109481812,0.5210384726524353,-0.0558475740253925,0.754914402961731,0.5986626744270325,-0.0315347239375114,0.6873729228973389,0.5391780138015747,-0.049525998532772,0.6366000175476074,0.5314856171607971,-0.0572493001818656,0.5970672369003296,0.5363593101501465,-0.0600919127464294
2023-08-01 16:27:48.748117,41,102,0.996505618095398,-0.0166284274309873,-0.0807839259505271,0.013190658763051,-0.111328125,0.90771484375,0.35009765625,0.7462130188941956,0.8462094068527222,-6.846242399660696e-07,0.6756953597068787,0.7661085724830627,0.0079904925078153,0.6395306587219238,0.6651186943054199,0.0073560713790357,0.6054404377937317,0.5974328517913818,-0.0036421886179596,0.56724613904953,0.5475033521652222,-0.0142838507890701,0.7174325585365295,0.5680598616600037,0.0455836243927478,0.6628016233444214,0.503398597240448,0.0176784228533506,0.6067441701889038,0.4931633472442627,-0.0135629186406731,0.5561407208442688,0.5014836192131042,-0.0327586643397808,0.739703893661499,0.5623377561569214,0.0237415637820959,0.6691320538520813,0.4817204475402832,-0.0029760226607322,0.6057558655738831,0.484910786151886,-0.0329859629273414,0.5552026629447937,0.5038022994995117,-0.0511922128498554,0.7547544836997986,0.5731691122055054,-0.0033823091071099,0.6870067119598389,0.4861606955528259,-0.0308521892875432,0.6201931834220886,0.4954137802124023,-0.0490753501653671,0.569754958152771,0.520964503288269,-0.0565467476844787,0.7547005414962769,0.5993367433547974,-0.0309090297669172,0.6868336200714111,0.5388715267181396,-0.0499371401965618,0.6352097392082214,0.5317106246948242,-0.0583319328725338,0.5948267579078674,0.5375163555145264,-0.0614904835820198
2023-08-01 16:27:48.804161,42,103,0.9966670870780944,-0.0166101474314928,-0.0788252279162406,0.0128595922142267,-0.15380859375,0.9140625,0.2451171875,0.7460126280784607,0.8464475274085999,-6.946827966203273e-07,0.675905704498291,0.7669880390167236,0.0078542483970522,0.6404244303703308,0.6645792126655579,0.0074613746255636,0.6080999374389648,0.5964069962501526,-0.0029014497995376,0.5709058046340942,0.5461584329605103,-0.0128050837665796,0.7199604511260986,0.564293384552002,0.0442778170108795,0.6633937358856201,0.5014782547950745,0.016210276633501,0.6065358519554138,0.4904768466949463,-0.014740833081305,0.5556668639183044,0.4980849325656891,-0.033526211977005,0.7416646480560303,0.5583539009094238,0.022804457694292,0.6691166162490845,0.4791306257247925,-0.0036970695946365,0.6047407388687134,0.4815467894077301,-0.0326549783349037,0.5537120699882507,0.5000752210617065,-0.0499860197305679,0.7551392316818237,0.5689114928245544,-0.0039547947235405,0.6864973902702332,0.4836208820343017,-0.0311116762459278,0.6199485659599304,0.4931909441947937,-0.0487115420401096,0.5697715878486633,0.5184773206710815,-0.0556510798633098,0.7532176375389099,0.5950478911399841,-0.0311708152294158,0.683376669883728,0.5361498594284058,-0.049974150955677,0.6319913268089294,0.529227077960968,-0.0582722090184688,0.5916649699211121,0.5343750715255737,-0.0611770451068878
2023-08-01 16:27:48.869553,43,104,0.996097981929779,-0.0175652280449867,-0.0853082090616226,0.0142413973808288,-0.1455078125,0.92578125,0.31103515625,0.7495801448822021,0.8499143123626709,-7.089595897014078e-07,0.6773331165313721,0.7682134509086609,0.009628533385694,0.6401295065879822,0.6643785238265991,0.0101517792791128,0.6047887206077576,0.5966464877128601,-0.0002021434920607,0.5659329295158386,0.5461050271987915,-0.0105627281591296,0.714708685874939,0.5679189562797546,0.0491967163980007,0.6561159491539001,0.5083266496658325,0.0212731007486581,0.5995673537254333,0.499510645866394,-0.0107128527015447,0.5486732721328735,0.5067411661148071,-0.0303628500550985,0.736850380897522,0.5606440305709839,0.02638665959239,0.6655747890472412,0.482958436012268,9.57991578616202e-05,0.6019860506057739,0.4863730072975158,-0.0304153151810169,0.5507639646530151,0.5040627121925354,-0.0490237921476364,0.7522860169410706,0.5704367756843567,-0.0017948672175407,0.6853308081626892,0.4854525327682495,-0.0286154262721538,0.6177217364311218,0.4940864145755768,-0.0472554340958595,0.5665888786315918,0.5178289413452148,-0.0551765710115432,0.7525693774223328,0.5953694581985474,-0.0303636379539966,0.6837112903594971,0.5363770127296448,-0.0482134297490119,0.6307802200317383,0.5295613408088684,-0.0562734752893447,0.5894261598587036,0.5350083708763123,-0.0594149120151996
2023-08-01 16:27:48.935558,44,105,0.9959327578544616,-0.0186919122934341,-0.0868226140737533,0.0151773253455758,-0.05078125,0.912109375,0.41455078125,0.7461720108985901,0.8489704132080078,-6.779062573514238e-07,0.6751629710197449,0.7697787284851074,0.0061302329413592,0.6400171518325806,0.6675053238868713,0.0047644721344113,0.6058833599090576,0.5995559692382812,-0.006613137666136,0.5663102865219116,0.5493073463439941,-0.0174370948225259,0.7156570553779602,0.568682074546814,0.0432770363986492,0.6611164808273315,0.501384437084198,0.0135895358398556,0.6038901209831238,0.4921249747276306,-0.0180134288966655,0.5529608726501465,0.5026448369026184,-0.0367639884352684,0.7380111217498779,0.5626876354217529,0.0223310627043247,0.667902410030365,0.4800641536712646,-0.0059074498713016,0.6031336188316345,0.4840952157974243,-0.0356277078390121,0.5520362854003906,0.5032471418380737,-0.0532007329165935,0.7531509399414062,0.5727663040161133,-0.0042024566791951,0.6861038208007812,0.484330952167511,-0.0331636145710945,0.619680643081665,0.4982359111309051,-0.0511495396494865,0.5700174570083618,0.5270634889602661,-0.0578301735222339,0.7539165019989014,0.5982506275177002,-0.0312596000730991,0.6847029328346252,0.5376789569854736,-0.0507873147726058,0.6338576674461365,0.5332246422767639,-0.0589923188090324,0.5943562984466553,0.5413826107978821,-0.0617239139974117
2023-08-01 16:27:48.991855,45,106,0.9958004355430604,-0.0185564905405044,-0.0883140861988067,0.0154176261276006,-0.15673828125,0.9345703125,0.31884765625,0.744826078414917,0.8481377959251404,-7.185470281001471e-07,0.6738596558570862,0.7690725922584534,0.0099859908223152,0.6357570886611938,0.6663284301757812,0.0112647311761975,0.6014389991760254,0.5999783277511597,0.0017965242732316,0.5633869767189026,0.551289439201355,-0.0076123974286019,0.7046878337860107,0.5667648911476135,0.0492589771747589,0.6499612331390381,0.5062274932861328,0.0219821073114871,0.5947548151016235,0.5001161694526672,-0.0093099270015954,0.5438593029975891,0.5110186338424683,-0.0282716732472181,0.7269086837768555,0.561099112033844,0.0268254894763231,0.6576554179191589,0.4842364192008972,0.0010982597013935,0.5954523086547852,0.4901888370513916,-0.0291684810072183,0.5443100333213806,0.5101480484008789,-0.047425165772438,0.7438991069793701,0.5708189010620117,-0.0008294353610835,0.6787647604942322,0.4875021576881408,-0.0273748245090246,0.6141106486320496,0.5012718439102173,-0.0461939200758934,0.5640251636505127,0.5284436941146851,-0.0541189946234226,0.7474928498268127,0.595676839351654,-0.0287148244678974,0.6780575513839722,0.53810715675354,-0.046448141336441,0.6266946792602539,0.5372120141983032,-0.0541127994656562,0.5861502885818481,0.5475961565971375,-0.05688102170825
2023-08-01 16:27:49.059046,46,107,0.9956566095352172,-0.0182758644223213,-0.0901311784982681,0.0145018929615616,-0.15234375,0.9296875,0.29638671875,0.7427724599838257,0.8498024344444275,-6.669025083283486e-07,0.6716411113739014,0.7721618413925171,0.0053533222526311,0.633268415927887,0.6704192757606506,0.0035987305454909,0.5973942279815674,0.6048004031181335,-0.0081655299291014,0.5554358959197998,0.5566158294677734,-0.0196043141186237,0.6993223428726196,0.5673319697380066,0.0439621284604072,0.6452606916427612,0.5054054260253906,0.0132736591622233,0.5901755094528198,0.4994262158870697,-0.0198285561054945,0.5393053889274597,0.5105147361755371,-0.0398398675024509,0.723389208316803,0.5603230595588684,0.0227728094905614,0.6554433107376099,0.4818296432495117,-0.0068289632908999,0.5927339792251587,0.4895829558372497,-0.0380707085132598,0.5418442487716675,0.5105478167533875,-0.0566116943955421,0.7421144247055054,0.5712284445762634,-0.0041627194732427,0.6799881458282471,0.4855604469776153,-0.0338056832551956,0.6151946783065796,0.5004544854164124,-0.052682776004076,0.565711498260498,0.5290617942810059,-0.0600642897188663,0.7472664713859558,0.5990719795227051,-0.0317604057490825,0.6821698546409607,0.5418011546134949,-0.0515932701528072,0.6318284869194031,0.5376642346382141,-0.0604743883013725,0.5922757983207703,0.5444093346595764,-0.0638648644089698
2023-08-01 16:27:49.123035,47,108,0.9959869980812072,-0.0176748037338256,-0.0865435972809791,0.014407267794013,-0.18359375,0.93212890625,0.34326171875,0.7439233660697937,0.8510885238647461,-6.568604931089794e-07,0.671113133430481,0.7699017524719238,0.0054683140479028,0.6322453022003174,0.6698841452598572,0.0034074655268341,0.5945796370506287,0.6041736006736755,-0.0088237449526786,0.5508178472518921,0.556844174861908,-0.0207313857972621,0.7024632096290588,0.5681869387626648,0.0453532002866268,0.6464312076568604,0.5065613985061646,0.0155831705778837,0.5905895233154297,0.5000134706497192,-0.0170866381376981,0.5411936044692993,0.5105494260787964,-0.0370407663285732,0.7267650961875916,0.5607510209083557,0.0241524651646614,0.6573995351791382,0.4835085272789001,-0.0045297243632376,0.594306230545044,0.4901379942893982,-0.0352983847260475,0.5440608263015747,0.5107724070549011,-0.0539427958428859,0.7445473670959473,0.571881890296936,-0.0028419631998986,0.6795931458473206,0.4868690967559814,-0.031995128840208,0.6150481700897217,0.5026078224182129,-0.0502080954611301,0.567017138004303,0.533141553401947,-0.0573525168001651,0.7478697896003723,0.5993998646736145,-0.0305172819644212,0.6798116564750671,0.5422471165657043,-0.0495473705232143,0.6304140686988831,0.5398686528205872,-0.057517796754837,0.5927310585975647,0.5486847162246704,-0.0604807920753955
2023-08-01 16:27:49.183915,48,109,0.9964893460273744,-0.0173598751425743,-0.0807114616036415,0.0139052849262952,-0.12255859375,0.93017578125,0.3056640625,0.7436339855194092,0.8466277122497559,-6.625099331358797e-07,0.6710074543952942,0.7707374095916748,0.0042859888635575,0.6325153112411499,0.6722584366798401,0.0019242555135861,0.5972084403038025,0.6066914200782776,-0.0104175433516502,0.5559660792350769,0.5576318502426147,-0.0226376354694366,0.6940718293190002,0.5693734288215637,0.0433361306786537,0.6398022174835205,0.5069149732589722,0.0130771547555923,0.5853834748268127,0.5000064969062805,-0.0201347284018993,0.5360313653945923,0.5101611614227295,-0.0405612662434577,0.7191624045372009,0.5617308020591736,0.0225445013493299,0.6526400446891785,0.4807745218276977,-0.0081377290189266,0.5901817083358765,0.4882131218910217,-0.0410684905946254,0.5395150184631348,0.5099067091941833,-0.0607409253716468,0.7397090196609497,0.570989191532135,-0.0038636226672679,0.6792857050895691,0.4820903539657593,-0.0343372263014316,0.6156824231147766,0.4992039799690246,-0.0547016710042953,0.5674986839294434,0.5318616032600403,-0.0630087628960609,0.747809112071991,0.5965080261230469,-0.0309660919010639,0.683027446269989,0.5379887819290161,-0.0516219772398471,0.6326267123222351,0.5348904728889465,-0.0615426078438758,0.5930123925209045,0.5438568592071533,-0.0657599717378616
