Timestamp,Index,Frame ID,w,x,y,z,ax,ay,az,x_0,y_0,z_0,x_1,y_1,z_1,x_2,y_2,z_2,x_3,y_3,z_3,x_4,y_4,z_4,x_5,y_5,z_5,x_6,y_6,z_6,x_7,y_7,z_7,x_8,y_8,z_8,x_9,y_9,z_9,x_10,y_10,z_10,x_11,y_11,z_11,x_12,y_12,z_12,x_13,y_13,z_13,x_14,y_14,z_14,x_15,y_15,z_15,x_16,y_16,z_16,x_17,y_17,z_17,x_18,y_18,z_18,x_19,y_19,z_19,x_20,y_20,z_20
2023-08-01 16:28:09.256175,0,418,0.9939262866973876,-0.0188571736216545,0.1044789031147956,-0.0289656873792409,-0.34228515625,0.9345703125,0.2451171875,0.718990683555603,0.8603567481040955,-8.48946967835218e-07,0.6496599912643433,0.7457799911499023,0.0315570570528507,0.6363741159439087,0.6384970545768738,0.04018060490489,0.6153820753097534,0.5671124458312988,0.0354425236582756,0.5909583568572998,0.5093716382980347,0.0297756064683198,0.7512714266777039,0.557070791721344,0.0545680224895477,0.6888925433158875,0.4780057668685913,0.0369082428514957,0.6295432448387146,0.4634275436401367,0.0150323621928691,0.5822325348854065,0.4667355120182037,0.0017378347693011,0.7671231031417847,0.562968373298645,0.0244077108800411,0.6843262910842896,0.4639747738838196,0.0087910713627934,0.6161305904388428,0.4571574628353119,-0.0106767546385526,0.5653434991836548,0.4699268341064453,-0.0224393121898174,0.768101692199707,0.5840520858764648,-0.0081238253042101,0.6760696172714233,0.4912989437580108,-0.0225292183458805,0.6088201403617859,0.4804535806179046,-0.031990647315979,0.5599523782730103,0.4832847416400909,-0.0368225090205669,0.7493153214454651,0.6147720217704773,-0.0395582914352417,0.6639624238014221,0.5464539527893066,-0.0475482977926731,0.6128280758857727,0.5248667001724243,-0.0502467527985572,0.5742278099060059,0.5115952491760254,-0.0511696524918079
2023-08-01 16:28:09.324108,1,419,0.9929561018943788,-0.0207569599151611,0.1116194203495979,-0.0338896177709102,-0.1484375,0.88037109375,0.25,0.7179874777793884,0.8594303727149963,-8.411167300437228e-07,0.6496055126190186,0.7440719604492188,0.0334656536579132,0.63755863904953,0.6373327374458313,0.0432327091693878,0.616797924041748,0.5655359625816345,0.0393257811665535,0.5931866765022278,0.5079070925712585,0.034499030560255,0.7532467246055603,0.557718813419342,0.0564621016383171,0.6926079392433167,0.4773087501525879,0.0411152951419353,0.6337885856628418,0.4624030590057373,0.0213535632938146,0.587510883808136,0.466122031211853,0.0093930521979928,0.768721878528595,0.5640466809272766,0.0261518843472003,0.6869434118270874,0.4645612835884094,0.0133540388196706,0.6197227239608765,0.4564366936683655,-0.0044703567400574,0.5699844360351562,0.4678567051887512,-0.0156460124999284,0.7695380449295044,0.5848160982131958,-0.0063318982720375,0.6769376993179321,0.4934349954128265,-0.0185573417693376,0.6099625825881958,0.4811198711395263,-0.027523897588253,0.5609902739524841,0.4831457734107971,-0.032601922750473,0.7505768537521362,0.6141905188560486,-0.0375795625150203,0.6646612882614136,0.5456036329269409,-0.0442288555204868,0.6131108999252319,0.5232857465744019,-0.0467667132616043,0.573854923248291,0.5104390382766724,-0.0478705279529094
2023-08-01 16:28:09.387255,2,420,0.991736888885498,-0.0204453729093074,0.1211772412061691,-0.0368233025074005,-0.3896484375,0.91650390625,0.29150390625,0.7131308317184448,0.8504536151885986,-7.087654694259982e-07,0.6519564986228943,0.7288516163825989,0.0256441719830036,0.6381039023399353,0.6190949082374573,0.0318115875124931,0.6133658289909363,0.5473183989524841,0.0260128248482942,0.5896539092063904,0.4893973171710968,0.0203525982797145,0.763599157333374,0.549962043762207,0.0494008548557758,0.7096049785614014,0.4660196900367737,0.0307130888104438,0.6528842449188232,0.4451155066490173,0.0093132546171545,0.6064726710319519,0.4423083066940307,-0.0038748537190258,0.7799205780029297,0.5592025518417358,0.0221300981938838,0.710173487663269,0.452955961227417,0.0040268106386065,0.6452436447143555,0.4400020539760589,-0.0164078287780284,0.5937823057174683,0.4440565705299377,-0.0281907469034194,0.7805577516555786,0.5800021886825562,-0.0078994529321789,0.6934247612953186,0.490968108177185,-0.0256083272397518,0.6256996393203735,0.4764273762702942,-0.03731369972229,0.5737076997756958,0.4714176058769226,-0.0425927601754665,0.7587051391601562,0.6078212857246399,-0.0369536243379116,0.6779738068580627,0.5410043597221375,-0.0475900992751121,0.6274528503417969,0.5176153182983398,-0.0521064437925815,0.5873981714248657,0.4983648657798767,-0.0537815131247043
2023-08-01 16:28:09.447835,3,421,0.9906457662582396,-0.0187103245407342,0.1288492828607559,-0.040849719196558,-0.40185546875,0.90576171875,0.1875,0.7159730792045593,0.8496086001396179,-7.588664630020503e-07,0.6541783809661865,0.7235218286514282,0.0236978698521852,0.640336811542511,0.6121148467063904,0.0268867537379264,0.615756094455719,0.5368989109992981,0.0182801019400358,0.5924045443534851,0.47525554895401,0.009385990910232,0.7676136493682861,0.5448715686798096,0.0441138073801994,0.7085062265396118,0.4630175828933716,0.0229817815124988,0.6503036618232727,0.4430519938468933,-0.0008534378721378,0.6045608520507812,0.4428063035011291,-0.0157489404082298,0.7846232652664185,0.5559655427932739,0.0163775160908699,0.71336430311203,0.4466114938259125,-0.0027673253789544,0.6468873620033264,0.4343648850917816,-0.0237970445305109,0.5965964794158936,0.4428831338882446,-0.0366097167134285,0.7851516008377075,0.5801180601119995,-0.0141336731612682,0.6954415440559387,0.4875560700893402,-0.0311947204172611,0.6276184916496277,0.4736509919166565,-0.0427039638161659,0.5791375041007996,0.4723741412162781,-0.0490534007549285,0.7634243369102478,0.6098591685295105,-0.0440484322607517,0.6794620752334595,0.5399404764175415,-0.0538883991539478,0.6275413632392883,0.5181997418403625,-0.0582730248570442,0.5885061621665955,0.5040389895439148,-0.0607296600937843
2023-08-01 16:28:09.509378,4,422,0.9889814257621764,-0.0168291591107845,0.1404124200344085,-0.0437809787690639,-0.31787109375,0.89306640625,0.22021484375,0.7136800289154053,0.8366475701332092,-7.07712729308696e-07,0.6586758494377136,0.7047951221466064,0.0212123151868581,0.644022524356842,0.5950134992599487,0.0217770207673311,0.6181793212890625,0.5200676321983337,0.011631772853434,0.5976079106330872,0.4584386646747589,0.001624806667678,0.7816061973571777,0.5394766926765442,0.0348691307008266,0.7265874147415161,0.4507365822792053,0.0131655223667621,0.6686790585517883,0.4296875,-0.0097667397931218,0.6219627857208252,0.4275453090667724,-0.0242855567485094,0.7963207364082336,0.5540610551834106,0.008472085930407,0.7285924553871155,0.4357343316078186,-0.0122152352705597,0.6638059020042419,0.4216636121273041,-0.0337622761726379,0.6136736273765564,0.4258665442466736,-0.0470456928014755,0.7931023836135864,0.579587996006012,-0.0200859904289245,0.7031530737876892,0.4800924658775329,-0.0391664281487464,0.6367707848548889,0.4640803337097168,-0.0512656606733799,0.5881791114807129,0.4585804343223572,-0.0578207597136497,0.7664509415626526,0.6092939972877502,-0.0477402657270431,0.6868536472320557,0.5327215194702148,-0.0600625723600387,0.6370843052864075,0.5050074458122253,-0.0653761327266693,0.5987027883529663,0.4840050041675567,-0.0682691112160682
2023-08-01 16:28:09.578502,5,423,0.9873905181884766,-0.0164060108363628,0.1505596339702606,-0.0460711047053337,-0.4736328125,0.9072265625,0.23779296875,0.7130593657493591,0.8317071795463562,-7.589611641378724e-07,0.6583765149116516,0.6974738240242004,0.019553804770112,0.6455445289611816,0.5890482664108276,0.0172345153987407,0.6245423555374146,0.5102229118347168,0.0045271683484315,0.6082242131233215,0.4442619383335113,-0.008246200159192,0.7863987684249878,0.539535403251648,0.0287011377513408,0.7272595763206482,0.4458374381065368,0.004258528817445,0.6688574552536011,0.4239711165428161,-0.0194784384220838,0.6222074627876282,0.4238800406455993,-0.0339845493435859,0.8007044792175293,0.55610191822052,0.0024174568243324,0.730743944644928,0.4333339333534241,-0.0193023364990949,0.6642774343490601,0.4162169694900512,-0.039610356092453,0.6139306426048279,0.4200776219367981,-0.0527162924408912,0.7959296703338623,0.582226037979126,-0.0261686034500598,0.7088254690170288,0.4769890010356903,-0.0461516454815864,0.6425026059150696,0.46164071559906,-0.0574529133737087,0.5944975018501282,0.4602010250091553,-0.0640972927212715,0.7684852480888367,0.6115362644195557,-0.054037157446146,0.6892309784889221,0.5333847999572754,-0.0677120834589004,0.6393305659294128,0.5057663917541504,-0.0737623646855354,0.601120114326477,0.485129714012146,-0.0774621590971946
2023-08-01 16:28:09.641073,6,424,0.9872344136238098,-0.0165248326957225,0.1509815752506256,-0.0479546375572681,-0.25146484375,0.90966796875,0.09521484375,0.7112115025520325,0.8260540962219238,-7.492468512282358e-07,0.6590461134910583,0.6884840130805969,0.0179542805999517,0.6467573642730713,0.5815397500991821,0.0140957543626427,0.6271170973777771,0.5024574995040894,0.0002950128982774,0.6149072647094727,0.4363535940647125,-0.0138346645981073,0.7912624478340149,0.5347235798835754,0.0248535834252834,0.7301715612411499,0.4419448375701904,-0.0008116568787954,0.6715396046638489,0.4175355434417724,-0.0250857174396514,0.6246641874313354,0.4138090014457702,-0.0398322083055973,0.8046290874481201,0.5539875626564026,-0.0010385708883404,0.7323034405708313,0.4327939450740814,-0.0251218397170305,0.6639846563339233,0.4137705564498901,-0.0475395135581493,0.6119120717048645,0.4140230417251587,-0.0619993396103382,0.798775851726532,0.5814423561096191,-0.0290572326630353,0.7071567177772522,0.477921724319458,-0.0524020865559577,0.6366246342658997,0.4644526839256286,-0.0662405714392662,0.5861186981201172,0.4633305072784424,-0.0738807991147041,0.7702509164810181,0.6105207204818726,-0.0560993589460849,0.691116988658905,0.5318881273269653,-0.0720700174570083,0.6418758034706116,0.5048051476478577,-0.0796008706092834,0.6048722863197327,0.4838299453258514,-0.0840342789888382
2023-08-01 16:28:09.699838,7,425,0.9861518144607544,-0.0160850677639246,0.1565825045108795,-0.0522275418043136,-0.38623046875,0.8544921875,0.19091796875,0.7110804915428162,0.8209561705589294,-7.740412684142939e-07,0.658194899559021,0.6839145421981812,0.0165075734257698,0.6455718278884888,0.5779262781143188,0.0119891418144106,0.6253011226654053,0.5001161694526672,-0.0020125363953411,0.6105356216430664,0.4373669028282165,-0.0164852328598499,0.7941796779632568,0.5346981287002563,0.0198130551725626,0.7314543724060059,0.4392796158790588,-0.0060519627295434,0.6699206829071045,0.4186427593231201,-0.0293659381568431,0.6230384707450867,0.4203347563743591,-0.0434568375349044,0.8065740466117859,0.5543469190597534,-0.00522599555552,0.7332558631896973,0.4296101331710815,-0.0288168117403984,0.6632136702537537,0.4118911027908325,-0.0495310574769973,0.6113139390945435,0.4150027334690094,-0.0631235912442207,0.7987738847732544,0.5825212001800537,-0.0322829969227314,0.7066255211830139,0.4777210354804992,-0.0556375607848167,0.6366108059883118,0.4645168781280517,-0.0690542533993721,0.587253212928772,0.4640436768531799,-0.0766925811767578,0.768667459487915,0.6121645569801331,-0.0583311878144741,0.6903384923934937,0.5319879651069641,-0.074624978005886,0.6417127847671509,0.5045444965362549,-0.0824331119656562,0.6053799390792847,0.4836053550243377,-0.087274894118309
2023-08-01 16:28:09.763433,8,426,0.9847865104675292,-0.0145613737404346,0.1630333065986633,-0.0583392269909381,-0.30712890625,0.8388671875,0.2373046875,0.7066282629966736,0.8082545399665833,-7.738187832728727e-07,0.6581407189369202,0.6708263158798218,0.012649075128138,0.6457443833351135,0.5660104751586914,0.0063818315975368,0.6260499358177185,0.4902717471122741,-0.0085075814276933,0.6152210235595703,0.4289278090000152,-0.0236643031239509,0.7989911437034607,0.526308000087738,0.0162340439856052,0.7370062470436096,0.4330164790153503,-0.0116934208199381,0.6776162981987,0.4087890386581421,-0.0365561731159687,0.6310765743255615,0.4048964381217956,-0.0517507493495941,0.8119932413101196,0.5482458472251892,-0.0070937583222985,0.736061692237854,0.4285996854305267,-0.0349412932991981,0.6658815741539001,0.4108920693397522,-0.0588405542075634,0.6135909557342529,0.41264808177948,-0.0739315748214721,0.8048581480979919,0.5767636299133301,-0.0325637720525264,0.7100704312324524,0.4770978987216949,-0.0607793107628822,0.6387261152267456,0.4652332663536072,-0.076577141880989,0.5886638164520264,0.4646323919296264,-0.0844336375594139,0.7754082083702087,0.606075644493103,-0.0570317320525646,0.6956088542938232,0.5298740267753601,-0.0774308517575264,0.6469544172286987,0.5039759278297424,-0.0871049612760543,0.61092209815979,0.4840686023235321,-0.0921896323561668
2023-08-01 16:28:09.833321,9,427,0.9819461107254028,-0.0126608116552233,0.1770385205745697,-0.0654132440686225,-0.40966796875,0.89501953125,0.1513671875,0.7057673931121826,0.8086576461791992,-7.893619340393343e-07,0.6590214967727661,0.669971764087677,0.0108941989019513,0.6503472328186035,0.5612183809280396,0.0065809041261672,0.6323155760765076,0.484572023153305,-0.00592966331169,0.625383734703064,0.4244213700294494,-0.0190585330128669,0.8012503385543823,0.524610698223114,0.0167181994765996,0.7379949688911438,0.4345830082893371,-0.010575876571238,0.6819347143173218,0.406714528799057,-0.034722626209259,0.6360011100769043,0.3958413302898407,-0.0491680093109607,0.8145560026168823,0.5478169918060303,-0.005287648178637,0.7407766580581665,0.4320243299007416,-0.0342557393014431,0.6706108450889587,0.4131242632865906,-0.0590657629072666,0.6166056990623474,0.4134318828582763,-0.0733225643634796,0.8087500929832458,0.5771575570106506,-0.0293330885469913,0.7141197919845581,0.4814227819442749,-0.0603727325797081,0.6411951780319214,0.4730059802532196,-0.0781729072332382,0.5908797383308411,0.4743945300579071,-0.085243783891201,0.7804349660873413,0.6069790124893188,-0.0522026419639587,0.6963940262794495,0.533336341381073,-0.0745226889848709,0.6457933783531189,0.5125228762626648,-0.0846718996763229,0.6090804934501648,0.4984659254550934,-0.0884976461529731
2023-08-01 16:28:09.926043,10,428,0.9794843196868896,-0.0092313820496201,0.1866365224123001,-0.0754452347755432,-0.40087890625,0.8759765625,0.1650390625,0.7082504630088806,0.8081259727478027,-7.777992436786008e-07,0.6598106622695923,0.6663495898246765,0.0091019887477159,0.6512638330459595,0.5599839687347412,0.002708610612899,0.6364786624908447,0.4851168096065521,-0.0114063285291194,0.6332062482833862,0.4266269207000732,-0.0261122174561023,0.804493248462677,0.5270421504974365,0.0107026472687721,0.7407726049423218,0.4336625337600708,-0.0183182097971439,0.6827544569969177,0.4068699479103088,-0.0430383756756782,0.6366202235221863,0.4000847339630127,-0.0577586069703102,0.8177476525306702,0.5512795448303223,-0.0109772225841879,0.7434335350990295,0.4314870238304138,-0.0414116233587265,0.6721423268318176,0.4113810658454895,-0.0662993192672729,0.6186307072639465,0.4134583473205566,-0.0807295143604278,0.8111241459846497,0.5810947418212891,-0.0345751866698265,0.7160366773605347,0.482941210269928,-0.0665077492594719,0.6433014273643494,0.4733369052410126,-0.0839755982160568,0.5943485498428345,0.4761446714401245,-0.0910083577036857,0.7823622822761536,0.6111937165260315,-0.0570867508649826,0.6988972425460815,0.536611795425415,-0.0805235654115676,0.648331880569458,0.5156608819961548,-0.0908153727650642,0.6127118468284607,0.5020570755004883,-0.0947047546505928
2023-08-01 16:28:10.002128,11,429,0.9750291109085084,-0.0049016205593943,0.2042883336544037,-0.0869512259960174,-0.49072265625,0.880859375,0.16162109375,0.7065023183822632,0.8127058744430542,-7.935037160677894e-07,0.6650792956352234,0.6731249094009399,-0.0016199520323425,0.6591875553131104,0.5656260251998901,-0.0143043464049696,0.644164502620697,0.4891789257526397,-0.0313029624521732,0.6377311944961548,0.4320219159126282,-0.0488325394690036,0.820242166519165,0.5403082370758057,-0.0128130046650767,0.7473106980323792,0.4461145401000976,-0.0465387888252735,0.6861839890480042,0.4201333522796631,-0.0712658315896987,0.6396985054016113,0.4119264185428619,-0.0855494067072868,0.8324497938156128,0.5720564126968384,-0.0293551553040742,0.7533482909202576,0.4507746994495392,-0.0649756640195846,0.6788827776908875,0.4334750771522522,-0.0887756720185279,0.6260152459144592,0.4351450204849243,-0.1019827723503112,0.8214477300643921,0.607073962688446,-0.0473008975386619,0.7199313044548035,0.5083378553390503,-0.0838714838027954,0.6441523432731628,0.4931015968322754,-0.1004317179322242,0.5944194197654724,0.4893545508384704,-0.1061905547976493,0.7883331179618835,0.6396568417549133,-0.0643776431679725,0.7061111330986023,0.5661866068840027,-0.0909135341644287,0.6583994030952454,0.5464603304862976,-0.1011964902281761,0.6265047192573547,0.5320445895195007,-0.1045256331562995
2023-08-01 16:28:10.072187,12,430,0.9715040922164916,-0.0023445857223123,0.216177150607109,-0.097168318927288,-0.46240234375,0.89697265625,0.1123046875,0.7072972655296326,0.8221509456634521,-8.045601020967297e-07,0.6729912161827087,0.6848638653755188,-0.005863185506314,0.6693176627159119,0.5785382390022278,-0.0187742840498685,0.6539971828460693,0.4996780753135681,-0.0349032990634441,0.6426203846931458,0.4406259059906006,-0.0511656701564788,0.8332030177116394,0.55544513463974,-0.016307633370161,0.758725643157959,0.4615476727485657,-0.0487185344099998,0.6965994238853455,0.4400232434272766,-0.0710468962788581,0.6500702500343323,0.4378508627414703,-0.0839691534638404,0.8454535007476807,0.5911684632301331,-0.030823141336441,0.7651521563529968,0.4708997011184692,-0.0655351355671882,0.691735565662384,0.4469502568244934,-0.0882178246974945,0.6373883485794067,0.4419029355049133,-0.1012191176414489,0.8335844874382019,0.6299915313720703,-0.0470569133758544,0.7299900650978088,0.5323933959007263,-0.0854929760098457,0.6532098650932312,0.5131751298904419,-0.1019134894013404,0.6023059487342834,0.5054697394371033,-0.1073054000735282,0.799615204334259,0.6654624342918396,-0.0626599863171577,0.7172431945800781,0.5930069088935852,-0.092592604458332,0.669104814529419,0.5717020630836487,-0.1040891408920288,0.6363041996955872,0.5545586347579956,-0.1077574044466018
2023-08-01 16:28:10.142259,13,431,0.9696601629257202,0.0004847067757509,0.2204463630914688,-0.1056513860821724,-0.49267578125,0.875,0.1005859375,0.7082067728042603,0.8273440599441528,-8.201872105928487e-07,0.6725882291793823,0.689725399017334,-0.0094726970419287,0.669494092464447,0.5824751853942871,-0.024903979152441,0.6542002558708191,0.5038005709648132,-0.0429098643362522,0.6430960893630981,0.4422882199287414,-0.0615498051047325,0.83840411901474,0.5655357241630554,-0.0243448726832866,0.7638193368911743,0.4697192907333374,-0.0597123578190803,0.6999062895774841,0.4449508190155029,-0.0840691775083541,0.6515131592750549,0.4398967623710632,-0.09828782081604,0.8488946557044983,0.6032617092132568,-0.0379707254469394,0.7697789669036865,0.4828400313854217,-0.0768956765532493,0.6947391629219055,0.4550638794898987,-0.1020841598510742,0.6408958435058594,0.4448325634002685,-0.1166205778717994,0.8351607322692871,0.643652081489563,-0.0532462447881698,0.7322992086410522,0.5410033464431763,-0.0955901220440864,0.6537261605262756,0.5185049176216125,-0.1139813140034675,0.6025770306587219,0.5081708431243896,-0.1202485561370849,0.8000757694244385,0.6805700063705444,-0.0678294822573661,0.7169956564903259,0.5993377566337585,-0.1000389531254768,0.6668500304222107,0.5715873837471008,-0.1125039532780647,0.6338255405426025,0.550244152545929,-0.1167374774813652
2023-08-01 16:28:10.198044,14,432,0.9692283272743224,0.0016656784573569,0.2203610241413116,-0.109702244400978,-0.458984375,0.86083984375,0.099609375,0.7093801498413086,0.8324356079101562,-8.200378829315014e-07,0.6752542853355408,0.6958040595054626,-0.0129227815195918,0.6734017729759216,0.5882911086082458,-0.0302128382027149,0.6598226428031921,0.5094512104988098,-0.0493296422064304,0.6471276879310608,0.4474400281906128,-0.069026194512844,0.8413987159729004,0.5682541131973267,-0.0286745931953191,0.7651322484016418,0.474081426858902,-0.067048043012619,0.6999416351318359,0.4489466249942779,-0.09383475035429,0.6491214036941528,0.4432593584060669,-0.1092656403779983,0.8537819385528564,0.6094403862953186,-0.041315596550703,0.7734470367431641,0.4896940290927887,-0.0815490782260894,0.6978960633277893,0.4632030725479126,-0.1069606766104698,0.644332230091095,0.4548492431640625,-0.1216699928045272,0.8410294651985168,0.6531478762626648,-0.0560641549527645,0.7366613745689392,0.5512980222702026,-0.0994221270084381,0.6569063067436218,0.5283511281013489,-0.1171816140413284,0.6059404611587524,0.5181828737258911,-0.1229903846979141,0.806434690952301,0.6931113600730896,-0.0705106928944587,0.7226370573043823,0.6111903190612793,-0.1035855039954185,0.673038899898529,0.5853790640830994,-0.1155753508210182,0.6417609453201294,0.5663219690322876,-0.1193377152085304
2023-08-01 16:28:10.263286,15,433,0.9686287641525269,0.001814849441871,0.2212670594453811,-0.1131193339824676,-0.47607421875,0.853515625,0.09619140625,0.7087914347648621,0.8335160613059998,-8.73826365932473e-07,0.6786096692085266,0.6964483261108398,-0.0128714386373758,0.6800730228424072,0.5898488163948059,-0.0291231926530599,0.6725195050239563,0.5111858248710632,-0.047386847436428,0.6650336980819702,0.4473721981048584,-0.0660124719142913,0.8459537625312805,0.5708078742027283,-0.0268781185150146,0.7725535035133362,0.4795073568820953,-0.0662710294127464,0.7081257104873657,0.4561525583267212,-0.0936750918626785,0.6558942794799805,0.4518269300460815,-0.1089299395680427,0.8589401245117188,0.6137140989303589,-0.0392065495252609,0.7754976749420166,0.5007679462432861,-0.0810365080833435,0.6978172063827515,0.4772573709487915,-0.107494980096817,0.6417272090911865,0.4699053168296814,-0.1220379620790481,0.8469168543815613,0.6595491170883179,-0.0538967289030551,0.7404652237892151,0.5607901811599731,-0.0992531329393386,0.6594027280807495,0.5381090044975281,-0.1182766705751419,0.6064413785934448,0.5277158617973328,-0.1238693669438362,0.8126624226570129,0.7014365196228027,-0.0681565999984741,0.7273668050765991,0.6208572387695312,-0.1030801087617874,0.6772922277450562,0.5940189361572266,-0.1164148449897766,0.644672155380249,0.5740906596183777,-0.1202561780810356
2023-08-01 16:28:10.329363,16,434,0.9683656692504884,0.0020443389657884,0.2219555526971817,-0.1140159144997596,-0.48974609375,0.865234375,0.10107421875,0.7110702991485596,0.8411910533905029,-8.224084240282536e-07,0.684017539024353,0.7033212184906006,-0.020219549536705,0.6858226656913757,0.5973514914512634,-0.042225431650877,0.6758444905281067,0.5186523199081421,-0.0646907836198806,0.6630903482437134,0.4624041616916656,-0.0878812596201896,0.8597056865692139,0.583957850933075,-0.0394382178783416,0.7828906178474426,0.4944978654384613,-0.0835061967372894,0.7174972891807556,0.469364732503891,-0.1129293292760849,0.6637206673622131,0.4613485336303711,-0.1292919814586639,0.874143660068512,0.6299535036087036,-0.0504991486668586,0.7926218509674072,0.5125252604484558,-0.0995462015271186,0.7112408876419067,0.4888167381286621,-0.1271030902862548,0.6506532430648804,0.4831137657165527,-0.1406182050704956,0.8613561987876892,0.6791201233863831,-0.0641542822122573,0.7536936402320862,0.5762506723403931,-0.1162953078746795,0.6694437265396118,0.550481379032135,-0.1352966427803039,0.6137484312057495,0.5399258732795715,-0.1390544176101684,0.8248761296272278,0.7231762409210205,-0.077714167535305,0.7380403876304626,0.641010046005249,-0.1174086108803749,0.6864081025123596,0.61288982629776,-0.130934327840805,0.6530088782310486,0.5925605893135071,-0.133993849158287
2023-08-01 16:28:10.389419,17,435,0.9682897925376892,0.0018612928688526,0.222512200474739,-0.1135773956775665,-0.44873046875,0.85107421875,0.1201171875,0.713308572769165,0.8457947969436646,-8.735262326808879e-07,0.6872650384902954,0.7049514651298523,-0.0216016676276922,0.6950448155403137,0.5974780917167664,-0.0400110483169555,0.6982671022415161,0.5184614658355713,-0.0584276989102363,0.7038058638572693,0.4556367397308349,-0.0764171257615089,0.8625367283821106,0.5877228379249573,-0.0364313907921314,0.788811206817627,0.4969583451747894,-0.079314224421978,0.7267531752586365,0.4724858105182647,-0.1074844300746917,0.6756865978240967,0.4665580093860626,-0.1226013079285621,0.875716507434845,0.634818434715271,-0.0460443645715713,0.7935282588005066,0.5193936824798584,-0.0952489301562309,0.7132786512374878,0.4903901815414428,-0.123249813914299,0.6532502770423889,0.4807465076446533,-0.1365371644496917,0.8634345531463623,0.6840247511863708,-0.0588324666023254,0.7559140920639038,0.5813862085342407,-0.1124562919139862,0.6712014079093933,0.5511083602905273,-0.1332144141197204,0.6146224737167358,0.5376114845275879,-0.1373964995145797,0.8278456926345825,0.7273489236831665,-0.0717074498534202,0.7403293251991272,0.6439663767814636,-0.1136118471622467,0.6891408562660217,0.6121258735656738,-0.1295861601829528,0.6556298732757568,0.5884252190589905,-0.133612647652626
2023-08-01 16:28:10.448117,18,436,0.9682295322418212,0.0021650935523211,0.2229943424463272,-0.1131390482187271,-0.4365234375,0.86865234375,0.064453125,0.7156823873519897,0.85565185546875,-8.406116762671445e-07,0.6848464608192444,0.7115103006362915,-0.0202596746385097,0.6866915225982666,0.6035442352294922,-0.0404326096177101,0.6808542013168335,0.5239984393119812,-0.0610822476446628,0.6751972436904907,0.4620144367218017,-0.0819154009222984,0.8635633587837219,0.5972878932952881,-0.0360843986272811,0.7895792126655579,0.5025328397750854,-0.0773967131972312,0.7259316444396973,0.4756933152675628,-0.1052605435252189,0.672095000743866,0.4677875638008117,-0.1207475215196609,0.8764334917068481,0.6419388651847839,-0.046461496502161,0.7963249683380127,0.5215384364128113,-0.0931898355484008,0.7180595397949219,0.4906240701675415,-0.1218543350696563,0.6595383882522583,0.4793486595153808,-0.1368418186903,0.8633483052253723,0.6886524558067322,-0.0594208315014839,0.7566537261009216,0.5825573801994324,-0.110185220837593,0.6724458932876587,0.5537877082824707,-0.1312450170516967,0.6167992949485779,0.5412771701812744,-0.1368760019540786,0.8273430466651917,0.7298984527587891,-0.072414755821228,0.740318238735199,0.6447771787643433,-0.1112129390239715,0.6890256404876709,0.6139292120933533,-0.1259400248527526,0.6551452279090881,0.591863214969635,-0.1301682740449905
2023-08-01 16:28:10.508190,19,437,0.9679985642433168,0.0013295542448759,0.2243323326110839,-0.1124807670712471,-0.4736328125,0.859375,0.13623046875,0.711869478225708,0.8503195643424988,-7.617501864842779e-07,0.68574059009552,0.7144584655761719,-0.0219089817255735,0.6874964833259583,0.6044853329658508,-0.0430220328271389,0.6754436492919922,0.5214484333992004,-0.0643645897507667,0.6640710830688477,0.461893767118454,-0.085808977484703,0.8623520731925964,0.5966059565544128,-0.0379808209836483,0.795268177986145,0.5040386915206909,-0.0778543353080749,0.7340623140335083,0.4796670079231262,-0.1038530990481376,0.6851774454116821,0.4753493070602417,-0.1186862513422966,0.8757182359695435,0.6421905159950256,-0.04702864959836,0.8005784749984741,0.5225744843482971,-0.0931605249643325,0.7248833775520325,0.4922691881656647,-0.1200141683220863,0.6685551404953003,0.4810723662376404,-0.1335585415363311,0.8630400896072388,0.6899182200431824,-0.0586607567965984,0.7569901943206787,0.5847717523574829,-0.1091461703181266,0.673988938331604,0.5547398328781128,-0.1294199973344802,0.6191908121109009,0.540520191192627,-0.1343988329172134,0.8271395564079285,0.7309854626655579,-0.0703474432229995,0.7419260740280151,0.6477339267730713,-0.1092565432190895,0.6901023983955383,0.6162698268890381,-0.1242407858371734,0.656270444393158,0.5925465226173401,-0.1286393851041793
2023-08-01 16:28:10.567034,20,438,0.9660468697547911,0.0018750296439975,0.2330821007490158,-0.1114561930298805,-0.453125,0.861328125,0.041015625,0.7129979133605957,0.8571334481239319,-7.916974027466495e-07,0.6854695677757263,0.7156750559806824,-0.0188771449029445,0.6876121759414673,0.6060177683830261,-0.0388816036283969,0.6768400073051453,0.5232812166213989,-0.0598734319210052,0.6650496125221252,0.4613145589828491,-0.0812255516648292,0.8612961173057556,0.6002645492553711,-0.0341061912477016,0.7930403351783752,0.506625771522522,-0.0749769583344459,0.7314779162406921,0.4794990420341491,-0.1023784205317497,0.6803838014602661,0.4716167449951172,-0.1177846491336822,0.8739240765571594,0.644643247127533,-0.0452413745224475,0.8006983399391174,0.5217010378837585,-0.0916493460536003,0.723828911781311,0.4898762702941894,-0.119274228811264,0.6656062602996826,0.4782169163227081,-0.1331028789281845,0.8606439232826233,0.6907657980918884,-0.0590020716190338,0.7547561526298523,0.5834383368492126,-0.109821543097496,0.6704054474830627,0.553113579750061,-0.130585178732872,0.6149910092353821,0.5390107035636902,-0.1355489492416381,0.82411789894104,0.7304982542991638,-0.0726356580853462,0.7377431988716125,0.6440351605415344,-0.1103086620569229,0.686387300491333,0.6120238900184631,-0.1245121210813522,0.6530416011810303,0.5878115892410278,-0.1285694241523742
2023-08-01 16:28:10.630177,21,439,0.9632530212402344,0.0026541168335825,0.2444528341293335,-0.1112623810768127,-0.2919921875,0.8359375,0.1005859375,0.7111870050430298,0.8571149110794067,-7.881565693423909e-07,0.6839454174041748,0.7158046364784241,-0.0209350455552339,0.685600757598877,0.6052762269973755,-0.0421443991363048,0.6741335391998291,0.5209082365036011,-0.0640534535050392,0.6626187562942505,0.4567455351352691,-0.0859379693865776,0.8593866229057312,0.6001448035240173,-0.0367070361971855,0.7959535121917725,0.5059682726860046,-0.0789413452148437,0.733095645904541,0.4807779192924499,-0.106315016746521,0.6815171241760254,0.4752386808395386,-0.1213806495070457,0.8722975254058838,0.6446048021316528,-0.0469369851052761,0.8005353808403015,0.5206273198127747,-0.0960499793291091,0.7216059565544128,0.4896753132343292,-0.1245085150003433,0.6622786521911621,0.4788877367973327,-0.1380632370710373,0.8597832918167114,0.6905077695846558,-0.0598800741136074,0.7518261671066284,0.5842390060424805,-0.1123846322298049,0.6668426394462585,0.5552360415458679,-0.133873164653778,0.6108847260475159,0.5413696765899658,-0.1387505382299423,0.8244650363922119,0.7302800416946411,-0.0727751776576042,0.7350258231163025,0.6442882418632507,-0.1114876121282577,0.6832207441329956,0.6121259331703186,-0.1265060603618621,0.6497672200202942,0.5867918133735657,-0.1307522803544998
2023-08-01 16:28:10.691938,22,440,0.9571824669837952,0.0034569483250379,0.2680830061435699,-0.109184443950653,-0.38134765625,0.82958984375,0.1220703125,0.7086209654808044,0.859131395816803,-7.763733833598963e-07,0.6829594373703003,0.7159504890441895,-0.0197563748806715,0.6864522099494934,0.6057398319244385,-0.0395603105425834,0.6762784719467163,0.5221127271652222,-0.0602940879762172,0.668936550617218,0.4573056697845459,-0.080936387181282,0.8586221933364868,0.6017358899116516,-0.0326758436858654,0.7946476936340332,0.5082845687866211,-0.0739390924572944,0.7331287264823914,0.4800013899803161,-0.1022847145795822,0.6829433441162109,0.4714815020561218,-0.118220679461956,0.8712741136550903,0.6453350186347961,-0.0428997874259948,0.8011693954467773,0.5235010385513306,-0.0883604660630226,0.7255881428718567,0.489960640668869,-0.1168170645833015,0.6683464646339417,0.4769341945648193,-0.131576731801033,0.8587583303451538,0.6905272603034973,-0.0560216940939426,0.7520190477371216,0.5860474109649658,-0.1056947261095047,0.667547345161438,0.5555002689361572,-0.1276301592588424,0.6110811829566956,0.5402333736419678,-0.1337735652923584,0.8231685757637024,0.730473518371582,-0.0692226216197013,0.7367566227912903,0.647789478302002,-0.1056946888566017,0.686058521270752,0.6167723536491394,-0.1204059571027755,0.652130126953125,0.591808557510376,-0.1251304596662521
2023-08-01 16:28:10.754192,23,441,0.9546430110931396,0.0033644412178546,0.2775011658668518,-0.1078815981745719,-0.435546875,0.85693359375,0.0693359375,0.7095426917076111,0.8587687611579895,-7.535076065323665e-07,0.6792455315589905,0.7040839195251465,-0.0164552349597215,0.6811266541481018,0.5985928177833557,-0.0372587889432907,0.6730788350105286,0.5239605903625488,-0.0589957199990749,0.6687561273574829,0.4661695957183838,-0.0805930346250534,0.853035032749176,0.606767475605011,-0.0364838577806949,0.7889657616615295,0.5017476081848145,-0.0749552100896835,0.7224633097648621,0.4724896550178528,-0.099923200905323,0.6704234480857849,0.4672229886054992,-0.1141571924090385,0.8596042394638062,0.6449930667877197,-0.0483466573059558,0.7979771494865417,0.5087171196937561,-0.0934525951743125,0.7193072438240051,0.4725596904754638,-0.119906760752201,0.6598989367485046,0.4608387351036072,-0.133194625377655,0.8413776159286499,0.6842659115791321,-0.0617889575660228,0.7347652316093445,0.5755778551101685,-0.1065934598445892,0.6553376913070679,0.5452702641487122,-0.125948816537857,0.6054263710975647,0.5300979614257812,-0.1322119385004043,0.8020126223564148,0.7197067737579346,-0.0752077177166938,0.7122779488563538,0.6326342821121216,-0.1055711731314659,0.6620004177093506,0.5968453884124756,-0.1173852980136871,0.631329357624054,0.5677738189697266,-0.1218148097395896
2023-08-01 16:28:10.819195,24,442,0.951943576335907,0.0027583593036979,0.287855327129364,-0.1045713052153587,-0.42236328125,0.8466796875,0.09814453125,0.7074438333511353,0.8588513731956482,-7.794441785335948e-07,0.6779766082763672,0.6995203495025635,-0.0153080048039555,0.6824874877929688,0.5970759391784668,-0.0364457853138446,0.677090585231781,0.5260909795761108,-0.0589355826377868,0.676458477973938,0.4753038883209228,-0.0816418081521987,0.8540584444999695,0.60495525598526,-0.0394555665552616,0.7851394414901733,0.4980722069740295,-0.0799020379781723,0.7151926755905151,0.4682667255401611,-0.1061228066682815,0.6600796580314636,0.4615176916122436,-0.1206772252917289,0.8615860939025879,0.6458556652069092,-0.051873467862606,0.7947103381156921,0.5082451105117798,-0.0961927399039268,0.7148115038871765,0.4734169542789459,-0.1225047335028648,0.6556531190872192,0.4620885550975799,-0.1367216110229492,0.843306839466095,0.6873756051063538,-0.0656013414263725,0.7355127930641174,0.5759177207946777,-0.1095029860734939,0.6542078256607056,0.5453432202339172,-0.1284283250570297,0.6024091839790344,0.5305830836296082,-0.1351083070039749,0.8029799461364746,0.7236785888671875,-0.0791796743869781,0.7147616744041443,0.6342971324920654,-0.1082491278648376,0.6642515063285828,0.5977164506912231,-0.1192434430122375,0.6324597597122192,0.5688197612762451,-0.1236219406127929
2023-08-01 16:28:10.881939,25,443,0.9505311250686646,0.0006775006768293,0.2936570048332214,-0.1012702956795692,-0.5634765625,0.892578125,0.0341796875,0.7101520895957947,0.8579294681549072,-7.257466450028005e-07,0.6769460439682007,0.7018886208534241,-0.0171192158013582,0.6782062649726868,0.597953200340271,-0.038972869515419,0.6707675457000732,0.5249958634376526,-0.0616354048252105,0.6671960949897766,0.4681959748268127,-0.0840070247650146,0.8502144813537598,0.6074941754341125,-0.0421431027352809,0.7966853976249695,0.4996963143348694,-0.0822816342115402,0.7298004627227783,0.469514787197113,-0.1072278767824173,0.6776387691497803,0.4665863215923309,-0.12093136459589,0.8558623790740967,0.6473097205162048,-0.0534944273531436,0.7994124889373779,0.5071213841438293,-0.0998520404100418,0.7192748785018921,0.4697557091712951,-0.124787300825119,0.6594106554985046,0.4615517258644104,-0.1365323066711425,0.8362833857536316,0.6866864562034607,-0.0663531944155693,0.733473539352417,0.5746430158615112,-0.1109495386481285,0.6544989347457886,0.5429261922836304,-0.1287048012018203,0.6046076416969299,0.5299913287162781,-0.1337574422359466,0.7958441972732544,0.7213575839996338,-0.0792431980371475,0.7092205882072449,0.632568895816803,-0.1091619879007339,0.6592956185340881,0.5945894122123718,-0.1202997863292694,0.6281139254570007,0.566245436668396,-0.1240920796990394
2023-08-01 16:28:10.939167,26,444,0.952340304851532,-0.0022934048902243,0.2888692915439605,-0.0979658737778663,-0.35302734375,0.87255859375,0.00830078125,0.7093150019645691,0.8622446060180664,-7.686843446208513e-07,0.6746906638145447,0.7006618976593018,-0.0135913388803601,0.6795393228530884,0.5951750874519348,-0.0333118624985218,0.6798152327537537,0.5242453217506409,-0.0541749000549316,0.6829544901847839,0.472817987203598,-0.0751384124159812,0.8497903943061829,0.6068131923675537,-0.0400444827973842,0.7891314029693604,0.4969182908535003,-0.0790671780705452,0.7213420271873474,0.4640929698944092,-0.1044284999370575,0.6682868599891663,0.4570869207382202,-0.1185584142804145,0.8542087078094482,0.64616858959198,-0.0523961037397384,0.7927745580673218,0.5078893899917603,-0.0952426567673683,0.7143653631210327,0.4687312841415405,-0.1201973780989646,0.6553362607955933,0.4569151997566223,-0.1337900012731552,0.8332040309906006,0.6855125427246094,-0.0657625645399093,0.7311708331108093,0.5743200778961182,-0.1077411472797393,0.6534635424613953,0.539442241191864,-0.1254824250936508,0.6031934022903442,0.5232495069503784,-0.1319012492895126,0.7905095219612122,0.7196794152259827,-0.07884182035923,0.7071847915649414,0.6306753158569336,-0.1066210120916366,0.6581505537033081,0.5911849737167358,-0.1170926541090011,0.6264933943748474,0.5603630542755127,-0.1213802918791771
2023-08-01 16:28:11.009209,27,445,0.956545352935791,-0.0067355898208916,0.2764807343482971,-0.0923798605799675,-0.40966796875,0.8662109375,0.08447265625,0.7064529657363892,0.8617839813232422,-6.314199367807305e-07,0.6655623912811279,0.7025790810585022,-0.010841722600162,0.6671248078346252,0.5947219133377075,-0.0299538057297468,0.6616052985191345,0.5169187188148499,-0.0504995882511138,0.6555886268615723,0.4574669301509857,-0.0718648582696914,0.8291441202163696,0.6027344465255737,-0.0381146892905235,0.7782871127128601,0.4940330684185028,-0.0753171294927597,0.7193137407302856,0.4508940875530243,-0.0999877154827117,0.6698278188705444,0.4307399392127991,-0.1140392497181892,0.8324750065803528,0.6397526860237122,-0.0518791005015373,0.7825918793678284,0.4973210394382477,-0.0922889709472656,0.7125937938690186,0.4531084895133972,-0.1178660988807678,0.6586513519287109,0.4345695376396179,-0.1324983239173889,0.8111582398414612,0.6785981059074402,-0.0661491304636001,0.7156313061714172,0.5639730095863342,-0.1083685234189033,0.6385434865951538,0.5223826766014099,-0.1287317872047424,0.5874863266944885,0.4994610548019409,-0.136685237288475,0.7685497403144836,0.7114064693450928,-0.079435758292675,0.6936450004577637,0.618151068687439,-0.1075186803936958,0.648233950138092,0.5753600597381592,-0.1189500167965889,0.6174874305725098,0.5409570932388306,-0.1243173852562904
2023-08-01 16:28:11.069386,28,446,0.95872700214386,-0.0102763408794999,0.2701315283775329,-0.088124431669712,-0.4990234375,0.88232421875,0.044921875,0.7050649523735046,0.864683210849762,-6.360560291795991e-07,0.6646950244903564,0.7111268639564514,-0.0048988326452672,0.6598025560379028,0.6030241250991821,-0.0228487476706504,0.6488845348358154,0.5291547179222107,-0.0437771715223789,0.6407228112220764,0.4730369448661804,-0.0651387050747871,0.8212767243385315,0.5979932546615601,-0.0298357140272855,0.7688327431678772,0.4891582727432251,-0.068851962685585,0.7078887820243835,0.445858359336853,-0.0968882665038108,0.6558560132980347,0.4270233511924743,-0.1127310469746589,0.8259732723236084,0.6341568231582642,-0.0464313589036464,0.7711570858955383,0.4954982697963714,-0.0850795581936836,0.7013307213783264,0.4519746899604797,-0.1101569682359695,0.6462563872337341,0.4361263513565063,-0.1250345259904861,0.8061784505844116,0.67274409532547,-0.0638414844870567,0.711670458316803,0.5636529922485352,-0.1022473871707916,0.6352031230926514,0.523688554763794,-0.1201476901769638,0.582086443901062,0.5020820498466492,-0.1274375468492508,0.7653574347496033,0.7077018618583679,-0.0803540423512458,0.6936542987823486,0.6200583577156067,-0.1058396324515342,0.6497870683670044,0.5794483423233032,-0.1155213862657547,0.6195738911628723,0.546726644039154,-0.119844377040863
2023-08-01 16:28:11.137752,29,447,0.9634493589401244,-0.0155352558940649,0.2541476190090179,-0.0832638889551162,-0.38623046875,0.86572265625,0.1708984375,0.7061665058135986,0.8700356483459473,-7.010323770373361e-07,0.6545407772064209,0.716518223285675,-0.002277142368257,0.6472575068473816,0.6083108186721802,-0.0163022112101316,0.6332552433013916,0.5332750678062439,-0.0340458191931247,0.6218262910842896,0.4744128286838531,-0.0527085661888122,0.8044984936714172,0.5833438038825989,-0.0202635768800973,0.7517299652099609,0.4855434894561767,-0.0538381673395633,0.6932530999183655,0.4502586722373962,-0.0795163586735725,0.6427123546600342,0.4356231093406677,-0.0946886613965034,0.8100715279579163,0.6204602122306824,-0.0362750552594661,0.7450147271156311,0.4960048198699951,-0.0683289468288421,0.6742538809776306,0.4600164890289306,-0.0918842405080795,0.6198604702949524,0.4444658160209656,-0.1077508181333541,0.792693018913269,0.6614455580711365,-0.0533651933073997,0.7012301683425903,0.5598921179771423,-0.0853146687150001,0.6290883421897888,0.5203791856765747,-0.1029524952173233,0.5769604444503784,0.4960325360298157,-0.1125550642609596,0.7546656727790833,0.6994240283966064,-0.0697581321001052,0.6829807162284851,0.6175208687782288,-0.0900729373097419,0.6397799253463745,0.5788216590881348,-0.0991211161017417,0.6074076890945435,0.5472824573516846,-0.1046136394143104
2023-08-01 16:28:11.200380,30,448,0.9653754830360411,-0.0179946664720773,0.2475200444459915,-0.0803751647472381,-0.50732421875,0.869140625,0.13671875,0.7002263069152832,0.8575674295425415,-6.389039413079445e-07,0.6521808505058289,0.712012767791748,-0.003413749160245,0.6403381824493408,0.6084686517715454,-0.0199915990233421,0.6226769685745239,0.5348498225212097,-0.040500022470951,0.6104340553283691,0.4766420125961303,-0.0618069060146808,0.7981019020080566,0.5762173533439636,-0.0205521043390035,0.7409321069717407,0.4820208549499511,-0.0569072589278221,0.6814595460891724,0.4498071670532226,-0.0848534330725669,0.6325106024742126,0.4341922402381897,-0.1014308482408523,0.806685209274292,0.6142818927764893,-0.0370630361139774,0.7380343675613403,0.4933899343013763,-0.0719020143151283,0.6690565943717957,0.4574453234672546,-0.0967827141284942,0.6151346564292908,0.4372240304946899,-0.1130210682749748,0.7918497323989868,0.6563267111778259,-0.0549358874559402,0.6930391788482666,0.5570383071899414,-0.0905364155769348,0.6200891137123108,0.5249775648117065,-0.1074141189455986,0.5674979090690613,0.5023319125175476,-0.1154144927859306,0.756894588470459,0.6963700652122498,-0.0719900429248809,0.6792849898338318,0.6167252063751221,-0.0958983600139617,0.6346992254257202,0.5838693380355835,-0.1044373586773872,0.6030848026275635,0.5549125075340271,-0.1084758192300796
2023-08-01 16:28:11.255473,31,449,0.9710824489593506,-0.022653754800558,0.2249768674373626,-0.076623260974884,-0.31689453125,0.884765625,0.17724609375,0.7026591897010803,0.8561593294143677,-6.343161089716887e-07,0.6526477932929993,0.7161394953727722,-0.0015192367136478,0.6358780860900879,0.6111775636672974,-0.0173110347241163,0.6139928102493286,0.5384976267814636,-0.0372038371860981,0.5963291525840759,0.4834869503974914,-0.0580739788711071,0.7942973375320435,0.5788977742195129,-0.0194489359855651,0.7356440424919128,0.4856670200824737,-0.0547754392027854,0.6765050888061523,0.4519359469413757,-0.0819941759109497,0.6270794868469238,0.4359346628189087,-0.0986418649554252,0.802398145198822,0.6129512786865234,-0.0374646410346031,0.7375384569168091,0.4898663759231567,-0.0725634023547172,0.6689291000366211,0.4533467292785644,-0.0973163545131683,0.6152665019035339,0.4345753192901611,-0.1132906749844551,0.787203848361969,0.6529439687728882,-0.0566013492643833,0.6923667192459106,0.5541667938232422,-0.0927457213401794,0.6192575693130493,0.5224193334579468,-0.1100670397281646,0.5670598745346069,0.501044511795044,-0.1181492283940315,0.7521140575408936,0.6927523016929626,-0.0747083351016044,0.6769109964370728,0.6116585731506348,-0.0994847640395164,0.6322693228721619,0.5774616003036499,-0.1086715459823608,0.6011062860488892,0.5471603870391846,-0.1132334470748901
2023-08-01 16:28:11.319279,32,450,0.9748418927192688,-0.026414593681693,0.209274023771286,-0.0720413699746131,-0.37451171875,0.89990234375,0.13916015625,0.6993377804756165,0.8546345829963684,-6.140580808278173e-07,0.6482498645782471,0.7193678617477417,-0.0033565862104296,0.6324909925460815,0.6159255504608154,-0.0196886248886585,0.6104112863540649,0.5413200259208679,-0.0394364967942237,0.5905970931053162,0.4829497039318084,-0.0601341724395751,0.7919406890869141,0.5831047296524048,-0.0215686075389385,0.7298881411552429,0.4898388385772705,-0.0555682480335235,0.6732545495033264,0.4539812803268432,-0.0824452117085456,0.6258779168128967,0.4350447654724121,-0.0992066785693168,0.8005847930908203,0.6156880259513855,-0.038123320788145,0.7320377230644226,0.4954549074172973,-0.0717696920037269,0.6660196781158447,0.4562435746192932,-0.0955665782094001,0.6125098466873169,0.4341616034507751,-0.1114112511277198,0.784869372844696,0.6538446545600891,-0.0558020286262035,0.6892922520637512,0.5553323030471802,-0.0906325802206993,0.6197870969772339,0.5218935608863831,-0.1066863164305687,0.5690153241157532,0.4987041652202606,-0.1144020482897758,0.748339056968689,0.6911343336105347,-0.0726853609085083,0.671929121017456,0.6104909181594849,-0.0975143536925315,0.6275107264518738,0.5756494402885437,-0.1065472811460495,0.5956229567527771,0.5449341535568237,-0.111062154173851
2023-08-01 16:28:11.382876,33,451,0.9816453456878662,-0.0315882563591003,0.1768568456172943,-0.0640015304088592,-0.3515625,0.89306640625,0.16845703125,0.7006583213806152,0.8529059886932373,-6.283986522248597e-07,0.6481660604476929,0.7191568613052368,-0.0024220889899879,0.631136953830719,0.6170965433120728,-0.0168260317295789,0.6044058203697205,0.5450855493545532,-0.035145703703165,0.580764889717102,0.4870321750640869,-0.0547159500420093,0.7885820269584656,0.5763339400291443,-0.0152920298278331,0.7258385419845581,0.4887661635875702,-0.045678574591875,0.6700553894042969,0.4549658298492431,-0.071247860789299,0.6234849691390991,0.4369397163391113,-0.0878026261925697,0.7975045442581177,0.6092581152915955,-0.031419888138771,0.7252857089042664,0.4956716001033783,-0.0604170449078083,0.6607263088226318,0.4580587446689605,-0.0840927809476852,0.608905553817749,0.4341860711574554,-0.1013741269707679,0.7835545539855957,0.6487379670143127,-0.0488747470080852,0.6878222227096558,0.5525871515274048,-0.0805358365178108,0.6185124516487122,0.5206406116485596,-0.0976144149899482,0.5675740838050842,0.4978800117969513,-0.107253685593605,0.7489900588989258,0.6878439784049988,-0.0655147060751915,0.6695084571838379,0.6077460050582886,-0.0878882929682731,0.6236831545829773,0.5735542178153992,-0.0970905497670173,0.590072751045227,0.5448243021965027,-0.1026081889867782
2023-08-01 16:28:11.447847,34,452,0.9847263097763062,-0.035501405596733,0.1600606143474578,-0.0586023181676864,-0.4912109375,0.86181640625,0.27783203125,0.701893150806427,0.8480311036109924,-6.386972586369666e-07,0.6469776034355164,0.7227530479431152,-0.0041563585400581,0.6251904964447021,0.6166285872459412,-0.0192513242363929,0.5936756134033203,0.5428659915924072,-0.0377722457051277,0.5656989812850952,0.4838907718658447,-0.0568655841052532,0.7795045971870422,0.5678185224533081,-0.0160714108496904,0.7195419669151306,0.4835991859436035,-0.0482819862663745,0.6618965268135071,0.4556640982627868,-0.0743080303072929,0.6143231987953186,0.4453662633895874,-0.0910788550972938,0.7898414134979248,0.5988088250160217,-0.0326800495386123,0.7216612696647644,0.4866353273391723,-0.0640685558319091,0.6556568145751953,0.457134485244751,-0.0870001018047332,0.6041295528411865,0.4436608552932739,-0.102570354938507,0.7779132127761841,0.6389570832252502,-0.0512786917388439,0.690277636051178,0.5438061356544495,-0.0844107568264007,0.6231456398963928,0.51394122838974,-0.100428283214569,0.5739762783050537,0.4941586256027221,-0.1087105423212051,0.7456069588661194,0.681513786315918,-0.0693845301866531,0.6699274182319641,0.6019114851951599,-0.094022586941719,0.6242339611053467,0.5701562166213989,-0.1035398095846176,0.5908264517784119,0.5437173247337341,-0.1086330488324165
2023-08-01 16:28:11.508204,35,453,0.9886147975921632,-0.0411948859691619,0.1343952715396881,-0.0536816269159317,-0.31591796875,0.8515625,0.326171875,0.6996097564697266,0.8472532033920288,-6.615102279283747e-07,0.6470844745635986,0.723966658115387,-0.001467291614972,0.6229276657104492,0.62032151222229,-0.0169305652379989,0.5886332988739014,0.5518510341644287,-0.0372950360178947,0.5583282113075256,0.496739000082016,-0.0583134777843952,0.7725708484649658,0.5658549666404724,-0.0103543251752853,0.7128917574882507,0.4820273518562317,-0.0459040999412536,0.6560766696929932,0.454171359539032,-0.0766922533512115,0.6076596975326538,0.4447300434112549,-0.0965241566300392,0.7841638326644897,0.5936645269393921,-0.0297793075442314,0.7098245024681091,0.4819331169128418,-0.0629909113049507,0.6452665328979492,0.4565122127532959,-0.0889606550335884,0.594643235206604,0.447285920381546,-0.1065940782427787,0.7757287621498108,0.632847011089325,-0.0516804344952106,0.6901842951774597,0.5364649295806885,-0.0845667049288749,0.6262555718421936,0.5111850500106812,-0.1007721796631813,0.5785174369812012,0.4974309802055359,-0.1093472242355346,0.7475007772445679,0.675822377204895,-0.0733839720487594,0.6734669804573059,0.5988588929176331,-0.0987136587500572,0.6284578442573547,0.5665937662124634,-0.1089587360620498,0.5946895480155945,0.5411545038223267,-0.1144079640507698
2023-08-01 16:28:11.567113,36,454,0.9908978939056396,-0.0431240908801555,0.1177767440676689,-0.0488906688988208,-0.33154296875,0.91650390625,0.20458984375,0.6983460783958435,0.841492235660553,-7.000528512435267e-07,0.6411488056182861,0.7282041311264038,-0.0001258385455003,0.6154559254646301,0.6204565167427063,-0.0126988673582673,0.5801928639411926,0.5471446514129639,-0.0306377336382865,0.5465385913848877,0.4874992370605469,-0.0490374788641929,0.7572907209396362,0.5483860373497009,-0.0037532369606196,0.6964773535728455,0.4711319804191589,-0.036758679896593,0.6368016600608826,0.453980803489685,-0.0648904591798782,0.5881078243255615,0.4567060470581054,-0.0826576501131057,0.772088885307312,0.5753453373908997,-0.0229966435581445,0.7009291648864746,0.4705113470554352,-0.0556663796305656,0.6323786973953247,0.4520038366317749,-0.0810237750411033,0.5789620876312256,0.4507300555706024,-0.0970290601253509,0.767398476600647,0.6157238483428955,-0.044851504266262,0.68333899974823,0.5290161967277527,-0.0785445198416709,0.6148788928985596,0.5090482831001282,-0.0956581979990005,0.5643689036369324,0.4997630417346954,-0.103659488260746,0.7419748902320862,0.6603198051452637,-0.0661874413490295,0.6676510572433472,0.587061882019043,-0.0916391387581825,0.6213957667350769,0.5595149397850037,-0.1021713539958,0.5871149301528931,0.5378095507621765,-0.1072135269641876
2023-08-01 16:28:11.629207,37,455,0.9925366044044496,-0.0446487814188003,0.1042606085538864,-0.0448024347424507,-0.38037109375,0.9287109375,0.1513671875,0.6971503496170044,0.8450006246566772,-7.154803256526066e-07,0.6386840343475342,0.7321524024009705,0.0019822255708277,0.6121740937232971,0.6211731433868408,-0.0092370472848415,0.5771809816360474,0.5459098219871521,-0.0267522856593132,0.542861819267273,0.4836423099040985,-0.0444825179874897,0.7511590123176575,0.5461559891700745,0.003707856638357,0.6904633641242981,0.4710180759429931,-0.0304832495748996,0.6324607729911804,0.453337013721466,-0.0605470947921276,0.5835064649581909,0.4552512168884277,-0.0792919769883155,0.7687624096870422,0.5707643628120422,-0.017123645171523,0.6968240737915039,0.4662021994590759,-0.051725335419178,0.6307913064956665,0.4494022727012634,-0.0795319229364395,0.5782142281532288,0.4495558738708496,-0.0962339863181114,0.767408013343811,0.6097371578216553,-0.0409269928932189,0.6787835359573364,0.5248275995254517,-0.076328344643116,0.6103085279464722,0.507835865020752,-0.0947365909814834,0.559538722038269,0.5006915330886841,-0.1024942770600318,0.7444286942481995,0.6543121337890625,-0.0641691833734512,0.6663524508476257,0.5831637382507324,-0.0907605960965156,0.619641900062561,0.5544233322143555,-0.1024308800697326,0.584388017654419,0.5309633016586304,-0.1077524498105049
2023-08-01 16:28:11.691863,38,456,0.9938799142837524,-0.0454633384943008,0.0915510654449462,-0.0418824478983879,-0.2333984375,0.87451171875,0.3603515625,0.697194516658783,0.8501428961753845,-7.421598979817645e-07,0.637814998626709,0.7356951236724854,0.0061250990256667,0.6113259196281433,0.6246939897537231,-0.0028964797966182,0.5754615664482117,0.5489848852157593,-0.0195953678339719,0.5400024056434631,0.4854406118392944,-0.0365581475198268,0.7492953538894653,0.5469627976417542,0.0130289420485496,0.6882209181785583,0.4699164032936096,-0.018188040703535,0.6311661005020142,0.4509450793266296,-0.047752384096384,0.5832942128181458,0.4498647451400757,-0.0668100118637085,0.7666305303573608,0.5692799687385559,-0.0089676165953278,0.6879597306251526,0.4704869091510772,-0.038267008960247,0.6217819452285767,0.4528143405914306,-0.0644590035080909,0.5692480802536011,0.4484913349151611,-0.0820230916142463,0.766231119632721,0.6061472296714783,-0.0343009047210216,0.6756398677825928,0.5179745554924011,-0.0646887719631195,0.6071630120277405,0.5010940432548523,-0.0809885635972023,0.5545676946640015,0.4942077994346618,-0.0893520563840866,0.7443035840988159,0.6493379473686218,-0.059288028627634,0.6640013456344604,0.5780225992202759,-0.0829875096678733,0.6164981722831726,0.5502301454544067,-0.0937986150383949,0.5797454714775085,0.5279642343521118,-0.0995186492800712
2023-08-01 16:28:11.748217,39,457,0.9938756823539734,-0.0454348623752594,0.0914305597543716,-0.0422765426337718,-0.30126953125,0.87451171875,0.3232421875,0.7000722885131836,0.8492962121963501,-7.844271294743521e-07,0.6363525986671448,0.7377550005912781,0.00847421400249,0.6087766289710999,0.626921534538269,0.0002490703773219,0.5737978219985962,0.5522396564483643,-0.0163803342729806,0.5366361141204834,0.4913574755191803,-0.033825896680355,0.7443512082099915,0.5430413484573364,0.0170816145837306,0.6747992634773254,0.4641458988189697,-0.0137744564563035,0.6136472225189209,0.4490938782691955,-0.0442121811211109,0.5655218362808228,0.4526327252388,-0.0639594346284866,0.7624243497848511,0.5613657832145691,-0.0060435286723077,0.6757559180259705,0.4616430401802063,-0.0363703891634941,0.6040937900543213,0.4521499872207641,-0.0647669956088066,0.5483911037445068,0.457409143447876,-0.0830432772636413,0.7629650831222534,0.5945937037467957,-0.0321751236915588,0.6704716086387634,0.5069208145141602,-0.0613963901996612,0.5996634364128113,0.4929158389568329,-0.0795778483152389,0.5455157160758972,0.4897356629371643,-0.089350551366806,0.7422612905502319,0.6351961493492126,-0.0578983277082443,0.6601853370666504,0.5707694292068481,-0.0805185288190841,0.6108160018920898,0.5474802851676941,-0.0921396538615226,0.5722605586051941,0.5290270447731018,-0.0985478982329368
2023-08-01 16:28:11.817229,40,458,0.9950059056282043,-0.0449175350368022,0.0799993500113487,-0.0393155589699745,-0.3125,0.9013671875,0.302734375,0.7048517465591431,0.8522366881370544,-8.485269518132554e-07,0.6351690888404846,0.7359108328819275,0.0148332696408033,0.607264518737793,0.6282882690429688,0.0104627897962927,0.5728882551193237,0.5568221807479858,-0.0040851132944226,0.5400094985961914,0.4972859025001526,-0.0197358299046754,0.739687979221344,0.5427035093307495,0.0291410181671381,0.6620603203773499,0.4720380306243896,0.0010304624447599,0.5982681512832642,0.4618045389652252,-0.0293172020465135,0.5471469163894653,0.4662649929523468,-0.0490648709237575,0.7567421793937683,0.5581478476524353,0.0034191971644759,0.6625427603721619,0.4655604362487793,-0.021174756810069,0.5912749171257019,0.4581196904182434,-0.0488419942557811,0.5354218482971191,0.4611789882183075,-0.0680310279130935,0.7582096457481384,0.5882397890090942,-0.0252322666347026,0.6614349484443665,0.5028970241546631,-0.049386903643608,0.590945839881897,0.4909956157207489,-0.0662943348288536,0.5360610485076904,0.4873751401901245,-0.0766187608242034,0.7393139004707336,0.6266054511070251,-0.0534160770475864,0.6507835984230042,0.5642381906509399,-0.072440356016159,0.5996431708335876,0.5425990223884583,-0.0819468423724174,0.5595882534980774,0.5248125791549683,-0.0874710083007812
2023-08-01 16:28:11.875773,41,459,0.9954782724380492,-0.0445633195340633,0.0748082473874092,-0.0379574485123157,-0.38525390625,0.9169921875,0.1513671875,0.7017733454704285,0.8498361706733704,-8.162783728948853e-07,0.6343259215354919,0.7353082895278931,0.0156396217644214,0.6090879440307617,0.6298236846923828,0.0128310220316052,0.5772384405136108,0.5597378611564636,-0.0003188432892784,0.5466574430465698,0.5000770688056946,-0.0141846174374222,0.7375820279121399,0.542292594909668,0.0306861009448766,0.665090799331665,0.470636248588562,0.0024667729157954,0.6031203866004944,0.45710289478302,-0.027183448895812,0.552459716796875,0.4601508975028991,-0.0459339171648025,0.7547571063041687,0.5563069581985474,0.0051272623240947,0.6632034182548523,0.4650174379348755,-0.0208187084645032,0.5932668447494507,0.4588868021965027,-0.0478465110063552,0.5389158725738525,0.4653079211711883,-0.0652695819735527,0.7568575143814087,0.5845344662666321,-0.0233905334025621,0.6578685641288757,0.5025087594985962,-0.0477677546441555,0.5885121822357178,0.4937416017055511,-0.0631737411022186,0.5357421040534973,0.4934040307998657,-0.0714705660939216,0.7385271787643433,0.6222094893455505,-0.0515096597373485,0.6470656991004944,0.5631152987480164,-0.0690376982092857,0.5951958298683167,0.544385552406311,-0.0769268423318862,0.5556548833847046,0.530921220779419,-0.0807558894157409
2023-08-01 16:28:11.935024,42,460,0.9960585832595824,-0.0452016107738018,0.0676153302192688,-0.0353862270712852,-0.203125,0.88720703125,0.33984375,0.7106202840805054,0.8567429780960083,-8.570464729018568e-07,0.6363911628723145,0.7423269748687744,0.0214328542351722,0.6098748445510864,0.6355584263801575,0.0203648414462804,0.578026294708252,0.5656354427337646,0.0071905511431396,0.5472425222396851,0.5078853368759155,-0.0074337148107588,0.7366356253623962,0.5430372357368469,0.0370462201535701,0.6599547266960144,0.4721617400646209,0.0088957408443093,0.5961721539497375,0.460935890674591,-0.0216667018830776,0.5448226928710938,0.466188371181488,-0.0413594059646129,0.7543396353721619,0.5554545521736145,0.0070304926484823,0.6613893508911133,0.4593622386455536,-0.01990931853652,0.589023232460022,0.4567571878433227,-0.0488616116344928,0.5339909195899963,0.4694189131259918,-0.0673012882471084,0.7567050457000732,0.583588182926178,-0.0256351251155138,0.6572234630584717,0.4996022582054138,-0.0501096211373806,0.5851069688796997,0.4915699064731598,-0.0676069483160972,0.5314226746559143,0.493605375289917,-0.0775253474712371,0.7387520670890808,0.6217275261878967,-0.0575197972357273,0.6479666829109192,0.5607489347457886,-0.0748205110430717,0.5945611596107483,0.5416098237037659,-0.0838081836700439,0.5537467002868652,0.5286314487457275,-0.0889395177364349
2023-08-01 16:28:11.997814,43,461,0.9964027404785156,-0.0450403057038784,0.0631399750709533,-0.0341505669057369,-0.3154296875,0.9130859375,0.33544921875,0.7110934257507324,0.8570367097854614,-8.147586072482227e-07,0.6357166171073914,0.7421492338180542,0.0203821342438459,0.6087393760681152,0.6352753639221191,0.0190563518553972,0.5786407589912415,0.5654706954956055,0.0062785558402538,0.5480806231498718,0.5079057812690735,-0.0079146167263388,0.735089898109436,0.5411896109580994,0.0354183465242385,0.6563463807106018,0.4738343358039856,0.0096722580492496,0.5951654314994812,0.4624677300453186,-0.0183388888835906,0.5474725961685181,0.4656096696853637,-0.0362838394939899,0.753884494304657,0.5528835654258728,0.0071386685594916,0.6605332493782043,0.4605856835842132,-0.0167612973600626,0.5901830792427063,0.4573001861572265,-0.0418183431029319,0.5370278358459473,0.4671057462692261,-0.0577765256166458,0.7562417387962341,0.5815187692642212,-0.0237020459026098,0.6576419472694397,0.4975247383117676,-0.0459498018026351,0.5861733555793762,0.4876857399940491,-0.0597803629934787,0.5329802632331848,0.486309140920639,-0.0675190016627311,0.7364671230316162,0.6207385659217834,-0.0538680963218212,0.6451718807220459,0.5612666010856628,-0.0698078051209449,0.5913125276565552,0.542474627494812,-0.0763556808233261,0.5503641366958618,0.5275824666023254,-0.0795828700065612
2023-08-01 16:28:12.064190,44,462,0.9963914155960084,-0.0446559637784957,0.0631307363510131,-0.0349948182702064,-0.3134765625,0.919921875,0.2998046875,0.7186474204063416,0.8688762187957764,-8.926207328840974e-07,0.6374781131744385,0.7564979791641235,0.0263685397803783,0.6097165942192078,0.6468961834907532,0.028981365263462,0.5791217088699341,0.5756701827049255,0.0183151941746473,0.5481727719306946,0.5170217156410217,0.0062083709053695,0.7271739840507507,0.5449791550636292,0.0475235134363174,0.6480296850204468,0.4801749587059021,0.0234980974346399,0.5848584175109863,0.4742656350135803,-0.0053290561772882,0.5347458124160767,0.4839569330215454,-0.0238410774618387,0.7462075352668762,0.553211510181427,0.01608607172966,0.649066150188446,0.4638914465904236,-0.0047160219401121,0.57774418592453,0.4649564027786255,-0.03104586340487,0.5232105255126953,0.481004923582077,-0.0483568832278251,0.7509220242500305,0.5789986252784729,-0.0179878715425729,0.6507788896560669,0.4962020218372345,-0.0360831171274185,0.5786140561103821,0.4889928996562958,-0.0508605167269706,0.5238310098648071,0.4932321310043335,-0.0602009296417236,0.7345911264419556,0.6175816059112549,-0.0513883158564567,0.640773355960846,0.5591778755187988,-0.0643272399902343,0.586243748664856,0.540589451789856,-0.0712115541100502,0.544147253036499,0.5281011462211609,-0.0753217115998268
2023-08-01 16:28:12.129301,45,463,0.9962078928947448,-0.0438844561576843,0.0660955384373664,-0.0357139967381954,-0.23974609375,0.89892578125,0.298828125,0.7169886231422424,0.8689124584197998,-8.760040941524494e-07,0.6371132731437683,0.7574545741081238,0.0253445617854595,0.6107035279273987,0.6481319665908813,0.0282550547271966,0.5834274291992188,0.5773716568946838,0.0189286209642887,0.5537241101264954,0.5210956931114197,0.0088499682024121,0.7285777926445007,0.5428017377853394,0.0444674305617809,0.6470223665237427,0.4744182825088501,0.0210725292563438,0.5845498442649841,0.471378743648529,-0.0059967725537717,0.5366271138191223,0.4842419028282165,-0.0228711478412151,0.7451529502868652,0.5513322353363037,0.015280251391232,0.6414356827735901,0.4604990482330322,-0.0051789432764053,0.5718675851821899,0.4667162299156189,-0.0289606563746929,0.5218090415000916,0.4875756502151489,-0.0440035313367843,0.7478249073028564,0.5770722031593323,-0.0163018386811018,0.6437716484069824,0.4959183037281036,-0.0339047610759735,0.5730001330375671,0.4911842048168182,-0.0456885583698749,0.5213371515274048,0.4967663288116455,-0.0524218864738941,0.7307602167129517,0.6161958575248718,-0.0471886172890663,0.6384748220443726,0.5589590072631836,-0.0590304881334304,0.5830060243606567,0.5414716601371765,-0.0633874014019966,0.5404651165008545,0.529286801815033,-0.0651045739650726
2023-08-01 16:28:12.187774,46,464,0.9960507154464722,-0.0427813194692134,0.069078080356121,-0.0357911027967929,-0.31103515625,0.8974609375,0.3232421875,0.7168787717819214,0.8720265030860901,-8.861107403390633e-07,0.6367194652557373,0.7568492889404297,0.027229031547904,0.6113113760948181,0.6479963064193726,0.0307586397975683,0.5839246511459351,0.5776744484901428,0.0213035605847835,0.5540953278541565,0.5206875205039978,0.0108686871826648,0.7296875715255737,0.5436517596244812,0.0482299178838729,0.6480603218078613,0.4763202965259552,0.0252272319048643,0.5851331949234009,0.4732260704040527,-0.0023595991078764,0.5367604494094849,0.4863056540489197,-0.0196458306163549,0.7463713884353638,0.5523495078086853,0.0178519152104854,0.6440222859382629,0.463755190372467,-0.0011530603514984,0.575056254863739,0.4682358503341675,-0.0256533119827508,0.524346113204956,0.4861032962799072,-0.0417733080685138,0.7490050792694092,0.5783794522285461,-0.0149816665798425,0.6447134613990784,0.4991679787635803,-0.0311496313661336,0.574448823928833,0.4928663969039917,-0.0433196797966957,0.5219689607620239,0.495840460062027,-0.050945084542036,0.7316802144050598,0.617428183555603,-0.0471434146165847,0.6377393007278442,0.5586725473403931,-0.0579558387398719,0.5827081203460693,0.5394758582115173,-0.062321700155735,0.5400318503379822,0.5250992178916931,-0.0644818022847175
