Timestamp,Index,Frame ID,w,x,y,z,ax,ay,az,x_0,y_0,z_0,x_1,y_1,z_1,x_2,y_2,z_2,x_3,y_3,z_3,x_4,y_4,z_4,x_5,y_5,z_5,x_6,y_6,z_6,x_7,y_7,z_7,x_8,y_8,z_8,x_9,y_9,z_9,x_10,y_10,z_10,x_11,y_11,z_11,x_12,y_12,z_12,x_13,y_13,z_13,x_14,y_14,z_14,x_15,y_15,z_15,x_16,y_16,z_16,x_17,y_17,z_17,x_18,y_18,z_18,x_19,y_19,z_19,x_20,y_20,z_20
2023-08-01 16:28:12.251422,0,465,0.9957897067070008,-0.0414537712931633,0.0731708407402038,-0.0364760011434555,-0.31982421875,0.91259765625,0.2734375,0.7151767015457153,0.8713181018829346,-8.775884339229378e-07,0.6373164057731628,0.7571020722389221,0.0276621710509061,0.6117432713508606,0.6485060453414917,0.0317328125238418,0.5847854614257812,0.5785819888114929,0.0227855127304792,0.5551126003265381,0.5223459601402283,0.0129309939220547,0.7281368374824524,0.5453009009361267,0.0495373122394084,0.6482348442077637,0.4781261086463928,0.0269860457628965,0.5859987735748291,0.4734230041503906,-0.0002917822275776,0.537979781627655,0.4848201274871826,-0.0174810048192739,0.7447500228881836,0.55368971824646,0.0191253926604986,0.6432642936706543,0.4651158154010772,0.0002554429811425,0.5754847526550293,0.4692068696022033,-0.0237744934856891,0.5257133841514587,0.4873527586460113,-0.0395204573869705,0.7480336427688599,0.579009473323822,-0.0137981809675693,0.6454386711120605,0.498517632484436,-0.0301370024681091,0.5756822228431702,0.4916800260543823,-0.0420100204646587,0.5235613584518433,0.4953911304473877,-0.0492447577416896,0.7319541573524475,0.6173210740089417,-0.0459975972771644,0.6391832232475281,0.5586049556732178,-0.0567201450467109,0.5840456485748291,0.5399267673492432,-0.0607040785253047,0.5413860082626343,0.5270917415618896,-0.0625149831175804
2023-08-01 16:28:12.312996,1,466,0.9952833652496338,-0.0404180400073528,0.079850398004055,-0.0374332182109355,-0.24755859375,0.90966796875,0.29833984375,0.7148585319519043,0.8691409230232239,-8.215711204684339e-07,0.6376622915267944,0.7537754774093628,0.0284183323383331,0.6147769689559937,0.6453599333763123,0.0330438502132892,0.5866252183914185,0.5735936164855957,0.0247634444385767,0.5545138716697693,0.5174496173858643,0.0153353232890367,0.7345726490020752,0.5491254925727844,0.0510855689644813,0.6591431498527527,0.4798583388328552,0.0313663706183433,0.5979301929473877,0.467738926410675,0.0061886068433523,0.5493065714836121,0.4693561196327209,-0.0102580050006508,0.7518516778945923,0.5567461252212524,0.02080699801445,0.6556485295295715,0.4649831056594848,0.0039169737137854,0.5869626998901367,0.4607369601726532,-0.018692810088396,0.5343629121780396,0.469842255115509,-0.0338528230786323,0.7540378570556641,0.5816121101379395,-0.0118511281907558,0.6536498665809631,0.4992485344409942,-0.0277072247117757,0.5839523673057556,0.4881690442562103,-0.0389301590621471,0.5305536985397339,0.4860288500785827,-0.0457710772752761,0.7350303530693054,0.6177455186843872,-0.0436013825237751,0.6458068490028381,0.557324230670929,-0.0540538541972637,0.5924347639083862,0.5373890995979309,-0.0576164945960044,0.5502148866653442,0.5219562649726868,-0.0592738091945648
2023-08-01 16:28:12.372830,2,467,0.9946404099464417,-0.0401177927851676,0.0870175510644912,-0.0388448536396026,-0.31494140625,0.90771484375,0.27978515625,0.7142881751060486,0.8680086135864258,-8.640826081318664e-07,0.6374526023864746,0.7552259564399719,0.0240504946559667,0.6143858432769775,0.6450382471084595,0.0269114170223474,0.5876274108886719,0.5729652643203735,0.0177225656807422,0.5571131110191345,0.515644907951355,0.0075869215652346,0.7330743074417114,0.5478870272636414,0.0442501120269298,0.6560530066490173,0.4763459265232086,0.0215703658759593,0.5938783884048462,0.4666010737419128,-0.0053548575378954,0.5455234050750732,0.4724933207035064,-0.0226584784686565,0.7499769330024719,0.5563951134681702,0.0158694479614496,0.651580274105072,0.4643470346927643,-0.0040793549269437,0.5813305974006653,0.4648581445217132,-0.0285092890262603,0.5296326875686646,0.4790351986885071,-0.0446057729423046,0.7528149485588074,0.5814922451972961,-0.0150368083268404,0.6512981057167053,0.4970182180404663,-0.0326434411108493,0.580461859703064,0.489414244890213,-0.0454209633171558,0.5284292697906494,0.4916862845420837,-0.0532109998166561,0.7358379364013672,0.6187570095062256,-0.0453618802130222,0.6460180282592773,0.5571183562278748,-0.0574647933244705,0.591895341873169,0.5365622043609619,-0.0628694742918014,0.550445556640625,0.521815836429596,-0.0657345727086067
2023-08-01 16:28:12.434440,3,468,0.9937142133712769,-0.039691898971796,0.0961045250296592,-0.0414783433079719,-0.291015625,0.8876953125,0.306640625,0.7147957682609558,0.867641806602478,-8.335169923157082e-07,0.6373599767684937,0.7542401552200317,0.026756465435028,0.6152725219726562,0.6437127590179443,0.0315241292119026,0.588452935218811,0.5718004703521729,0.0239576026797294,0.5581549406051636,0.5149829983711243,0.0153172807767987,0.734321117401123,0.5488726496696472,0.0473871119320392,0.6599902510643005,0.4782819151878357,0.0278160758316516,0.5992729067802429,0.4673013389110565,0.0037299108225852,0.5519411563873291,0.4703884124755859,-0.0120041947811841,0.7515187859535217,0.5564435720443726,0.0179761908948421,0.6578512787818909,0.4603131413459778,-0.0006654988974332,0.5891062617301941,0.4587651789188385,-0.023356644436717,0.5377282500267029,0.4717434644699096,-0.0376670323312282,0.7534083127975464,0.5815255641937256,-0.0136248143389821,0.6531115770339966,0.4972478747367859,-0.0306509379297494,0.583023726940155,0.4886074960231781,-0.0424922965466976,0.5311446189880371,0.4884504079818725,-0.0491103492677211,0.7339677810668945,0.6185803413391113,-0.0443243756890296,0.644770085811615,0.5545022487640381,-0.0553231239318847,0.5909501910209656,0.5337678790092468,-0.0597134046256542,0.549204409122467,0.5175999999046326,-0.0617756433784961
2023-08-01 16:28:12.491089,4,469,0.992141604423523,-0.0376945994794368,0.1104038506746292,-0.0452231541275978,-0.3173828125,0.9169921875,0.1982421875,0.7064170241355896,0.8579365611076355,-7.418164500450075e-07,0.6340914964675903,0.733639121055603,0.0260974653065204,0.6143103241920471,0.6251980662345886,0.030062848702073,0.5866591930389404,0.5540355443954468,0.0216977540403604,0.5588976144790649,0.4966391623020172,0.0123964352533221,0.7419886589050293,0.5407818555831909,0.0481224879622459,0.6722421050071716,0.4671506881713867,0.0272417664527893,0.6122822165489197,0.4468852877616882,0.0022287282627075,0.5631817579269409,0.4398501515388489,-0.0141113419085741,0.759728193283081,0.551018476486206,0.0185921601951122,0.6744559407234192,0.4512824118137359,-0.0019558465573936,0.605490505695343,0.4408473372459411,-0.0255943462252616,0.5507833361625671,0.4428153336048126,-0.040281992405653,0.7613901495933533,0.5764598250389099,-0.0134873548522591,0.6615334153175354,0.4944282472133636,-0.0337212905287742,0.5898734331130981,0.4807146787643432,-0.0466585680842399,0.5348478555679321,0.4726848006248474,-0.0531574822962284,0.7391964793205261,0.611461877822876,-0.0445708483457565,0.6502152681350708,0.5490325093269348,-0.0567945130169391,0.5973842144012451,0.5272795557975769,-0.0611416436731815,0.5559248328208923,0.5069116353988647,-0.0630821734666824
2023-08-01 16:28:12.560876,5,470,0.9899210929870604,-0.0370875746011734,0.1268504410982132,-0.0508894845843315,-0.2939453125,0.8955078125,0.25439453125,0.7072303295135498,0.8604341745376587,-8.012199828044686e-07,0.6358641982078552,0.7377511262893677,0.0248906910419464,0.6151445508003235,0.6273506879806519,0.026876363903284,0.5872821807861328,0.5528961420059204,0.0164326950907707,0.5597101449966431,0.4920457303524017,0.0051912888884544,0.7428939342498779,0.5430206656455994,0.0442640706896781,0.6730480194091797,0.468254953622818,0.0223019570112228,0.6116060018539429,0.4519073367118835,-0.0028018457815051,0.5638110637664795,0.4536066651344299,-0.0189695470035076,0.7603213787078857,0.5537182092666626,0.0143392495810985,0.6768497228622437,0.4495383501052856,-0.0045526907779276,0.6079935431480408,0.441504418849945,-0.0257294923067092,0.5556864738464355,0.4514305591583252,-0.0393290631473064,0.7616243362426758,0.5802627205848694,-0.0184295512735843,0.6654361486434937,0.4909335970878601,-0.036279272288084,0.5958865880966187,0.4791425466537475,-0.0475691556930542,0.5444253087043762,0.4783914685249328,-0.0543138645589351,0.739870548248291,0.616123378276825,-0.0506181642413139,0.6499723792076111,0.5513602495193481,-0.0629936009645462,0.5956143140792847,0.5293858647346497,-0.0683293268084526,0.5537673830986023,0.5124200582504272,-0.0715410560369491
2023-08-01 16:28:12.626041,6,471,0.9864295125007628,-0.0353651270270347,0.149382397532463,-0.0582313425838947,-0.04833984375,0.88623046875,0.22509765625,0.7099227905273438,0.8613632917404175,-7.927658884909761e-07,0.6377303600311279,0.736646831035614,0.0251180715858936,0.61581951379776,0.624036431312561,0.0275286473333835,0.5893824100494385,0.5478719472885132,0.0178159642964601,0.5660896301269531,0.4856131970882416,0.0074192429892718,0.7453300952911377,0.540953516960144,0.0430507622659206,0.6745299100875854,0.4628523588180542,0.0210816413164138,0.6136002540588379,0.4442921280860901,-0.0036263116635382,0.565707266330719,0.4427720308303833,-0.0193638186901807,0.7628792524337769,0.5521562695503235,0.013436353765428,0.6794090270996094,0.4444827437400818,-0.0065657789818942,0.6095702648162842,0.4352945685386657,-0.0277377627789974,0.5562501549720764,0.4459853172302246,-0.0407606400549411,0.7630847692489624,0.5786383748054504,-0.0188124366104602,0.667128324508667,0.4866799414157867,-0.0373872220516204,0.5965353846549988,0.4734043478965759,-0.0491021126508712,0.5441272258758545,0.4727283120155334,-0.0555981062352657,0.7393690943717957,0.6142904758453369,-0.0503305047750473,0.6505202054977417,0.54896479845047,-0.0627240315079689,0.596428632736206,0.5266271829605103,-0.0682571828365325,0.5548673272132874,0.5094602704048157,-0.0713400170207023
2023-08-01 16:28:12.681338,7,472,0.9823997020721436,-0.0315566286444664,0.172379657626152,-0.0646538212895393,-0.4814453125,0.91259765625,0.21630859375,0.7057665586471558,0.8481920957565308,-7.109139801286801e-07,0.6419685482978821,0.7224538326263428,0.0140604590997099,0.6188965439796448,0.6115549206733704,0.0071590989828109,0.5865246653556824,0.5355319380760193,-0.0084816068410873,0.5566893815994263,0.4725815057754516,-0.0242418516427278,0.7605016231536865,0.53756183385849,0.0161020774394273,0.6894940137863159,0.4494070410728454,-0.0112763894721865,0.6262110471725464,0.4372066259384155,-0.0367460809648036,0.5790195465087891,0.4431453645229339,-0.0526386722922325,0.7757101655006409,0.5545770525932312,-0.007864230312407,0.6942974925041199,0.4342857003211975,-0.0343789309263229,0.6246452927589417,0.4282829761505127,-0.056108970195055,0.5740002393722534,0.4381071329116821,-0.0694194287061691,0.7700871825218201,0.5853562355041504,-0.033570297062397,0.673281192779541,0.4870680272579193,-0.0569285377860069,0.6047319173812866,0.4757146537303924,-0.0678091272711753,0.5560637712478638,0.4738593697547912,-0.0734173282980918,0.7407910227775574,0.6216731071472168,-0.0586047284305095,0.6569581031799316,0.5514670014381409,-0.0742698013782501,0.6045911908149719,0.5285983085632324,-0.0798674449324607,0.5648272633552551,0.5096240043640137,-0.082828477025032
2023-08-01 16:28:12.741918,8,473,0.9797018766403198,-0.0283087659627199,0.1852753162384033,-0.0711045339703559,-0.298828125,0.826171875,0.197265625,0.706211268901825,0.8513101935386658,-7.847913821024122e-07,0.6442689895629883,0.7178863286972046,0.0179032087326049,0.6218764781951904,0.6085411310195923,0.0122233191505074,0.5931458473205566,0.5293283462524414,-0.0029276018030941,0.5711414813995361,0.4636320471763611,-0.018205227330327,0.7703954577445984,0.5442169904708862,0.0178792141377925,0.696482241153717,0.4523451030254364,-0.0083245579153299,0.6330708861351013,0.436158537864685,-0.0315506756305694,0.5856599807739258,0.4395195841789245,-0.0455720387399196,0.7831543684005737,0.5646404027938843,-0.0080941002815961,0.6977280974388123,0.4394034743309021,-0.029886070638895,0.6269434094429016,0.4296876192092895,-0.0478748604655265,0.5764955878257751,0.4383570849895477,-0.0600019805133342,0.7747414112091064,0.5955120325088501,-0.0356533601880073,0.6734970808029175,0.4947998821735382,-0.0561569593846797,0.6027489900588989,0.4860488772392273,-0.0651119276881218,0.5539810061454773,0.4880522191524505,-0.0703407749533653,0.7425589561462402,0.6307374238967896,-0.0623183138668537,0.6579349637031555,0.5553188323974609,-0.0764104723930358,0.6078376770019531,0.5312410593032837,-0.0810405164957046,0.5704858899116516,0.5121310353279114,-0.0835935845971107
2023-08-01 16:28:12.807040,9,474,0.9782721400260924,-0.0258073769509792,0.1915700137615203,-0.07495728880167,-0.310546875,0.85498046875,0.2138671875,0.7065580487251282,0.8497577905654907,-8.076836479631311e-07,0.6445833444595337,0.7162266373634338,0.0184939261525869,0.6228656768798828,0.6078036427497864,0.0124116232618689,0.5956153273582458,0.5300146341323853,-0.0036519349087029,0.5740488767623901,0.4660219550132751,-0.0199740082025527,0.773478090763092,0.5442917943000793,0.0182773303240537,0.6998228430747986,0.4500420093536377,-0.0104612857103347,0.6348077058792114,0.4359943866729736,-0.0355790592730045,0.5880340933799744,0.4433896839618683,-0.0507936254143714,0.7874372005462646,0.5636712312698364,-0.0093322694301605,0.7044369578361511,0.4369927644729614,-0.0345619805157184,0.630935549736023,0.4279786348342895,-0.0543115548789501,0.5788630247116089,0.4407836496829986,-0.0670773610472679,0.7798751592636108,0.5936682224273682,-0.0388560704886913,0.6816039085388184,0.4922095537185669,-0.0622575804591178,0.6085054278373718,0.4848340153694153,-0.0730716437101364,0.5586053729057312,0.4891701936721802,-0.0792384818196296,0.7484261393547058,0.627882182598114,-0.067452996969223,0.6639698147773743,0.5546166896820068,-0.0840469673275947,0.611641526222229,0.5322824716567993,-0.0907548442482948,0.5729436874389648,0.5146551132202148,-0.0947359502315521
2023-08-01 16:28:12.870212,10,475,0.9748714566230774,-0.0223918110132217,0.2065378725528717,-0.0804131254553794,-0.5087890625,0.9150390625,0.10498046875,0.7055785655975342,0.8457264304161072,-7.932495691420627e-07,0.6455488801002502,0.7106872200965881,0.0126624638214707,0.6244723796844482,0.6012993454933167,0.0040390314534306,0.5963608622550964,0.5238483548164368,-0.0126687521114945,0.5760608315467834,0.4599376618862152,-0.0295926500111818,0.7813996076583862,0.544320285320282,0.007925909012556,0.7081527709960938,0.4464243054389953,-0.0220600496977567,0.6424654126167297,0.4289954900741577,-0.0480254851281642,0.593562662601471,0.4332150220870971,-0.0638710260391235,0.7944629788398743,0.5662065744400024,-0.0162167325615882,0.7115395069122314,0.4375763535499573,-0.0424587912857532,0.6363006234169006,0.4255231618881225,-0.0636712238192558,0.5823755860328674,0.4340375661849975,-0.0779359936714172,0.7852970957756042,0.5972176790237427,-0.0419690459966659,0.685219943523407,0.494805634021759,-0.0666090995073318,0.6103419065475464,0.4843105673789978,-0.0791689604520797,0.5589847564697266,0.4855284392833709,-0.0866332277655601,0.7512479424476624,0.6309507489204407,-0.0668748617172241,0.6665197610855103,0.5558474063873291,-0.0839259177446365,0.6136170625686646,0.534027099609375,-0.0908808186650276,0.5748380422592163,0.5177662968635559,-0.0951597541570663
2023-08-01 16:28:12.929188,11,476,0.97003436088562,-0.0183327458798885,0.2253296673297882,-0.0890152901411056,-0.5,0.8564453125,0.20458984375,0.7021831274032593,0.8423032760620117,-7.616924904141342e-07,0.6517875790596008,0.7001614570617676,0.00534074800089,0.6364726424217224,0.5843375325202942,-0.0073210620321333,0.6118522882461548,0.5028897523880005,-0.0251284260302782,0.5984743237495422,0.4396318197250366,-0.0429292283952236,0.8012514114379883,0.5500797033309937,-0.0096450876444578,0.7263487577438354,0.4512076079845428,-0.0425705723464489,0.6603083610534668,0.4291963279247284,-0.0682859942317009,0.6121710538864136,0.4255578517913818,-0.084101915359497,0.8136416077613831,0.577415943145752,-0.0308742430061101,0.735630989074707,0.4386656880378723,-0.0650587007403373,0.6609520316123962,0.4246041476726532,-0.0878720059990882,0.6075520515441895,0.4296972751617431,-0.1010595485568046,0.8009147047996521,0.6102227568626404,-0.0527502670884132,0.6993445158004761,0.5035161972045898,-0.0840816423296928,0.6259626150131226,0.4847703874111175,-0.0974236577749252,0.5761587023735046,0.4759949743747711,-0.103367805480957,0.7624937891960144,0.6406285166740417,-0.0735626071691513,0.6765445470809937,0.5588199496269226,-0.0943761765956878,0.6257874369621277,0.5324010848999023,-0.1015430018305778,0.5896161794662476,0.5098080039024353,-0.1049592047929763
2023-08-01 16:28:12.995710,12,477,0.9670317769050598,-0.0139517299830913,0.2346605956554412,-0.0979238301515579,-0.39111328125,0.84033203125,0.17333984375,0.7002061605453491,0.8410553336143494,-7.903300911493716e-07,0.650009274482727,0.6905456781387329,0.0029284763149917,0.6389877200126648,0.5783211588859558,-0.0085516050457954,0.618755042552948,0.4977337121963501,-0.0251268576830625,0.6092921495437622,0.4328235387802124,-0.0420757867395877,0.8047670722007751,0.5472636222839355,-0.0100461645051836,0.7319520115852356,0.4493608772754669,-0.0410096757113933,0.6686564087867737,0.4270945489406585,-0.0638500899076461,0.6214070320129395,0.4232121706008911,-0.0772492736577987,0.8137196898460388,0.5794049501419067,-0.0286546517163515,0.7370057106018066,0.4508032202720642,-0.0598497353494167,0.6639267802238464,0.4315195977687835,-0.0814806520938873,0.6112287640571594,0.4316979646682739,-0.0948493108153343,0.7994033098220825,0.614715039730072,-0.0483408719301223,0.6992847919464111,0.5109660625457764,-0.0804609432816505,0.6248034238815308,0.4914851784706116,-0.0965394005179405,0.574237585067749,0.4836176335811615,-0.1040756925940513,0.7630420327186584,0.6481971740722656,-0.06690014898777,0.6805199384689331,0.5673344731330872,-0.088645152747631,0.6302671432495117,0.5400588512420654,-0.0975300073623657,0.5939183831214905,0.5179024338722229,-0.1017990335822105
2023-08-01 16:28:13.057104,13,478,0.965311586856842,-0.0125834578648209,0.2386850118637085,-0.1050937995314598,-0.39306640625,0.84814453125,0.15576171875,0.6986038088798523,0.8412988185882568,-7.607149541399849e-07,0.6567471623420715,0.6934890151023865,-0.0047239605337381,0.6534799933433533,0.5809678435325623,-0.0194325465708971,0.6381033062934875,0.4994880259037018,-0.0367216169834136,0.6283398270606995,0.4400404095649719,-0.0545631423592567,0.8219044804573059,0.5625951290130615,-0.0245955381542444,0.7440462112426758,0.4610864520072937,-0.059097085148096,0.6797707080841064,0.4337652921676636,-0.0824375301599502,0.632871150970459,0.4232662916183471,-0.0960112512111663,0.8327405452728271,0.5985121726989746,-0.0401073992252349,0.7535346150398254,0.4624910950660705,-0.0778674259781837,0.6784219145774841,0.4425541460514068,-0.0996252298355102,0.6242991089820862,0.4403685331344604,-0.1113359406590461,0.8165374994277954,0.6355143189430237,-0.05641895160079,0.7125751972198486,0.5276364088058472,-0.0945534855127334,0.6374319195747375,0.5042880773544312,-0.1097490862011909,0.5867921113967896,0.4899954795837402,-0.114911563694477,0.7765055894851685,0.6673933863639832,-0.0717681422829628,0.6916433572769165,0.5879731774330139,-0.0990763902664184,0.6438637971878052,0.5629534125328064,-0.1089065819978714,0.6117144823074341,0.5395209193229675,-0.1124284639954567
2023-08-01 16:28:13.113031,14,479,0.9646403789520264,-0.0128184556961059,0.2386425286531448,-0.1111500635743141,-0.50146484375,0.890625,0.0859375,0.7006427049636841,0.8401868343353271,-8.254577323896228e-07,0.6578031778335571,0.6893031597137451,-0.0080636981874704,0.6526476740837097,0.5800778269767761,-0.0253580212593078,0.6377356052398682,0.5018049478530884,-0.0453586392104625,0.6280417442321777,0.4422995448112488,-0.0663994401693344,0.8291856050491333,0.5655806064605713,-0.0293658822774887,0.7478905320167542,0.4631870985031128,-0.0672971978783607,0.6813049912452698,0.4338994324207306,-0.0930942073464393,0.630092978477478,0.4228802025318146,-0.1079782769083976,0.8386913537979126,0.6034678816795349,-0.0448083840310573,0.7573564648628235,0.4705089032649994,-0.0872547030448913,0.6774543523788452,0.4434703588485718,-0.1136467158794403,0.6186213493347168,0.4343430399894714,-0.1284213364124298,0.8217464089393616,0.6427488327026367,-0.0612878985702991,0.7123910784721375,0.5350896120071411,-0.1047934591770172,0.6320486664772034,0.5102983117103577,-0.1248970031738281,0.5786873698234558,0.495639443397522,-0.1324995011091232,0.7826016545295715,0.6774824857711792,-0.0768031850457191,0.6952242851257324,0.5930517911911011,-0.1074003130197525,0.64354008436203,0.5586516857147217,-0.1202757954597473,0.6089386343955994,0.5276463031768799,-0.1257389336824417
2023-08-01 16:28:13.177120,15,480,0.9640777111053468,-0.0128494733944535,0.2386881113052368,-0.115831933915615,-0.45849609375,0.83251953125,0.14208984375,0.7014065980911255,0.8416518568992615,-8.233576522798103e-07,0.6592892408370972,0.6909369826316833,-0.0096769072115421,0.6583189964294434,0.583815336227417,-0.0260584950447082,0.6523022651672363,0.5074135661125183,-0.0445533283054828,0.6468263864517212,0.4504766464233398,-0.0636797547340393,0.830561101436615,0.568691611289978,-0.0302175376564264,0.7514609694480896,0.4650628864765167,-0.0681878700852394,0.6835389733314514,0.4387354254722595,-0.0935205146670341,0.6316343545913696,0.4342833757400512,-0.1077847778797149,0.8407958745956421,0.6090342998504639,-0.0441938750445842,0.7606868743896484,0.4765288233757019,-0.0861397460103035,0.6810274720191956,0.4517252445220947,-0.1113633662462234,0.623313844203949,0.4468390643596649,-0.1251430213451385,0.8249440789222717,0.6496031284332275,-0.0594572052359581,0.7149971127510071,0.5421061515808105,-0.1030962467193603,0.6340140700340271,0.5178765654563904,-0.1225556880235672,0.580876886844635,0.505510687828064,-0.1294889003038406,0.7870065569877625,0.6854949593544006,-0.0738917514681816,0.7001849412918091,0.6022753119468689,-0.1050678193569183,0.6508178114891052,0.5716666579246521,-0.1178135722875595,0.6190841794013977,0.5447491407394409,-0.1228530704975128
2023-08-01 16:28:13.240444,16,481,0.9640842080116272,-0.012397214770317,0.2376314401626587,-0.1179799363017082,-0.53369140625,0.828125,0.111328125,0.7034456133842468,0.8456569910049438,-8.098898547359568e-07,0.6590225696563721,0.6952918767929077,-0.0139133632183074,0.6534703373908997,0.5867090225219727,-0.0333224609494209,0.6383739113807678,0.509697675704956,-0.0541682839393615,0.6257038116455078,0.4535785913467407,-0.0758929550647735,0.8326651453971863,0.5677396059036255,-0.0352163761854171,0.7505219578742981,0.4682164490222931,-0.0728667601943016,0.6821983456611633,0.4436014890670776,-0.0978149399161338,0.6304977536201477,0.4392540752887726,-0.1123940870165824,0.8438621163368225,0.6095019578933716,-0.0484430901706218,0.7614914178848267,0.4816176891326904,-0.0915983840823173,0.680569052696228,0.457100361585617,-0.1187768578529357,0.6225444674491882,0.4509985148906708,-0.1341041475534439,0.8283053040504456,0.6531854271888733,-0.0629302635788917,0.7173118591308594,0.5497024059295654,-0.1082644611597061,0.6348267793655396,0.5245349407196045,-0.1295928508043289,0.5812169909477234,0.5123021602630615,-0.1376820057630539,0.7904641628265381,0.6934621930122375,-0.0767795145511627,0.7021180987358093,0.6102821230888367,-0.1094613149762153,0.6520442962646484,0.5783936381340027,-0.1233761087059974,0.6199966669082642,0.5516676902770996,-0.1292199790477752
2023-08-01 16:28:13.301839,17,482,0.9656235575675964,-0.0126870553940534,0.231357529759407,-0.117830105125904,-0.40966796875,0.84423828125,0.12548828125,0.7025928497314453,0.8419280052185059,-8.358635454897012e-07,0.6610950231552124,0.695614218711853,-0.0157701559364795,0.6564192771911621,0.5886716246604919,-0.0351525247097015,0.6431396007537842,0.511985719203949,-0.0557796917855739,0.6325156688690186,0.4526748657226562,-0.0769417434930801,0.8323221206665039,0.5655175447463989,-0.0351599752902984,0.7515076398849487,0.4688634872436523,-0.075389914214611,0.6828638911247253,0.4449594616889953,-0.1024433150887489,0.629709780216217,0.4406670928001404,-0.1180630400776863,0.8446053266525269,0.6094841957092285,-0.0477190092206001,0.760396420955658,0.4865768551826477,-0.0937598273158073,0.6777341365814209,0.4646421074867248,-0.1217835918068885,0.6186808347702026,0.4589074850082397,-0.1370036900043487,0.8301572203636169,0.6556318402290344,-0.0621849820017814,0.7198298573493958,0.5545800924301147,-0.1100145131349563,0.636715292930603,0.5300207138061523,-0.1311661154031753,0.5820596814155579,0.5159689784049988,-0.1384164690971374,0.7935445308685303,0.6981604695320129,-0.0762088149785995,0.7044067978858948,0.6172278523445129,-0.1110722944140434,0.6536827683448792,0.5857346057891846,-0.1255321949720382,0.6209524273872375,0.5580771565437317,-0.1311503499746322
2023-08-01 16:28:13.360059,18,483,0.9665657877922058,-0.0127421449869871,0.2270296365022659,-0.1185145527124404,-0.47412109375,0.86767578125,0.107421875,0.6978558301925659,0.8387279510498047,-8.372403499379288e-07,0.6597081422805786,0.6949187517166138,-0.0216144453734159,0.6560239791870117,0.5883057713508606,-0.0443706437945365,0.643568754196167,0.5123997330665588,-0.0672899335622787,0.6331229209899902,0.4569606482982635,-0.0909805819392204,0.8342747688293457,0.5611320734024048,-0.0418659187853336,0.7504431009292603,0.4714277982711792,-0.08742306381464,0.6813773512840271,0.4445978105068207,-0.118841677904129,0.62502121925354,0.4359849691390991,-0.1364592611789703,0.8499626517295837,0.608399510383606,-0.0528632886707782,0.7608227729797363,0.4934295415878296,-0.1033903658390045,0.6761773228645325,0.4752207994461059,-0.1327180415391922,0.6152414679527283,0.4736662209033966,-0.1475320607423782,0.8378394842147827,0.6590585708618164,-0.0666036307811737,0.7246630787849426,0.5626506209373474,-0.1186896041035652,0.6397806406021118,0.5408028364181519,-0.1400400102138519,0.5839312076568604,0.5309876203536987,-0.1459503769874572,0.8024396896362305,0.7072951197624207,-0.0804608836770057,0.7124567031860352,0.6319894790649414,-0.1188686788082122,0.660372257232666,0.6033152937889099,-0.1336572468280792,0.6259757280349731,0.5796664953231812,-0.1383295804262161
2023-08-01 16:28:13.430332,19,484,0.9678225517272948,-0.0138941574841737,0.2210743576288223,-0.1193844825029373,-0.4150390625,0.859375,0.12060546875,0.6976958513259888,0.8377752304077148,-8.313155603900668e-07,0.659364640712738,0.6938833594322205,-0.0237700138241052,0.6527280211448669,0.588147759437561,-0.0488157160580158,0.6364359855651855,0.5114977955818176,-0.0739562958478927,0.6225981116294861,0.457653135061264,-0.099609151482582,0.8354217410087585,0.5623411536216736,-0.0430130437016487,0.7538584470748901,0.4734780192375183,-0.0890154987573623,0.6859274506568909,0.4505637288093567,-0.1208454146981239,0.6303555965423584,0.4455848932266235,-0.1388964056968689,0.849209189414978,0.609466016292572,-0.0532893724739551,0.7598989009857178,0.4977540373802185,-0.1047838553786277,0.6754728555679321,0.4827655255794525,-0.1337529718875885,0.615702748298645,0.4842101335525512,-0.1480500400066375,0.8356828689575195,0.6609910726547241,-0.0666100457310676,0.7254986763000488,0.5660138726234436,-0.1191812604665756,0.6411725878715515,0.5419572591781616,-0.1395551115274429,0.5859746932983398,0.5323899984359741,-0.1445112079381942,0.7993409037590027,0.7101500034332275,-0.080297090113163,0.7113457322120667,0.632235586643219,-0.118638128042221,0.6591154932975769,0.6003353595733643,-0.132590964436531,0.6248223781585693,0.5765990614891052,-0.1364149004220962
2023-08-01 16:28:13.505053,20,485,0.9688177108764648,-0.0151898246258497,0.2167689353227615,-0.1190493181347847,-0.427734375,0.84814453125,0.123046875,0.6941289305686951,0.8333191871643066,-8.375346283173712e-07,0.6597038507461548,0.6950291395187378,-0.0241217333823442,0.6527020335197449,0.5907178521156311,-0.0507248491048812,0.635789155960083,0.5136547684669495,-0.077324628829956,0.6181859970092773,0.4589816629886627,-0.1047211810946464,0.8306636810302734,0.5532526969909668,-0.0465183705091476,0.7493158578872681,0.4706578552722931,-0.0956142768263816,0.6823960542678833,0.4465163052082062,-0.1296452432870865,0.6260894536972046,0.4386525750160217,-0.148770123720169,0.848223865032196,0.6037592887878418,-0.0580654330551624,0.7575601935386658,0.4986958503723144,-0.1123795360326767,0.6715670824050903,0.4865399599075317,-0.1423117518424987,0.6097039580345154,0.4907290041446686,-0.156471237540245,0.8375179767608643,0.6607941389083862,-0.0726842656731605,0.726090133190155,0.5703942179679871,-0.1270983815193176,0.6411950588226318,0.547279953956604,-0.1472377181053161,0.5844221115112305,0.5391449928283691,-0.1515090018510818,0.8028075098991394,0.7153083682060242,-0.0877679958939552,0.7158263325691223,0.6402682065963745,-0.1278503686189651,0.6640170216560364,0.6096999645233154,-0.1417724937200546,0.6288859248161316,0.5873881578445435,-0.1451707482337951
2023-08-01 16:28:13.562117,21,486,0.9689897298812866,-0.0154777262359857,0.2161439657211303,-0.1187480986118316,-0.50048828125,0.84912109375,0.16064453125,0.6981145143508911,0.8389846086502075,-8.398359909733699e-07,0.6560137867927551,0.699779748916626,-0.0299261510372161,0.6432198286056519,0.5949798226356506,-0.0581656768918037,0.6243355870246887,0.5159538388252258,-0.085463710129261,0.6098182201385498,0.4644349813461303,-0.1125956028699874,0.826187789440155,0.5510044693946838,-0.0508264452219009,0.7448379397392273,0.4741949439048767,-0.0999155938625335,0.6779999732971191,0.4555294513702392,-0.1320009678602218,0.623863160610199,0.4548760056495666,-0.1495597511529922,0.8444300889968872,0.6030231714248657,-0.059131234884262,0.7509171366691589,0.5036414861679077,-0.1146088168025016,0.6635961532592773,0.4962745606899261,-0.1428672522306442,0.6036075353622437,0.5060251951217651,-0.1553285270929336,0.8343392014503479,0.6611462831497192,-0.0711051672697067,0.7197917103767395,0.5806336402893066,-0.1257311105728149,0.6353325843811035,0.5585715770721436,-0.1451026052236557,0.579123854637146,0.5537375211715698,-0.1485257446765899,0.7997956275939941,0.7163457274436951,-0.0842607170343399,0.7121863961219788,0.6474353075027466,-0.1234823912382125,0.661649227142334,0.6175544261932373,-0.1376567631959915,0.6270275115966797,0.5973415970802307,-0.1412757337093353
2023-08-01 16:28:13.622962,22,487,0.9695391058921814,-0.0158264432102441,0.2136921733617782,-0.1186555027961731,-0.48828125,0.84130859375,0.14892578125,0.6959325671195984,0.8389377593994141,-7.884405022196006e-07,0.6553086042404175,0.6981588006019592,-0.0297948531806468,0.6437448263168335,0.5926862359046936,-0.0588341280817985,0.6244630217552185,0.5138756036758423,-0.087124079465866,0.6106315851211548,0.470055490732193,-0.1157431975007057,0.8244679570198059,0.5493928790092468,-0.0503922887146472,0.7423661947250366,0.4738956093788147,-0.1012016385793685,0.6746941208839417,0.4546421766281128,-0.1356760561466217,0.6200029850006104,0.4520106315612793,-0.1549965739250183,0.8430745005607605,0.6025756001472473,-0.0595540329813957,0.7508261203765869,0.5048811435699463,-0.1164802610874176,0.6654894351959229,0.4964942038059234,-0.14654241502285,0.6060612797737122,0.5031266212463379,-0.1604207307100296,0.8324831128120422,0.6618874669075012,-0.072404108941555,0.7182750105857849,0.5791317820549011,-0.1290309876203537,0.6341671347618103,0.5604621767997742,-0.1486653089523315,0.5788534879684448,0.5563423037528992,-0.1519294083118438,0.797163724899292,0.718030571937561,-0.0862371996045112,0.7072826623916626,0.6475775837898254,-0.125965878367424,0.6562609076499939,0.6203231811523438,-0.1391199082136154,0.6223084330558777,0.6010363101959229,-0.1419741511344909
2023-08-01 16:28:13.690061,23,488,0.9703422784805298,-0.0160630065947771,0.210324227809906,-0.1180744543671608,-0.45556640625,0.84716796875,0.15234375,0.6955994963645935,0.8401708602905273,-7.90437752584694e-07,0.6558053493499756,0.6976302266120911,-0.0302749779075384,0.6437870264053345,0.5916913151741028,-0.0592937320470809,0.6236628293991089,0.5117051005363464,-0.0874308347702026,0.6105520129203796,0.4685863852500915,-0.1156822070479393,0.8245068192481995,0.548750638961792,-0.0507848300039768,0.7397974133491516,0.4755532145500183,-0.1003748551011085,0.6724910736083984,0.4566377401351928,-0.1336939334869384,0.6183900833129883,0.4537858664989471,-0.1526553332805633,0.8431798219680786,0.6014767289161682,-0.0598688460886478,0.7483953237533569,0.5059346556663513,-0.1158690303564071,0.664225161075592,0.4980610609054565,-0.1463316828012466,0.6058951616287231,0.5039151310920715,-0.1610800623893737,0.8325229287147522,0.6610283255577087,-0.0724995285272598,0.7159602642059326,0.5798393487930298,-0.1292672604322433,0.6320327520370483,0.5623118281364441,-0.1499594897031784,0.5769439935684204,0.5582151412963867,-0.1542491018772125,0.7968764305114746,0.717817485332489,-0.0860448703169822,0.7074770927429199,0.6485723853111267,-0.1264828741550445,0.6571027636528015,0.6210141181945801,-0.1405006796121597,0.6231850385665894,0.600318968296051,-0.1442226320505142
2023-08-01 16:28:13.755802,24,489,0.9709205627441406,-0.0157614778727293,0.2081341445446014,-0.1172397881746292,-0.48095703125,0.85107421875,0.138671875,0.6956378817558289,0.8400993347167969,-7.999224749255518e-07,0.6563016176223755,0.6968822479248047,-0.0291198994964361,0.6445674896240234,0.5916581749916077,-0.0578706003725528,0.6236019730567932,0.51194167137146,-0.0861139148473739,0.6083216667175293,0.4692422151565552,-0.1145719289779663,0.8249082565307617,0.5500742197036743,-0.0495961531996727,0.7411139011383057,0.4764499962329864,-0.0991081893444061,0.6731905937194824,0.4578458070755005,-0.1325006633996963,0.6199101805686951,0.4547803997993469,-0.1517110913991928,0.8428921699523926,0.6027714014053345,-0.0592986866831779,0.7492131590843201,0.5070608258247375,-0.1157004684209823,0.6640744209289551,0.4986770153045654,-0.1461167484521865,0.6053751111030579,0.5040106773376465,-0.16077221930027,0.8317140340805054,0.6621553897857666,-0.0725134909152984,0.7167595028877258,0.5807129740715027,-0.1291708797216415,0.6333502531051636,0.5622432231903076,-0.1497204899787902,0.5787559747695923,0.5575624704360962,-0.1539768725633621,0.7959938645362854,0.718700110912323,-0.0865945667028427,0.707097589969635,0.6489018797874451,-0.1266069412231445,0.656613826751709,0.6210765242576599,-0.1405902504920959,0.622967541217804,0.6006436347961426,-0.1444158852100372
2023-08-01 16:28:13.824621,25,490,0.9714019894599916,-0.0158566385507583,0.2067058980464935,-0.1157557368278503,-0.470703125,0.85400390625,0.146484375,0.6954130530357361,0.8399362564086914,-8.132810762617737e-07,0.6578071117401123,0.7016857862472534,-0.0291422586888074,0.6456382870674133,0.5970938801765442,-0.0580775067210197,0.6236577033996582,0.516774594783783,-0.0864049270749092,0.6007936000823975,0.4689826965332031,-0.114807091653347,0.8212645053863525,0.5471528172492981,-0.0522714406251907,0.7405685186386108,0.476051390171051,-0.1033093407750129,0.6725032329559326,0.4597671926021576,-0.1365755051374435,0.617815375328064,0.4597424268722534,-0.1550659835338592,0.8406616449356079,0.6005125045776367,-0.0624230131506919,0.7470042705535889,0.5085318684577942,-0.1196640878915786,0.6625833511352539,0.5027675628662109,-0.1492186039686203,0.6039064526557922,0.5101767778396606,-0.1628785729408264,0.831423282623291,0.661996603012085,-0.0761125609278678,0.7168178558349609,0.584031343460083,-0.132870078086853,0.632987916469574,0.5661634206771851,-0.1523738354444503,0.5768245458602905,0.5618761777877808,-0.155780404806137,0.7978590130805969,0.7211565375328064,-0.0907997339963913,0.7080180048942566,0.6520335078239441,-0.1316704005002975,0.6564350724220276,0.624445378780365,-0.1454202383756637,0.621073305606842,0.6048650145530701,-0.1486391276121139
2023-08-01 16:28:13.888941,26,491,0.9720048308372498,-0.0158055555075407,0.2049596607685089,-0.1137909367680549,-0.45849609375,0.84912109375,0.1337890625,0.6956584453582764,0.8402978181838989,-7.889171342867485e-07,0.6575154066085815,0.7004481554031372,-0.0295350458472967,0.6463895440101624,0.5937877893447876,-0.0589894540607929,0.6253063082695007,0.5134891271591187,-0.0879671722650528,0.6044048070907593,0.4696811735630035,-0.1170501261949539,0.8213468790054321,0.5460577011108398,-0.0515189655125141,0.7398013472557068,0.4764554500579834,-0.1037800535559654,0.6717671155929565,0.4586054980754852,-0.1388421654701233,0.6169593334197998,0.4568536281585693,-0.1585456579923629,0.8413280248641968,0.6000939607620239,-0.0620868951082229,0.7473623156547546,0.5103915929794312,-0.1200819015502929,0.6635890603065491,0.5053114891052246,-0.1505520045757293,0.6061130166053772,0.5129453539848328,-0.1647726744413375,0.8324534893035889,0.6622151136398315,-0.0764660909771919,0.7173569798469543,0.5841764211654663,-0.1338951587677002,0.63285893201828,0.5671524405479431,-0.1536550372838974,0.5770830512046814,0.5635309815406799,-0.1571043133735656,0.7988706827163696,0.7217520475387573,-0.0919376760721206,0.710023820400238,0.6524964570999146,-0.1328331679105758,0.6589993238449097,0.6251329183578491,-0.1464695483446121,0.6244757175445557,0.605711042881012,-0.149715855717659
2023-08-01 16:28:13.951849,27,492,0.9723723530769348,-0.0154305333271622,0.2042707204818725,-0.111925221979618,-0.39501953125,0.85302734375,0.09814453125,0.6957092881202698,0.8388686180114746,-7.925906402306282e-07,0.6571856737136841,0.6978434324264526,-0.028298083692789,0.6458036303520203,0.5919951796531677,-0.0571302808821201,0.6255144476890564,0.5123310685157776,-0.0854394063353538,0.6053776741027832,0.4693745374679565,-0.1137003749608993,0.8230595588684082,0.5464383363723755,-0.0504526123404502,0.7406704425811768,0.4768466353416443,-0.1004998609423637,0.6728276014328003,0.459476113319397,-0.1334001421928405,0.6178757548332214,0.4577148556709289,-0.1517063677310943,0.8427413105964661,0.6001076698303223,-0.0608718544244766,0.7495179176330566,0.5083131790161133,-0.1169184669852256,0.6658421754837036,0.5033004283905029,-0.1458403617143631,0.6075505614280701,0.5117088556289673,-0.1589942276477813,0.8336713314056396,0.6610305309295654,-0.0746856108307838,0.717333197593689,0.5833106637001038,-0.130537748336792,0.6335673332214355,0.5677459836006165,-0.1490181982517242,0.5783798098564148,0.5654142498970032,-0.1516411006450653,0.7994771003723145,0.7194074392318726,-0.0894676223397255,0.7090414762496948,0.6508955359458923,-0.1287458389997482,0.6570113897323608,0.6253572702407837,-0.1408908516168594,0.6220324039459229,0.6076363325119019,-0.1430570781230926
2023-08-01 16:28:14.006253,28,493,0.972439467906952,-0.0154120614752173,0.2062213569879531,-0.1076880395412445,-0.43017578125,0.82666015625,0.22900390625,0.6921676993370056,0.8335776329040527,-8.036065537453396e-07,0.6570734977722168,0.6940897107124329,-0.0244066286832094,0.6470206379890442,0.5902560353279114,-0.0501955524086952,0.6279656887054443,0.5117736458778381,-0.0761354863643646,0.6101329326629639,0.462352991104126,-0.1020185947418212,0.8222129344940186,0.5453873872756958,-0.0427786596119403,0.7439397573471069,0.4715722203254699,-0.0886430814862251,0.6778028607368469,0.4561647772789001,-0.1199009343981742,0.6256157755851746,0.4574181139469147,-0.1377527117729187,0.842198371887207,0.5965312719345093,-0.0534767992794513,0.7513281106948853,0.5009767413139343,-0.1033662185072898,0.6711264848709106,0.4919807612895965,-0.1313792616128921,0.6150230765342712,0.4981892704963684,-0.1454561352729797,0.8341735601425171,0.6560066938400269,-0.0673764124512672,0.7222890257835388,0.5749123096466064,-0.1191471740603447,0.6403136253356934,0.5571646094322205,-0.1376788169145584,0.5858655571937561,0.5535241365432739,-0.1414872854948043,0.8017234802246094,0.7144502997398376,-0.0819719955325126,0.715549111366272,0.6442486643791199,-0.1205916032195091,0.664767861366272,0.6183570027351379,-0.1333540827035904,0.6299086809158325,0.6006486415863037,-0.1361830979585647
2023-08-01 16:28:14.077747,29,494,0.9725105166435242,-0.0163292251527309,0.2098205983638763,-0.0996592938899993,-0.82275390625,0.97119140625,0.0556640625,0.6924047470092773,0.8345930576324463,-8.29582745609514e-07,0.6590778231620789,0.6986700296401978,-0.0217627063393592,0.6526101231575012,0.5947213768959045,-0.044688880443573,0.6348461508750916,0.5156182050704956,-0.0682770311832428,0.6153746247291565,0.4583410024642944,-0.0920714810490608,0.8264074921607971,0.5510308742523193,-0.0362043119966983,0.7456350922584534,0.4754629731178283,-0.0797695145010948,0.6805627346038818,0.4568096399307251,-0.1103078946471214,0.6293838024139404,0.4537248611450195,-0.1276417374610901,0.8436552882194519,0.599295973777771,-0.0469893440604209,0.7519848942756653,0.5012409687042236,-0.0937246605753898,0.6716678142547607,0.4879333972930908,-0.1214623972773552,0.6151779294013977,0.4899815917015075,-0.1358618438243866,0.8336523771286011,0.6552260518074036,-0.0610262192785739,0.721492350101471,0.5707139372825623,-0.1111940443515777,0.6378719806671143,0.5516815185546875,-0.1309201568365097,0.5828838348388672,0.546954870223999,-0.1356427073478698,0.8006357550621033,0.7098433971405029,-0.0755001306533813,0.7162458300590515,0.637782633304596,-0.1133895814418792,0.6661964654922485,0.6127981543540955,-0.1268825680017471,0.6321081519126892,0.5962974429130554,-0.130262479186058
2023-08-01 16:28:14.138049,30,495,0.973492443561554,-0.0176866240799427,0.2079521715641021,-0.0935711413621902,-0.25634765625,0.84912109375,0.1748046875,0.6919460296630859,0.8342892527580261,-8.336608630088449e-07,0.659217119216919,0.6995830535888672,-0.0214636344462633,0.6521944999694824,0.5941072702407837,-0.043826900422573,0.6347588300704956,0.5141051411628723,-0.0666899010539054,0.6169243454933167,0.4561198949813843,-0.0894244909286499,0.8260148167610168,0.5487748384475708,-0.0346470735967159,0.7455760836601257,0.4758335947990417,-0.077031709253788,0.6821660399436951,0.4571376442909241,-0.1069420203566551,0.6318132877349854,0.4530797600746155,-0.123974859714508,0.8433874249458313,0.5979438424110413,-0.0450520999729633,0.750539243221283,0.5029615759849548,-0.0900321081280708,0.6723096370697021,0.4900500178337097,-0.1170349046587944,0.6172091364860535,0.491526186466217,-0.1312451362609863,0.8338362574577332,0.65482097864151,-0.0587163567543029,0.7219974398612976,0.5715835690498352,-0.1074762195348739,0.6396254301071167,0.5523622632026672,-0.1265667229890823,0.5851861238479614,0.5467138886451721,-0.1311312168836593,0.8013439178466797,0.7104008793830872,-0.0728549212217331,0.7169826030731201,0.6384857892990112,-0.1103751882910728,0.6669237613677979,0.6130331754684448,-0.1237540394067764,0.6325173377990723,0.5958799123764038,-0.1269388198852539
2023-08-01 16:28:14.239481,31,496,0.9727746844291688,-0.0190254542976617,0.2146610021591186,-0.0852530226111412,-0.43359375,0.8671875,0.17919921875,0.6957060098648071,0.8347460031509399,-8.243561069321004e-07,0.6542986631393433,0.6910179853439331,-0.012457987293601,0.6487078070640564,0.5826688408851624,-0.0299700386822223,0.6342130899429321,0.5047142505645752,-0.0497230514883995,0.6210008859634399,0.4450363516807556,-0.0696792304515838,0.8229324221611023,0.5576927065849304,-0.0264369454234838,0.750160813331604,0.4687573313713074,-0.0635654255747795,0.6857739686965942,0.4456598162651062,-0.0892596542835235,0.6343836784362793,0.4395346343517303,-0.1044108122587204,0.8353868722915649,0.5965093970298767,-0.040431410074234,0.7567145228385925,0.4812394678592682,-0.0815870836377143,0.6795476675033569,0.4557125568389892,-0.1081849262118339,0.623908519744873,0.4463507533073425,-0.1231593340635299,0.8230634331703186,0.6391972899436951,-0.0566658861935138,0.7186885476112366,0.542341947555542,-0.1017670705914497,0.6394622921943665,0.5202327370643616,-0.1227219477295875,0.587788999080658,0.5100018382072449,-0.1302463114261627,0.7883292436599731,0.6801982522010803,-0.0725105479359626,0.7048273682594299,0.5997839570045471,-0.1068461313843727,0.6528612971305847,0.5687066912651062,-0.1209148988127708,0.6171440482139587,0.5442213416099548,-0.1261216551065445
2023-08-01 16:28:14.300462,32,497,0.9748034477233888,-0.0219236072152853,0.2095237672328949,-0.0733304023742675,-0.41748046875,0.88623046875,0.26806640625,0.6937178373336792,0.8317304849624634,-7.818592280273151e-07,0.6474009156227112,0.6847498416900635,0.0003023346362169,0.6417415738105774,0.5773993730545044,-0.0114213852211833,0.6260608434677124,0.5010607242584229,-0.0278119854629039,0.6139264702796936,0.4426475763320923,-0.0451190173625946,0.810523509979248,0.5554245710372925,-0.009567848406732,0.7382699847221375,0.4588978290557861,-0.0388193652033805,0.6756817698478699,0.4321921467781067,-0.0602153241634368,0.6273446679115295,0.4250076413154602,-0.0731522738933563,0.8216003179550171,0.5861809849739075,-0.027378911152482,0.7441569566726685,0.4652303755283355,-0.0601348653435707,0.6689404845237732,0.435642659664154,-0.0833922326564788,0.6144949197769165,0.4269869923591614,-0.0975539535284042,0.8075539469718933,0.6200510263442993,-0.0464964658021926,0.706889271736145,0.5201857089996338,-0.0828584656119346,0.6298291683197021,0.5001776814460754,-0.1012350469827652,0.5806673765182495,0.4938260316848755,-0.1090009286999702,0.7711862325668335,0.6503727436065674,-0.0644328296184539,0.6877597570419312,0.5724778771400452,-0.090984970331192,0.6377519965171814,0.5477308034896851,-0.1021932736039161,0.6048062443733215,0.5300893783569336,-0.1069561466574668
2023-08-01 16:28:14.363753,33,498,0.9765562415122986,-0.0239134766161441,0.2030292600393295,-0.0674176886677742,-0.416015625,0.84912109375,0.2412109375,0.6923345923423767,0.8332188129425049,-7.614673336320266e-07,0.6421770453453064,0.6853705048561096,0.0064196474850177,0.6394532322883606,0.578313410282135,-0.002618970349431,0.6299134492874146,0.5026649832725525,-0.0175789147615432,0.6221339702606201,0.442411333322525,-0.0335901193320751,0.8035134077072144,0.5519804358482361,-0.0023428627755492,0.7346786856651306,0.4529271721839905,-0.0319138243794441,0.6720786690711975,0.4251539707183838,-0.0545832589268684,0.6235702633857727,0.4192457795143127,-0.0678507834672927,0.8133635520935059,0.5816882848739624,-0.0228193290531635,0.7407715916633606,0.4571678638458252,-0.0529380738735199,0.6676923632621765,0.4266727566719055,-0.0747253596782684,0.6131520867347717,0.4196161925792694,-0.0881696343421936,0.7989829778671265,0.6146288514137268,-0.0447379201650619,0.7033267617225647,0.512039840221405,-0.0785373151302337,0.6281904578208923,0.4902596771717071,-0.0963610187172889,0.5782756805419922,0.4822422862052917,-0.1044885441660881,0.7614708542823792,0.6436128616333008,-0.0651071369647979,0.6786909103393555,0.5641594529151917,-0.0898386538028717,0.6291849613189697,0.5396168828010559,-0.1006891205906868,0.5957636833190918,0.5218230485916138,-0.1057011112570762
2023-08-01 16:28:14.429027,34,499,0.9802973866462708,-0.0264838375151157,0.1860793083906173,-0.0607459135353565,-0.3134765625,0.88427734375,0.21923828125,0.6903228163719177,0.8346977829933167,-7.57641032578249e-07,0.6396217346191406,0.6847281455993652,0.0091944616287946,0.6350322961807251,0.576730489730835,0.0003183718654327,0.6252787113189697,0.4990260601043701,-0.0155181642621755,0.6199855804443359,0.4382552802562713,-0.0319961309432983,0.7963217496871948,0.5499368906021118,0.0032605570740997,0.7277990579605103,0.4505927562713623,-0.0277601853013038,0.6649097800254822,0.4233158528804779,-0.0526286214590072,0.6150549650192261,0.4145202934741974,-0.0670638754963874,0.8071261644363403,0.5770272612571716,-0.0190479792654514,0.7351855635643005,0.4509897828102112,-0.0503070242702961,0.6623020172119141,0.4209155738353729,-0.0740677937865257,0.6071125864982605,0.4118441641330719,-0.0885239690542221,0.7940078973770142,0.6080789566040039,-0.0428265444934368,0.6965099573135376,0.5055387020111084,-0.0758475959300994,0.6202644109725952,0.4841635525226593,-0.0932059586048126,0.5689702033996582,0.4730415940284729,-0.1009905636310577,0.7580030560493469,0.6355153918266296,-0.0651207342743873,0.6753648519515991,0.5563812255859375,-0.0878549441695213,0.6251341104507446,0.5307725071907043,-0.0973590165376663,0.590290367603302,0.5098595023155212,-0.1015694513916969
2023-08-01 16:28:14.489330,35,500,0.98190176486969,-0.0279799606651067,0.178445890545845,-0.056948248296976,-0.55029296875,0.9091796875,0.19921875,0.6896823048591614,0.8373339772224426,-7.450582302226394e-07,0.6396695971488953,0.6883549690246582,0.0096157938241958,0.633567214012146,0.5787956714630127,0.000639624078758,0.6202182769775391,0.4998989105224609,-0.0153784900903701,0.6139655113220215,0.4384778141975403,-0.0320493504405021,0.7946358919143677,0.5495070219039917,0.0022738932166248,0.7288025617599487,0.4485217332839966,-0.0271921698004007,0.6671815514564514,0.4196993410587311,-0.0503952279686927,0.6191314458847046,0.4106623232364654,-0.0639920979738235,0.8057225942611694,0.5775988101959229,-0.0200732145458459,0.7332388162612915,0.4489504694938659,-0.0500460714101791,0.660617470741272,0.4186717569828033,-0.0720298886299133,0.6057623624801636,0.4119845032691955,-0.0852588564157486,0.7930728197097778,0.6100043654441833,-0.043694045394659,0.6959601044654846,0.5036401748657227,-0.0752661749720573,0.6205176711082458,0.4846565127372741,-0.0903728306293487,0.5695224404335022,0.4785195589065552,-0.096726194024086,0.7575111985206604,0.6390302777290344,-0.0659089535474777,0.6763461232185364,0.557350754737854,-0.0883048549294471,0.6264091730117798,0.5329322814941406,-0.0965880528092384,0.5914992094039917,0.5152978301048279,-0.0997362732887268
2023-08-01 16:28:14.559669,36,501,0.9881879687309264,-0.0318401865661144,0.1424257904291153,-0.0467501357197761,-0.34716796875,0.90185546875,0.1962890625,0.6910532116889954,0.8409486413002014,-7.831235961930361e-07,0.6359753012657166,0.6880688667297363,0.0157003849744796,0.6285226345062256,0.5798905491828918,0.010087545029819,0.6145994067192078,0.5019632577896118,-0.0045786881819367,0.6075345277786255,0.4399656057357788,-0.020041286945343,0.7880957126617432,0.5449904799461365,0.0163314715027809,0.7221596837043762,0.4488116502761841,-0.0111365150660276,0.6608327627182007,0.4232590496540069,-0.0354908034205436,0.6121174097061157,0.4164892137050628,-0.0499697439372539,0.7989373803138733,0.5704165101051331,-0.0088025592267513,0.7251250147819519,0.4492137134075165,-0.0354805998504161,0.6530101895332336,0.4206368029117584,-0.0585070103406906,0.5981338024139404,0.4144291281700134,-0.0732710137963295,0.7873939871788025,0.601555585861206,-0.0355912037193775,0.6919336318969727,0.5009574890136719,-0.0639736726880073,0.6165406107902527,0.480867862701416,-0.0803747475147247,0.5646346807479858,0.4734772145748138,-0.0885805785655975,0.7535784244537354,0.6307201385498047,-0.0608549416065216,0.6721514463424683,0.5520801544189453,-0.0804609581828117,0.6216056942939758,0.5267041325569153,-0.0888748317956924,0.5850844383239746,0.5081206560134888,-0.0927784964442253
2023-08-01 16:28:14.628795,37,502,0.992306113243103,-0.0335013046860694,0.1123765185475349,-0.0397207476198673,-0.2724609375,0.90576171875,0.1220703125,0.6999312043190002,0.8421995043754578,-7.98335008767026e-07,0.6335047483444214,0.6952281594276428,0.0175894442945718,0.6188033819198608,0.5861928462982178,0.0138700231909751,0.5986473560333252,0.5076158046722412,0.0005331303109414,0.580572783946991,0.4475607275962829,-0.0138347232714295,0.7721055150032043,0.5338051915168762,0.0235797893255949,0.7005319595336914,0.4421852231025696,-0.0020579118281602,0.6367626190185547,0.4221409857273102,-0.0280464794486761,0.5857861638069153,0.418711394071579,-0.0438018664717674,0.784646213054657,0.5540920495986938,-0.0007434323779307,0.6993958353996277,0.4396741986274719,-0.0229771323502063,0.627816379070282,0.4188560247421264,-0.046471931040287,0.5744856595993042,0.4155892431735992,-0.0627579763531684,0.7756236791610718,0.5846537947654724,-0.0269405804574489,0.6776159405708313,0.4889740347862243,-0.0496729053556919,0.6056693196296692,0.4745084345340729,-0.0662990808486938,0.5546656847000122,0.4705703556537628,-0.0761203914880752,0.7448068261146545,0.6164299249649048,-0.0519562475383281,0.6657570004463196,0.5420131087303162,-0.0666757449507713,0.6173645257949829,0.5177000761032104,-0.0746828988194465,0.5805686712265015,0.4992339313030243,-0.0795393213629722
2023-08-01 16:28:14.686974,38,503,0.993886411190033,-0.0347203649580478,0.0984151363372802,-0.0360377244651317,-0.193359375,0.88232421875,0.30029296875,0.7012702226638794,0.8361480236053467,-7.54388281620777e-07,0.6388958692550659,0.7064944505691528,0.0200984366238117,0.6192713975906372,0.5980365872383118,0.0161673594266176,0.5922642946243286,0.5197678208351135,0.0020036881323903,0.5642982721328735,0.4596820473670959,-0.0128762712702155,0.7636497616767883,0.5330356955528259,0.0250299330800771,0.6963152289390564,0.4430218338966369,-0.0004929878050461,0.6336885094642639,0.4240309000015259,-0.0252873487770557,0.5852190852165222,0.4248361587524414,-0.0406731776893138,0.7780580520629883,0.550273060798645,-0.0022508439142256,0.6993900537490845,0.43062624335289,-0.0246711671352386,0.6287401914596558,0.4143898785114288,-0.0444995984435081,0.5755183100700378,0.4181055426597595,-0.0573318675160408,0.7716575264930725,0.5803250074386597,-0.0316113606095314,0.6759082674980164,0.4811648726463318,-0.0520603843033313,0.6053432822227478,0.4653367102146148,-0.0630140155553817,0.5541333556175232,0.4612702131271362,-0.0694866627454757,0.7421149015426636,0.613884449005127,-0.0601848885416984,0.6615738272666931,0.5407627820968628,-0.0739402621984481,0.6116153001785278,0.5163984894752502,-0.0797154307365417,0.5735564231872559,0.4976776838302612,-0.0833373144268989
2023-08-01 16:28:14.750167,39,504,0.995024025440216,-0.0364481285214424,0.0866882428526878,-0.0329215824604034,-0.201171875,0.88330078125,0.30712890625,0.7108936905860901,0.8445241451263428,-7.760007179058448e-07,0.6408082246780396,0.7180252075195312,0.0212412290275096,0.6200271844863892,0.6123183369636536,0.0209321957081556,0.592676043510437,0.5350828766822815,0.0084897596389055,0.5624290704727173,0.4762833416461944,-0.0046527283266186,0.7388558387756348,0.5276885032653809,0.0437884666025638,0.6778303980827332,0.4485870003700256,0.0210561472922563,0.6186573505401611,0.4313686490058899,-0.0060097351670265,0.570034384727478,0.4321308135986328,-0.0236176680773496,0.7581009268760681,0.5374910235404968,0.0159405209124088,0.6821882128715515,0.4327825307846069,-0.0008759970078244,0.6155638098716736,0.4210821390151977,-0.022577665746212,0.5641061067581177,0.4273170828819275,-0.0380117520689964,0.7622154951095581,0.5631274580955505,-0.0153594342991709,0.6762036085128784,0.4672671854496002,-0.0312910117208957,0.6070412397384644,0.4534365832805633,-0.0439052544534206,0.5537937879562378,0.4550933241844177,-0.0526164323091506,0.7435804009437561,0.5978779792785645,-0.0465956479310989,0.658961296081543,0.5305940508842468,-0.0573165938258171,0.6073596477508545,0.5070657730102539,-0.0633855834603309,0.5667561292648315,0.4918282330036163,-0.0679264739155769
2023-08-01 16:28:14.810127,40,505,0.9953453540802002,-0.0372107289731502,0.0825590714812278,-0.0329718105494976,-0.365234375,0.916015625,0.30126953125,0.7090906500816345,0.8490082025527954,-7.747851782369253e-07,0.6393776535987854,0.7261139154434204,0.0209498777985572,0.6177473664283752,0.6137271523475647,0.0214762948453426,0.5909756422042847,0.5382599234580994,0.0105754733085632,0.5666876435279846,0.4778821766376495,-0.0006647349218837,0.738973081111908,0.5252095460891724,0.0410625413060188,0.6715071797370911,0.4499287903308868,0.0175864156335592,0.6114988923072815,0.4328197836875915,-0.0092028463259339,0.5620283484458923,0.4306761622428894,-0.0262132752686738,0.756584644317627,0.5354785323143005,0.0138858193531632,0.6725581288337708,0.4387568831443786,-0.00602040393278,0.604147732257843,0.4281075000762939,-0.0290385112166404,0.5496717095375061,0.4328165054321289,-0.0441627129912376,0.7593608498573303,0.5619214773178101,-0.0163845494389534,0.6653947234153748,0.4770631790161133,-0.0346696749329566,0.5952110886573792,0.4604307413101196,-0.0476631447672843,0.5401880741119385,0.4561635851860046,-0.0555456466972827,0.7393836975097656,0.5990704298019409,-0.0463572889566421,0.6524513363838196,0.5370837450027466,-0.0583593435585498,0.5992655754089355,0.5136375427246094,-0.0641458705067634,0.5565781593322754,0.4951845705509186,-0.0675481781363487
2023-08-01 16:28:14.878942,41,506,0.9958035945892334,-0.0353261493146419,0.0776358917355537,-0.0331653505563735,-0.25146484375,0.95556640625,0.2109375,0.709079384803772,0.8443699479103088,-7.6355439659892e-07,0.6400155425071716,0.723629355430603,0.0205992329865694,0.6178684234619141,0.6119750142097473,0.021627789363265,0.592445433139801,0.5376176238059998,0.01163343898952,0.5677277445793152,0.4786758422851562,0.0011809519492089,0.7408025860786438,0.5211671590805054,0.0395373590290546,0.6734240055084229,0.4474825263023376,0.0159615408629179,0.6139509677886963,0.4301154911518097,-0.010729607194662,0.5650731921195984,0.4269393384456634,-0.0277897007763385,0.7580183148384094,0.5340932607650757,0.0127942310646176,0.6733089089393616,0.4374095499515533,-0.0086193270981311,0.6055259704589844,0.4270679354667663,-0.032483160495758,0.5524256825447083,0.4306681156158447,-0.0478432737290859,0.7595044374465942,0.5621368885040283,-0.0168572906404733,0.6640227437019348,0.4805292785167694,-0.0371131636202335,0.5949435830116272,0.4657888412475586,-0.0511378906667232,0.5419525504112244,0.4601891934871673,-0.0590650178492069,0.739443838596344,0.5999810695648193,-0.0459906198084354,0.6529490351676941,0.53874671459198,-0.0589558184146881,0.6005051732063293,0.5179058313369751,-0.0650058612227439,0.5590260028839111,0.5001735687255859,-0.0683813393115997
2023-08-01 16:28:14.941823,42,507,0.9959893226623536,-0.0329012535512447,0.0760243311524391,-0.033810406923294,-0.35888671875,0.93408203125,0.27734375,0.7061717510223389,0.8492075800895691,-8.097089221337228e-07,0.6365304589271545,0.7308310270309448,0.0201257038861513,0.6156263947486877,0.6209306716918945,0.0217484664171934,0.589587926864624,0.5475605726242065,0.0118669010698795,0.5632940530776978,0.4874602258205414,0.0014453209005296,0.731048047542572,0.5311050415039062,0.0427245870232582,0.6654250621795654,0.4596313834190368,0.0186158120632171,0.6060705184936523,0.4445947408676147,-0.0094048669561743,0.5564779043197632,0.4457831382751465,-0.0271495282649993,0.7498128414154053,0.5398858785629272,0.015913538634777,0.6687483191490173,0.4488391578197479,-0.0036751786246895,0.6016839146614075,0.4389404058456421,-0.0274660140275955,0.5472267270088196,0.444162517786026,-0.0431861467659473,0.7549964189529419,0.56535804271698,-0.0142989475280046,0.6659497022628784,0.4810611009597778,-0.0329100526869297,0.5969716310501099,0.4643334150314331,-0.0466064289212226,0.541759729385376,0.4598747491836548,-0.0548827610909938,0.7379897236824036,0.6024476885795593,-0.0443503856658935,0.6510295867919922,0.5431131720542908,-0.0575570650398731,0.5979141592979431,0.5206770896911621,-0.064002089202404,0.5552161335945129,0.504290759563446,-0.0675639435648918
2023-08-01 16:28:14.999109,43,508,0.9964181780815125,-0.0329498723149299,0.0706353858113288,-0.0327992849051952,-0.29638671875,0.908203125,0.31103515625,0.7146876454353333,0.8624098300933838,-8.328044032168691e-07,0.6380753517150879,0.7502074241638184,0.0224144365638494,0.6164882183074951,0.6420085430145264,0.0254587363451719,0.5925934910774231,0.569326639175415,0.0165622197091579,0.5652610063552856,0.5119785666465759,0.0068964217789471,0.7289271950721741,0.5472001433372498,0.0461358204483985,0.65971839427948,0.4786870777606964,0.0239223558455705,0.5999422669410706,0.4669282138347626,-0.0028353699017316,0.5513313412666321,0.4716747403144836,-0.0196390803903341,0.746249258518219,0.5539369583129883,0.0185152813792228,0.6620506644248962,0.4659901857376098,0.0015737485373392,0.5937512516975403,0.4580475986003876,-0.0203218888491392,0.5398449897766113,0.4656479358673095,-0.035146377980709,0.7501763105392456,0.5784575939178467,-0.012460459023714,0.6615034937858582,0.4935314655303955,-0.0292062107473611,0.5920647978782654,0.4789988100528717,-0.0414307750761508,0.5381410121917725,0.4770786762237549,-0.0491586960852146,0.7324975728988647,0.6148645877838135,-0.0431525707244873,0.6463285684585571,0.552733838558197,-0.055228553712368,0.5935045480728149,0.5315729379653931,-0.0604311898350715,0.5522274971008301,0.5173755884170532,-0.063292384147644
2023-08-01 16:28:15.061670,44,509,0.9967023730278016,-0.0337478928267955,0.0665593519806861,-0.0318635366857051,-0.30322265625,0.88330078125,0.2509765625,0.7162452340126038,0.8598594665527344,-7.888575055403635e-07,0.6410254836082458,0.7485853433609009,0.0293227750808,0.6197994351387024,0.6425039768218994,0.0358994677662849,0.5945428609848022,0.5733404159545898,0.02913074567914,0.5650156736373901,0.5180325508117676,0.021134715527296,0.7321791052818298,0.5511941909790039,0.0556070283055305,0.6660585403442383,0.4829918146133423,0.0376274585723876,0.6085754036903381,0.4668097794055938,0.0133560560643672,0.5598594546318054,0.4635369777679443,-0.0027835480868816,0.7496957778930664,0.556854784488678,0.0247709937393665,0.6657792329788208,0.4669402539730072,0.0089492257684469,0.5999559164047241,0.4581491351127624,-0.0132247423753142,0.5466428399085999,0.4615668654441833,-0.0279135629534721,0.7532598972320557,0.5794119834899902,-0.0087592648342251,0.6623237133026123,0.4952175319194793,-0.0243051890283823,0.5951244235038757,0.4828953146934509,-0.0353582054376602,0.5418696403503418,0.4787856340408325,-0.0418828800320625,0.7361789345741272,0.6134459972381592,-0.0414532832801342,0.6494162678718567,0.5519760847091675,-0.0516402274370193,0.5971623659133911,0.5307025909423828,-0.055155873298645,0.5555135011672974,0.5126408338546753,-0.0568477325141429
2023-08-01 16:28:15.119523,45,510,0.9970533847808838,-0.0338909141719341,0.0615635886788368,-0.0307576283812522,-0.28515625,0.9052734375,0.27880859375,0.7176012396812439,0.8614875078201294,-8.187016646843404e-07,0.6421937942504883,0.7511688470840454,0.0278520546853542,0.6204884052276611,0.6440455317497253,0.0336592644453048,0.595024824142456,0.5746029019355774,0.0262552369385957,0.565590500831604,0.5181334614753723,0.0175899900496006,0.7313453555107117,0.553011417388916,0.0538310036063194,0.663202166557312,0.4870983958244324,0.0343252345919609,0.6048731207847595,0.4732686877250671,0.0088979871943593,0.5560903549194336,0.4719604551792145,-0.0079368455335497,0.7495080232620239,0.5583817958831787,0.0228846836835145,0.6644428372383118,0.4680488407611847,0.0055262218229472,0.5975624322891235,0.4624119400978088,-0.0176051761955022,0.5443954467773438,0.4694663882255554,-0.0326679311692714,0.7540037631988525,0.5807927250862122,-0.0108399828895926,0.6644008755683899,0.4942565560340881,-0.0272541027516126,0.596463143825531,0.4824427366256714,-0.0386706516146659,0.543313205242157,0.4790908694267273,-0.0453849546611309,0.7378515005111694,0.6153317093849182,-0.0438370481133461,0.6502249836921692,0.5525332093238831,-0.0550796724855899,0.5972663164138794,0.5312310457229614,-0.0588743276894092,0.555640697479248,0.513943612575531,-0.0605888590216636
2023-08-01 16:28:15.183706,46,511,0.9969461560249328,-0.0345703512430191,0.0621602199971675,-0.0322406999766826,-0.2099609375,0.912109375,0.322265625,0.7184000611305237,0.8620853424072266,-8.118293521874875e-07,0.6426832675933838,0.7510812878608704,0.0293977539986372,0.6215980648994446,0.6440063714981079,0.0361326560378074,0.5968165993690491,0.5747186541557312,0.0294477846473455,0.5683175921440125,0.5181883573532104,0.0214712843298912,0.7329433560371399,0.5517470836639404,0.0562781989574432,0.6650869846343994,0.4864998459815979,0.0383528992533683,0.6069909334182739,0.471479058265686,0.0138279981911182,0.5576996207237244,0.468391865491867,-0.0026741013862192,0.7500592470169067,0.55800461769104,0.0249459482729434,0.664505660533905,0.4704866409301758,0.0091022476553916,0.5974118709564209,0.4640974998474121,-0.0136218145489692,0.5433861613273621,0.4691684246063232,-0.0288408230990171,0.7533713579177856,0.5807614326477051,-0.0090990019962191,0.6637445688247681,0.4958790838718414,-0.0247196946293115,0.5960096716880798,0.4835987687110901,-0.0362972393631935,0.5423851013183594,0.4790296852588653,-0.0434440486133098,0.7364220023155212,0.6151795983314514,-0.0422814600169658,0.6499745845794678,0.5526978373527527,-0.0530494153499603,0.597626805305481,0.5311508178710938,-0.0569424964487552,0.5560861229896545,0.5126463174819946,-0.0589726902544498
2023-08-01 16:28:15.252679,47,512,0.9968414902687072,-0.0353186391294002,0.0624185763299465,-0.034110389649868,-0.3154296875,0.93896484375,0.279296875,0.7218645811080933,0.8629236817359924,-8.299565479319426e-07,0.6434812545776367,0.7557895183563232,0.0297627281397581,0.6225635409355164,0.6501755714416504,0.036224041134119,0.5987656116485596,0.579849362373352,0.0292720030993223,0.5698122978210449,0.5244455337524414,0.0209536626935005,0.7342463135719299,0.5559055209159851,0.054727841168642,0.6650358438491821,0.4876631200313568,0.0361774526536464,0.6060582995414734,0.4744163155555725,0.011461267247796,0.5567986369132996,0.4750927686691284,-0.0047411196865141,0.7513617277145386,0.5612115859985352,0.0235756505280733,0.6633709669113159,0.4723874926567077,0.0074623539112508,0.5950077176094055,0.4668008387088775,-0.0152161316946148,0.5408005714416504,0.4754235744476318,-0.0302993338555097,0.7542617321014404,0.5833471417427063,-0.0101104956120252,0.6636996865272522,0.4974724650382995,-0.025454044342041,0.5954526662826538,0.4848851561546325,-0.0374482199549675,0.5416920185089111,0.4827900826931,-0.0449940338730812,0.7369234561920166,0.6170102953910828,-0.0428461842238903,0.6517041921615601,0.5560813546180725,-0.0531155243515968,0.5991408824920654,0.5346189141273499,-0.0573118478059768,0.5568227171897888,0.5183348655700684,-0.0596687830984592
2023-08-01 16:28:15.326214,48,513,0.9968931078910828,-0.0345080196857452,0.0626468509435653,-0.0329952836036682,-0.333984375,0.92138671875,0.2890625,0.7169428467750549,0.8646472692489624,-8.509058488925803e-07,0.6420163512229919,0.7592000961303711,0.0264667365700006,0.6224222779273987,0.6517617106437683,0.0318178422749042,0.599320113658905,0.5833855271339417,0.0242203827947378,0.569841742515564,0.5282352566719055,0.0154247991740703,0.7311502695083618,0.561529278755188,0.0520811416208744,0.6596196889877319,0.4958335757255554,0.030402798205614,0.6001269221305847,0.4822978675365448,0.0030919127166271,0.5497497320175171,0.4828580915927887,-0.0144836977124214,0.7478868365287781,0.5657410621643066,0.0220571402460336,0.6593261361122131,0.4804182648658752,0.0037036780267953,0.5914649367332458,0.4746865630149841,-0.0205175746232271,0.5376371145248413,0.4812143445014953,-0.0366787016391754,0.7519524693489075,0.5868105888366699,-0.010967319831252,0.6625553369522095,0.499815285205841,-0.0278764590620994,0.5940004587173462,0.4867295026779175,-0.0401799492537975,0.5400579571723938,0.4831939935684204,-0.0478525795042514,0.7363426089286804,0.6197264790534973,-0.0434259511530399,0.6505343914031982,0.5580692291259766,-0.0549606084823608,0.5970664620399475,0.5366450548171997,-0.0593826286494731,0.5543549656867981,0.5208898186683655,-0.0617832541465759
2023-08-01 16:28:15.383265,49,514,0.9968844652175904,-0.033418733626604,0.0638536810874939,-0.0320506654679775,-0.310546875,0.9267578125,0.25048828125,0.7195793986320496,0.8728001117706299,-8.734257903597609e-07,0.6427010893821716,0.7649193406105042,0.0285683460533618,0.6225314736366272,0.6581810712814331,0.0346552021801471,0.598785936832428,0.5904384255409241,0.0270220804959535,0.5699193477630615,0.5335243940353394,0.0179130174219608,0.7296118140220642,0.5648371577262878,0.0553317815065383,0.656774640083313,0.5036184787750244,0.033449325710535,0.5976056456565857,0.4907856285572052,0.0049862544983625,0.5468312501907349,0.4903591275215149,-0.013661591336131,0.747287392616272,0.56899493932724,0.0233633574098348,0.6563863754272461,0.4870055317878723,0.0040990323759615,0.589778482913971,0.482865571975708,-0.0222523845732212,0.5362841486930847,0.4893327355384826,-0.0397846065461635,0.7523785829544067,0.5905073881149292,-0.0114626232534646,0.6600210666656494,0.5077934265136719,-0.0288286376744508,0.5924921631813049,0.4971117973327636,-0.042571734637022,0.5392920970916748,0.4936727285385132,-0.0510558113455772,0.738713800907135,0.6251249313354492,-0.0456125736236572,0.6521856188774109,0.5635658502578735,-0.0571916550397872,0.5994833707809448,0.5423276424407959,-0.0620678849518299,0.5571202635765076,0.5260828137397766,-0.0647812485694885
2023-08-01 16:28:15.450797,50,515,0.9968252182006836,-0.0329936407506465,0.0662168711423873,-0.0294345635920763,-0.2470703125,0.90380859375,0.3125,0.7170232534408569,0.8674283623695374,-8.374560707125056e-07,0.6428016424179077,0.763967752456665,0.0281601771712303,0.6218051910400391,0.6554675698280334,0.0354876480996608,0.5979157090187073,0.5872736573219299,0.0300642903894186,0.5694833993911743,0.5334756970405579,0.0231109037995338,0.7333442568778992,0.5618781447410583,0.0537965930998325,0.6621166467666626,0.4984312653541565,0.0348239168524742,0.6024489998817444,0.4857475459575653,0.0093135926872491,0.5520651936531067,0.4858466982841491,-0.007599361706525,0.750557541847229,0.5675598382949829,0.0235975477844476,0.6612288951873779,0.4797386527061462,0.006128373555839,0.5938116312026978,0.4773629903793335,-0.0178263671696186,0.5403890609741211,0.4888368844985962,-0.0333771109580993,0.7534834742546082,0.5893639922142029,-0.0091799916699528,0.6649631857872009,0.5037475824356079,-0.026125106960535,0.5978904366493225,0.4944061040878296,-0.0394556559622287,0.5446876287460327,0.495147168636322,-0.0473280549049377,0.7369922399520874,0.6232501864433289,-0.0409702397882938,0.6544157862663269,0.564490795135498,-0.0529685392975807,0.6024745106697083,0.546526312828064,-0.0581889189779758,0.5599395036697388,0.5322482585906982,-0.060954600572586
2023-08-01 16:28:15.508170,51,516,0.9965747594833374,-0.0329000912606716,0.0700810477137565,-0.0290684029459953,-0.2626953125,0.912109375,0.26171875,0.7183187007904053,0.8681013584136963,-8.525112207280472e-07,0.6425873041152954,0.7604947090148926,0.0317649655044078,0.6216301918029785,0.6515453457832336,0.0409660339355468,0.5975081920623779,0.5821570754051208,0.0364506244659423,0.5699904561042786,0.5276350975036621,0.0306889079511165,0.7359529137611389,0.5606832504272461,0.0579745732247829,0.6655070781707764,0.4924507141113281,0.0409218743443489,0.6065657138824463,0.4787785410881042,0.0172019004821777,0.5578110814094543,0.4797378778457641,0.00156667875126,0.7517112493515015,0.567013680934906,0.0265134908258914,0.6615392565727234,0.4796768426895141,0.0115184243768453,0.5945281982421875,0.4736128449440002,-0.0110575761646032,0.5421844720840454,0.4822114109992981,-0.0261385850608348,0.7535667419433594,0.5892492532730103,-0.0074358875863254,0.6580245494842529,0.5052769780158997,-0.0225050132721662,0.5900712609291077,0.4943472146987915,-0.0349497385323047,0.5380189418792725,0.4934395551681518,-0.0425619259476661,0.7362353205680847,0.6228227019309998,-0.0402791015803813,0.6490618586540222,0.5586936473846436,-0.0507560819387435,0.5955847501754761,0.537879228591919,-0.0554075241088867,0.5532466173171997,0.5240176916122437,-0.0578996948897838
