Timestamp,Index,Frame ID,w,x,y,z,ax,ay,az,x_0,y_0,z_0,x_1,y_1,z_1,x_2,y_2,z_2,x_3,y_3,z_3,x_4,y_4,z_4,x_5,y_5,z_5,x_6,y_6,z_6,x_7,y_7,z_7,x_8,y_8,z_8,x_9,y_9,z_9,x_10,y_10,z_10,x_11,y_11,z_11,x_12,y_12,z_12,x_13,y_13,z_13,x_14,y_14,z_14,x_15,y_15,z_15,x_16,y_16,z_16,x_17,y_17,z_17,x_18,y_18,z_18,x_19,y_19,z_19,x_20,y_20,z_20
2023-08-01 16:24:45.986149,0,210,0.998151421546936,-0.0092986868694424,-0.0597184263169765,0.0063970936462283,0.13134765625,0.97021484375,0.0927734375,0.6150373816490173,0.7626427412033081,-1.7794144469007733e-07,0.5832142233848572,0.6979465484619141,-0.0011477177031338,0.5723059773445129,0.6083816289901733,0.0022802245803177,0.5667354464530945,0.5400100946426392,0.0002751262509264,0.581909716129303,0.4913583993911743,-0.0003451464290264,0.626776933670044,0.5713181495666504,0.0399136692285537,0.6331068873405457,0.517916738986969,0.0324400700628757,0.6272419691085815,0.4905710816383362,0.0196930542588233,0.6183880567550659,0.4776386320590973,0.0111976880580186,0.6516839265823364,0.5727307200431824,0.0318011008203029,0.6664495468139648,0.5053159594535828,0.0206757020205259,0.6525639891624451,0.4779559969902038,0.0042046755552291,0.6277262568473816,0.478657066822052,-0.0040472489781677,0.6753023266792297,0.5829421877861023,0.019349118694663,0.6949076652526855,0.5123361349105835,0.0082701267674565,0.6766937375068665,0.4820435047149658,-0.0024682581424713,0.6487999558448792,0.4813660383224487,-0.0058934753760695,0.69586580991745,0.600318193435669,0.0057031535543501,0.7019310593605042,0.5367396473884583,-0.0033337734639644,0.6873283386230469,0.4987435042858124,-0.0092296563088893,0.6655074954032898,0.4831971824169159,-0.0107504269108176
2023-08-01 16:24:46.049418,1,211,0.9983341693878174,-0.0150299137458205,-0.0556591674685478,-0.0022499840706586,0.09912109375,0.98779296875,0.08837890625,0.6134531497955322,0.7597659826278687,-1.591336484807471e-07,0.5826306343078613,0.695160448551178,-0.0012234137393534,0.5731461048126221,0.6068744659423828,0.0024794179480522,0.5679852962493896,0.5390316247940063,0.0007279934943653,0.5795565843582153,0.4877061247825622,0.0004781525931321,0.6281330585479736,0.5694465041160583,0.0398302003741264,0.6345314383506775,0.5161280632019043,0.032591450959444,0.6284100413322449,0.4865783751010895,0.0206354800611734,0.6192459464073181,0.4712509512901306,0.0128461197018623,0.6529513001441956,0.5700843930244446,0.0315471664071083,0.6689002513885498,0.5021672248840332,0.0206766463816165,0.6545962691307068,0.4731379747390747,0.005807482637465,0.6294547319412231,0.4735475778579712,-0.0008849495206959,0.6761757135391235,0.5799093842506409,0.0187628548592329,0.6971251964569092,0.5083085298538208,0.0073112896643579,0.6783264875411987,0.4759854674339294,-0.0021937484852969,0.6501541137695312,0.4749684929847717,-0.0041518383659422,0.6963546276092529,0.5969871878623962,0.0047056479379534,0.7040758728981018,0.5325665473937988,-0.0049166977405548,0.6890124082565308,0.4933840930461883,-0.0103752957656979,0.6664662957191467,0.4782326519489288,-0.0110543752089142
2023-08-01 16:24:46.108646,2,212,0.9983178973197936,-0.0242009628564119,-0.0502580441534519,-0.0158087071031332,0.0869140625,0.99560546875,0.126953125,0.6135657429695129,0.7598090171813965,-1.8293413006631454e-07,0.5829749703407288,0.6936022043228149,-0.000417839619331,0.5736862421035767,0.6033608913421631,0.0036275316961109,0.5677069425582886,0.5348826050758362,0.002000638982281,0.5792832374572754,0.4845388531684875,0.001787657267414,0.6285684108734131,0.5664577484130859,0.041914939880371,0.6349445581436157,0.5136098861694336,0.0347770452499389,0.62888103723526,0.4860972762107849,0.0222680252045393,0.6203843951225281,0.4729551970958709,0.0141532998532056,0.6536414623260498,0.568150520324707,0.0334384068846702,0.6695025563240051,0.5002769231796265,0.0227660089731216,0.6552881598472595,0.4745335280895233,0.0074212602339684,0.6305267810821533,0.4774940907955169,0.0004681359860114,0.6773000955581665,0.5790603756904602,0.0204977728426456,0.6980923414230347,0.50797438621521,0.0100996932014822,0.67937833070755,0.4779698550701141,0.0010138115612789,0.6517714262008667,0.4783669710159302,-0.0008781860815361,0.697562575340271,0.5972564220428467,0.0062738922424614,0.704289972782135,0.5325837135314941,-0.00186148728244,0.6894235014915466,0.4938275814056396,-0.0064993682317435,0.668088436126709,0.4780383706092834,-0.0068253092467784
2023-08-01 16:24:46.171857,3,213,0.9978951811790466,-0.0342519134283065,-0.0467109344899654,-0.0291550010442733,0.02587890625,0.95947265625,0.22607421875,0.6129974722862244,0.7581811547279358,-1.764298076523119e-07,0.5826644897460938,0.690251350402832,-5.002475518267602e-05,0.5730483531951904,0.599754273891449,0.0039733168669044,0.5678160190582275,0.5304864048957825,0.0021057296544313,0.5809691548347473,0.4786176681518554,0.0016062798677012,0.6295926570892334,0.562233567237854,0.0432121902704238,0.6368168592453003,0.5093404054641724,0.0364557690918445,0.6306673288345337,0.4817525148391723,0.0239978693425655,0.6218481063842773,0.4690839648246765,0.0157037060707807,0.6555940508842468,0.5646378993988037,0.0340749695897102,0.6724218130111694,0.4960906505584717,0.0232041087001562,0.6577945947647095,0.4695909917354584,0.0070223533548414,0.6320240497589111,0.472786009311676,-0.0005978127592243,0.6796889901161194,0.5763705372810364,0.0204166732728481,0.7023886442184448,0.5032734274864197,0.0087841590866446,0.6827726364135742,0.4731388390064239,-0.0017561060376465,0.6537078022956848,0.4748356938362121,-0.0044516436755657,0.6999112367630005,0.5954985618591309,0.0056458166800439,0.7056663036346436,0.5286166071891785,-0.00429861061275,0.6889498233795166,0.4900189042091369,-0.010243346914649,0.6657079458236694,0.4757325351238251,-0.0113226706162095
2023-08-01 16:24:46.237894,4,214,0.9971640706062316,-0.0466612502932548,-0.0401643179357051,-0.0432801060378551,-0.02099609375,0.9365234375,0.28759765625,0.6116427183151245,0.7544213533401489,-2.203823328272847e-07,0.5809177160263062,0.6850844621658325,-0.0002803334209602,0.5723330974578857,0.5916739702224731,0.0025873139966279,0.5671287775039673,0.5225026607513428,-0.000184908742085,0.5801671743392944,0.4719358682632446,-0.001719627296552,0.632702112197876,0.5546489953994751,0.038367636501789,0.6410489082336426,0.4983889460563659,0.0283940490335226,0.6317213773727417,0.4706851541996002,0.0142326317727565,0.620336651802063,0.4618541896343231,0.0054321610368788,0.6593069434165955,0.5589871406555176,0.0288436841219663,0.6775600910186768,0.4869149625301361,0.0162042826414108,0.65901118516922,0.4606955349445343,0.0001080846777767,0.6308619976043701,0.465209424495697,-0.0072363386861979,0.6838517785072327,0.5737149715423584,0.0149096138775348,0.7102497816085815,0.4952530264854431,0.0018790285103023,0.6877503991127014,0.4643988609313965,-0.0081789791584014,0.6576808094978333,0.4660763144493103,-0.0104988031089305,0.702465295791626,0.5963670015335083,-2.6412531951791607e-05,0.7042078375816345,0.5270047187805176,-0.0116915637627244,0.6849950551986694,0.4884355068206787,-0.0178813654929399,0.662270188331604,0.4733185470104217,-0.0187978018075227
2023-08-01 16:24:46.297133,5,215,0.9964216947555542,-0.0543689876794815,-0.0346371568739414,-0.0546637289226055,-0.07080078125,0.9580078125,0.1767578125,0.6139401793479919,0.7417222261428833,-1.92820749589373e-07,0.5798945426940918,0.6735050082206726,-0.0047426219098269,0.5693711638450623,0.5781263709068298,-0.0046624313108623,0.5641161203384399,0.5071843266487122,-0.0091342730447649,0.5774691104888916,0.4534413516521454,-0.011683433316648,0.6339852213859558,0.5320983529090881,0.0303638204932212,0.6461976170539856,0.4650959372520447,0.01457473449409,0.6341151595115662,0.4369181394577026,-0.0024039808195084,0.6180955767631531,0.4349744021892547,-0.0111084701493382,0.6621033549308777,0.5380067825317383,0.0227886624634265,0.6829134225845337,0.4582486748695373,0.0064373607747256,0.6645849943161011,0.4297725558280945,-0.0104141281917691,0.6355606317520142,0.4365108013153076,-0.0169532485306262,0.6873111724853516,0.554896354675293,0.0103394631296396,0.7156279683113098,0.4730214476585388,-0.0048580863513052,0.6937199234962463,0.4424812793731689,-0.0151761183515191,0.6631925702095032,0.445736289024353,-0.0167484413832426,0.7064124345779419,0.580583393573761,-0.0033746431581676,0.7088916897773743,0.510822594165802,-0.0167620368301868,0.689958393573761,0.4717552661895752,-0.0236676074564456,0.6665677428245544,0.4555542469024658,-0.0241248272359371
2023-08-01 16:24:46.365876,6,216,0.9944981932640076,-0.0693855807185173,-0.032544057816267,-0.0714130401611328,0.005859375,0.96435546875,0.2294921875,0.6122614145278931,0.7412176132202148,-2.3677989702264318e-07,0.5777353048324585,0.6704654693603516,-0.0045901974663138,0.5675185322761536,0.5731667876243591,-0.0041323881596326,0.5626646876335144,0.4988341927528381,-0.0088866651058197,0.5756667256355286,0.4423308372497558,-0.0119487857446074,0.6309096813201904,0.5287792086601257,0.0354645773768425,0.640288770198822,0.4611483812332153,0.0200826507061719,0.6284633874893188,0.432229220867157,0.0023580051492899,0.6128763556480408,0.4274147152900696,-0.0074748368933796,0.660455584526062,0.5334144830703735,0.0274676233530044,0.6777847409248352,0.4533286094665527,0.0117206629365682,0.6605620980262756,0.423696368932724,-0.0062456312589347,0.6316964626312256,0.4268774092197418,-0.0144498320296406,0.6880441904067993,0.5493994951248169,0.0141706774011254,0.7154505848884583,0.4639937281608581,-0.001909561920911,0.6945385932922363,0.4310633540153503,-0.0130355088040232,0.6624436974525452,0.4318446815013885,-0.0155273471027612,0.7105942368507385,0.5742020606994629,-0.0004544999974314,0.7117621898651123,0.501317024230957,-0.0151683436706662,0.6907896399497986,0.4626253247261047,-0.0225495137274265,0.6638645529747009,0.4470684826374054,-0.0236420575529336
2023-08-01 16:24:46.444066,7,217,0.9919062256813048,-0.0867411866784095,-0.0292474497109651,-0.0879920274019241,-0.08984375,0.93310546875,0.359375,0.6119956374168396,0.7455708980560303,-2.3211542554690825e-07,0.5764942169189453,0.6710206270217896,-0.0037812434602528,0.5669639110565186,0.5699393153190613,-0.003272911068052,0.5614699125289917,0.4936650991439819,-0.0082255601882934,0.5746498107910156,0.4342167675495147,-0.01159736700356,0.631033718585968,0.5245559811592102,0.0368993803858757,0.6415346264839172,0.4554647505283355,0.0216885786503553,0.6297932267189026,0.425191193819046,0.003687540302053,0.6141902208328247,0.4203536510467529,-0.0066913007758557,0.6620334386825562,0.5308201313018799,0.0276992227882146,0.6816834807395935,0.4476487636566162,0.011139191687107,0.6634811758995056,0.4167794287204742,-0.0083625689148902,0.6333432793617249,0.4205069541931152,-0.0177757795900106,0.6902495622634888,0.5488366484642029,0.013226019218564,0.7207815647125244,0.4590722918510437,-0.0038302834145724,0.697195291519165,0.424204409122467,-0.0167404729872941,0.6627447009086609,0.4243964850902557,-0.0206838529556989,0.7124337553977966,0.575120747089386,-0.0023857576306909,0.7119203209877014,0.4988519251346588,-0.0187936406582593,0.6881318092346191,0.4588500261306762,-0.0278935898095369,0.6595931649208069,0.4423291385173797,-0.0303270556032657
2023-08-01 16:24:46.519247,8,218,0.9890868663787842,-0.1009507551789283,-0.0236733518540859,-0.1046694666147232,-0.1259765625,0.90771484375,0.3466796875,0.6099209785461426,0.7405737638473511,-2.298457957294886e-07,0.5730863809585571,0.666222870349884,-0.0020940362010151,0.5622484087944031,0.5581143498420715,0.0004438618198037,0.5568854808807373,0.4796361327171325,-0.0025669476017355,0.5706861615180969,0.4210824072360992,-0.0041252002120018,0.6332504153251648,0.5092766880989075,0.0390391685068607,0.643722414970398,0.4410223364830017,0.0277386624366045,0.633694052696228,0.4095674157142639,0.012368245050311,0.6201542615890503,0.4007472991943359,0.0031146386172622,0.6656286716461182,0.5177370309829712,0.028924798592925,0.6874679923057556,0.4347871840000152,0.0150541700422763,0.6687408685684204,0.4026471674442291,-0.0023263820912688,0.6370049715042114,0.4061106443405151,-0.0100342705845832,0.6941874027252197,0.5380449891090393,0.0138349486514925,0.7259451150894165,0.4472079277038574,-0.0016365011688321,0.7028788328170776,0.4089145958423614,-0.013080527074635,0.6686369180679321,0.407029926776886,-0.0157537329941988,0.7149164080619812,0.5666109919548035,-0.002249559154734,0.7152674198150635,0.4858716130256653,-0.018010651692748,0.6924647688865662,0.4419670403003692,-0.0259516630321741,0.6649545431137085,0.4233226478099823,-0.0272421762347221
2023-08-01 16:24:46.595110,9,219,0.9863431453704834,-0.112454205751419,-0.0192295592278242,-0.1187917813658714,-0.17626953125,0.890625,0.349609375,0.6079185009002686,0.7445663809776306,-2.708520980831963e-07,0.5699630379676819,0.6649306416511536,-0.0013519392814487,0.5606564879417419,0.5552060604095459,0.0006280801608227,0.5551526546478271,0.4751693904399872,-0.0037429386284202,0.5660457611083984,0.4140630960464477,-0.0065010236576199,0.632405161857605,0.5068637132644653,0.0400028824806213,0.6443419456481934,0.4324276149272918,0.0240744389593601,0.6317704916000366,0.3972824215888977,0.0054316273890435,0.613864004611969,0.3902624249458313,-0.0049907877109944,0.6651586890220642,0.5140153169631958,0.0283070020377635,0.6896480321884155,0.4258773922920227,0.0107295792549848,0.6664299368858337,0.3906082510948181,-0.0083187390118837,0.629783570766449,0.3942211270332336,-0.016435133293271,0.6945321559906006,0.5332064032554626,0.0112239131703972,0.7288172841072083,0.4375834167003631,-0.0061766416765749,0.7013574242591858,0.3983100056648254,-0.0178311336785554,0.6637729406356812,0.3984014987945556,-0.0201890114694833,0.7161161303520203,0.5606617331504822,-0.0070596607401967,0.7175636887550354,0.4783153533935547,-0.0234078224748373,0.6916747093200684,0.4341771602630615,-0.0312715508043766,0.6615194082260132,0.4171388447284698,-0.0322309471666812
2023-08-01 16:24:46.660994,10,220,0.983571708202362,-0.1229319125413894,-0.017723262310028,-0.1309973746538162,-0.23046875,0.8662109375,0.435546875,0.6056415438652039,0.7445843815803528,-2.537486523124244e-07,0.5662927627563477,0.6630107164382935,-0.0043284217827022,0.5556327700614929,0.5463738441467285,-0.0030217079911381,0.5494122505187988,0.4608941376209259,-0.0075191771611571,0.5632560849189758,0.3972606360912323,-0.0103961070999503,0.6301464438438416,0.4960086047649383,0.0391824319958686,0.6426917314529419,0.4190423786640167,0.0235639251768589,0.6321627497673035,0.383880466222763,0.0046172607690095,0.6169085502624512,0.3752058744430542,-0.006587061099708,0.6657940745353699,0.5036337971687317,0.0289517361670732,0.6890279650688171,0.4108700454235077,0.0101814465597271,0.6686473488807678,0.374907374382019,-0.0112957693636417,0.6338983178138733,0.3785885572433471,-0.0211061798036098,0.6972513198852539,0.5240524411201477,0.0132505390793085,0.7302650213241577,0.4231187105178833,-0.005529130809009,0.7050817012786865,0.3834228515625,-0.0200582351535558,0.6674934029579163,0.3839386105537414,-0.0242777522653341,0.720989465713501,0.5539918541908264,-0.0036789253354072,0.7197133302688599,0.4686790108680725,-0.021738851442933,0.6948930025100708,0.4219674468040466,-0.0319323278963565,0.6645771265029907,0.4024015069007873,-0.0344692915678024
2023-08-01 16:24:46.717978,11,221,0.980283260345459,-0.1334685385227203,-0.018572362139821,-0.1445197165012359,-0.2685546875,0.81201171875,0.44921875,0.605351984500885,0.7439153790473938,-2.560760776759708e-07,0.5622222423553467,0.6609836220741272,-0.0059263785369694,0.5499498844146729,0.5321791172027588,-0.0052837748080492,0.5437954664230347,0.4371457993984222,-0.0103464508429169,0.5580378770828247,0.3677812814712524,-0.0135278832167387,0.6306003928184509,0.4789426326751709,0.0416623502969741,0.6432610154151917,0.3978727459907532,0.026276871562004,0.633491575717926,0.3602119088172912,0.0061677056364715,0.6166057586669922,0.3512430191040039,-0.0060053658671677,0.6690123677253723,0.489635169506073,0.0312065705657005,0.6941524147987366,0.3980855941772461,0.0112821031361818,0.6721221804618835,0.3599620461463928,-0.012777735479176,0.6322562098503113,0.3635639548301697,-0.0239264946430921,0.702538251876831,0.5132858157157898,0.0149574968963861,0.7407463788986206,0.4120013117790222,-0.0047701695002615,0.7170524001121521,0.3664295077323913,-0.0203141905367374,0.6777523159980774,0.3626182079315185,-0.0247194282710552,0.72780841588974,0.5459768176078796,-0.0026019078213721,0.7292277812957764,0.4543760120868683,-0.0221059918403625,0.7072941064834595,0.4017225801944732,-0.0327418930828571,0.678357720375061,0.3777898550033569,-0.0349984653294086
2023-08-01 16:24:46.789341,12,222,0.9778509736061096,-0.1403134912252426,-0.0214112214744091,-0.1538221687078476,-0.236328125,0.85498046875,0.44384765625,0.6067562699317932,0.7479950785636902,-2.175225688461069e-07,0.5623766779899597,0.6636602282524109,-0.0089262574911117,0.5506947040557861,0.5344139933586121,-0.0108724692836403,0.5437619686126709,0.4357602596282959,-0.0185491144657135,0.5586379170417786,0.3634020984172821,-0.0242315661162138,0.6306532025337219,0.4715644717216491,0.0391515232622623,0.6439005732536316,0.3907868862152099,0.0211776904761791,0.6346533298492432,0.3513235449790954,-0.0002503708237782,0.6190521717071533,0.342721164226532,-0.0130552062764763,0.6722874045372009,0.4833901822566986,0.0285434611141681,0.7021604180335999,0.3851478397846222,0.0066213589161634,0.6796836853027344,0.3453217148780823,-0.0173299349844455,0.639022171497345,0.352488100528717,-0.0278667192906141,0.7073688507080078,0.50918048620224,0.0116429654881358,0.7490077018737793,0.4003532528877258,-0.0096680736169219,0.721328616142273,0.3544062972068786,-0.023910529911518,0.6791930198669434,0.3544195294380188,-0.0269371848553419,0.7333362102508545,0.5442734956741333,-0.0070051229558885,0.733921229839325,0.4462521076202392,-0.0278780236840248,0.7071667909622192,0.3941660523414612,-0.0381360799074173,0.6738889217376709,0.3744169473648071,-0.0397324040532112
2023-08-01 16:24:46.852724,13,223,0.9754475355148317,-0.1466192901134491,-0.0199563521891832,-0.1631156206130981,-0.23193359375,0.8212890625,0.4482421875,0.606020987033844,0.7561545968055725,-2.919917676535988e-07,0.5621460676193237,0.6645745038986206,-0.0081025781109929,0.5512106418609619,0.5329158902168274,-0.010284780524671,0.5446836948394775,0.4328132271766662,-0.01869573071599,0.5597841143608093,0.3601625859737396,-0.0246892534196376,0.6311676502227783,0.468720406293869,0.0405295006930828,0.6481376886367798,0.3800894021987915,0.0170787870883941,0.6344082355499268,0.3426015973091125,-0.0086176404729485,0.6132417321205139,0.3421216011047363,-0.0230288300663232,0.6727080941200256,0.4800983071327209,0.0293105207383632,0.7039247751235962,0.3774905800819397,0.0045125833712518,0.6792216300964355,0.3369232714176178,-0.0222478862851858,0.6367209553718567,0.3439773917198181,-0.0349044278264045,0.7091755270957947,0.5067211985588074,0.0113159520551562,0.7537238001823425,0.3938418924808502,-0.011706625111401,0.7245083451271057,0.3457722067832947,-0.0281979069113731,0.6803544163703918,0.3451103866100311,-0.0331070609390735,0.7371808886528015,0.5433098077774048,-0.0084050213918089,0.7386288642883301,0.4449393153190613,-0.029642404988408,0.709595799446106,0.391531378030777,-0.0410851053893566,0.6742700934410095,0.370195984840393,-0.0438746064901351
2023-08-01 16:24:46.905676,14,224,0.9737917184829712,-0.1513505578041076,-0.0194943863898515,-0.1686493903398513,-0.27294921875,0.8232421875,0.4501953125,0.6150878071784973,0.7624645233154297,-1.896620602792609e-07,0.5688199996948242,0.6667904853820801,-0.0157791674137115,0.5531883835792542,0.5291836261749268,-0.0218132007867097,0.544934868812561,0.4217122793197632,-0.0337479040026664,0.5658124089241028,0.3395595252513885,-0.0430112779140472,0.6381263732910156,0.4572048187255859,0.0399694740772247,0.6531301140785217,0.3700844943523407,0.0139082204550504,0.6415992975234985,0.3255571722984314,-0.0150891942903399,0.6225150227546692,0.3121476471424103,-0.0323331877589225,0.6824092268943787,0.4654729962348938,0.0301089882850646,0.7147552967071533,0.3571790754795074,0.0013260869309306,0.6911728382110596,0.3116692304611206,-0.0278929602354764,0.6475473046302795,0.3161225616931915,-0.0408063866198062,0.7203273773193359,0.4919141232967376,0.0122865317389369,0.762418270111084,0.3776206374168396,-0.0133911930024623,0.7346326112747192,0.3309201002120971,-0.0299276206642389,0.6898446679115295,0.3329613208770752,-0.0331812649965286,0.7501816749572754,0.5339235663414001,-0.008403361774981,0.7582365274429321,0.4329655170440674,-0.0308861806988716,0.7321212291717529,0.3760539889335632,-0.0419019572436809,0.6945008635520935,0.3550298511981964,-0.0433415547013282
2023-08-01 16:24:46.967852,15,225,0.971451699733734,-0.1569712311029434,-0.0181109774857759,-0.1769566535949707,-0.2666015625,0.8349609375,0.44580078125,0.6137468218803406,0.7809149622917175,-2.400785774625547e-07,0.5663583278656006,0.6789359450340271,-0.012041145004332,0.554220974445343,0.5313047170639038,-0.0158859733492136,0.5470861792564392,0.4182497859001159,-0.0263170935213565,0.5666286945343018,0.3327979445457458,-0.0340132005512714,0.6370349526405334,0.4602513015270233,0.0446301139891147,0.6543188691139221,0.3655811548233032,0.0190219525247812,0.643166720867157,0.318648099899292,-0.0097228111699223,0.6245813369750977,0.3087190985679626,-0.0269073899835348,0.6837676167488098,0.4711204171180725,0.0324731580913066,0.7172918319702148,0.3553931713104248,0.003228434594348,0.6911369562149048,0.3075839281082153,-0.0279879570007324,0.6443104147911072,0.314311683177948,-0.0428472757339477,0.723605215549469,0.4995493590831756,0.0125161223113536,0.7726213932037354,0.3743849396705627,-0.0143298478797078,0.7414870858192444,0.3209143280982971,-0.0339560955762863,0.6924333572387695,0.3203797936439514,-0.0400097332894802,0.7551354765892029,0.5402676463127136,-0.0097319707274436,0.7593470811843872,0.4318532943725586,-0.034425500780344,0.7295936346054077,0.3731945753097534,-0.0484517812728881,0.6900694966316223,0.3510562479496002,-0.0525236465036869
2023-08-01 16:24:47.023935,16,226,0.969635546207428,-0.161597266793251,-0.0184378735721111,-0.1826287806034088,-0.27392578125,0.83447265625,0.50830078125,0.6155413389205933,0.79185551404953,-2.4065681714091625e-07,0.5694852471351624,0.6813408136367798,-0.0089761847630143,0.55520099401474,0.533001184463501,-0.0101988343521952,0.547248125076294,0.4202135503292084,-0.0190101321786642,0.5639173984527588,0.335905373096466,-0.0254761613905429,0.6360610723495483,0.4613254368305206,0.0506319999694824,0.6513954401016235,0.3671577572822571,0.026305990293622,0.6437922716140747,0.320512592792511,-0.0026457598432898,0.6293123960494995,0.3069264590740204,-0.0204731561243534,0.6834696531295776,0.4713516533374786,0.0371463559567928,0.716154932975769,0.3534771203994751,0.0075700934976339,0.6943297386169434,0.3052095174789428,-0.0253215078264474,0.6518636345863342,0.3096528053283691,-0.0414290949702262,0.7244154214859009,0.4991557598114013,0.0159288942813873,0.7737622261047363,0.3711432218551636,-0.0113356886431574,0.7455463409423828,0.3183600306510925,-0.0321995839476585,0.6980825066566467,0.3203513324260711,-0.0391103848814964,0.7563449740409851,0.540180504322052,-0.0074540232308208,0.7615817785263062,0.4332917928695678,-0.0318980179727077,0.7338366508483887,0.373002827167511,-0.0464372299611568,0.6956255435943604,0.3495092093944549,-0.0510468296706676
2023-08-01 16:24:47.091229,17,227,0.9682425856590272,-0.1647790819406509,-0.0171118527650833,-0.1872461289167404,-0.30615234375,0.86083984375,0.49560546875,0.6200758218765259,0.8116195201873779,-2.8859466283392976e-07,0.5709829926490784,0.7067492008209229,-0.0101873483508825,0.5591968894004822,0.5451425313949585,-0.0095315957441926,0.5534517168998718,0.4249706566333771,-0.0160562060773372,0.5695880651473999,0.3320180773735046,-0.019805310294032,0.6455572843551636,0.4647012948989868,0.0522309839725494,0.6649178266525269,0.3687816262245178,0.0304524879902601,0.656120240688324,0.3214070796966553,0.0035488670691847,0.6371645331382751,0.3050724565982818,-0.0133203044533729,0.6956857442855835,0.4771532416343689,0.0386123619973659,0.7318086624145508,0.3573184907436371,0.0111524313688278,0.7089220285415649,0.3050143122673034,-0.0204681064933538,0.6604743003845215,0.3066101670265198,-0.0358260199427604,0.7385867834091187,0.5079048871994019,0.0169163960963487,0.7914460897445679,0.3781788647174835,-0.0108189694583415,0.7628190517425537,0.3191092610359192,-0.0314418040215969,0.71133953332901,0.3145994842052459,-0.037847027182579,0.7728865742683411,0.5508529543876648,-0.0070077236741781,0.7787189483642578,0.4378854036331177,-0.0345747768878936,0.7496644854545593,0.3718736171722412,-0.0502827689051628,0.7086693644523621,0.3430919349193573,-0.0550421439111232
2023-08-01 16:24:47.156876,18,228,0.9674671292304992,-0.1664595752954483,-0.0157894846051931,-0.1898659318685531,-0.36962890625,0.82470703125,0.529296875,0.6243013739585876,0.8240458965301514,-1.9910477533358065e-07,0.5751098990440369,0.7106971740722656,-0.0150288688018918,0.559617280960083,0.5533573031425476,-0.0197177547961473,0.5512859225273132,0.4312862157821655,-0.0313491262495517,0.5714691877365112,0.3385992050170898,-0.0398035869002342,0.6440443396568298,0.4674254357814789,0.0480311699211597,0.6614841222763062,0.3668569922447204,0.0191334448754787,0.655370831489563,0.3172786235809326,-0.0128337070345878,0.6408708691596985,0.3048157095909118,-0.0317128896713256,0.6966919302940369,0.4789446592330932,0.0362159945070743,0.7315714359283447,0.3560392260551452,0.0030077625997364,0.710870087146759,0.3055315017700195,-0.0314495675265789,0.6667851805686951,0.3129094839096069,-0.0473618283867836,0.7406946420669556,0.510254979133606,0.0155969802290201,0.7935895323753357,0.3785354495048523,-0.0144005101174116,0.7672597169876099,0.3200010657310486,-0.0351399108767509,0.7189977765083313,0.319896399974823,-0.0407564491033554,0.7743165493011475,0.5559752583503723,-0.0078171230852603,0.7805699706077576,0.4450712203979492,-0.0347209647297859,0.7551040649414062,0.3790049850940704,-0.0498651936650276,0.7181043028831482,0.3511871099472046,-0.0536279827356338
2023-08-01 16:24:47.213120,19,229,0.9674986004829408,-0.1665123105049133,-0.0160118453204631,-0.1896410137414932,-0.29345703125,0.82666015625,0.47509765625,0.6282361745834351,0.830396294593811,-1.8858578698655043e-07,0.577228307723999,0.7156343460083008,-0.0149233769625425,0.5591368675231934,0.5545615553855896,-0.0195556879043579,0.551267683506012,0.4304724037647247,-0.0313244462013244,0.5730810165405273,0.3351457715034485,-0.0400406755506992,0.6464182734489441,0.4687001705169678,0.0467519238591194,0.6656433939933777,0.3690421283245086,0.0168485455214977,0.6605662703514099,0.3169887661933899,-0.0156521033495664,0.6457700133323669,0.3036831617355346,-0.0348055064678192,0.6997713446617126,0.4806721210479736,0.0339162871241569,0.7365963459014893,0.3545178771018982,-0.001286131911911,0.7138907313346863,0.3014512658119201,-0.0364823080599308,0.6671127080917358,0.3123330175876617,-0.0523347333073616,0.7436473369598389,0.5123080611228943,0.0124010713770985,0.7973342537879944,0.3766530156135559,-0.018858628347516,0.7671002745628357,0.3196960389614105,-0.038907628506422,0.715809166431427,0.3249151706695556,-0.0435134768486022,0.7777527570724487,0.5589142441749573,-0.0120103303343057,0.7838429808616638,0.447333961725235,-0.0402551479637622,0.7559301257133484,0.3820336461067199,-0.0552303530275821,0.7163494229316711,0.3573033213615417,-0.058282695710659
2023-08-01 16:24:47.279510,20,230,0.9675081372261048,-0.1656473875045776,-0.0145553201436996,-0.190465897321701,-0.27099609375,0.81591796875,0.45849609375,0.6248800754547119,0.836979866027832,-2.585334470950329e-07,0.5768767595291138,0.7192707061767578,-0.0127841597422957,0.5603549480438232,0.560802698135376,-0.017140282317996,0.5530321002006531,0.4392390549182892,-0.0289050508290529,0.5740634202957153,0.34526327252388,-0.037629596889019,0.6488855481147766,0.4724000990390777,0.0476605035364627,0.6699404716491699,0.3728586435317993,0.0175490528345108,0.6613890528678894,0.3225965499877929,-0.0159560889005661,0.6418276429176331,0.3067312240600586,-0.0360783077776432,0.7014267444610596,0.4849608838558197,0.0338441506028175,0.7384730577468872,0.3598805367946625,-0.0020317365415394,0.7137245535850525,0.3105971813201904,-0.0381280891597271,0.6638667583465576,0.3212499618530273,-0.054742507636547,0.7450864315032959,0.5163785219192505,0.0116203073412179,0.7990003228187561,0.3814004957675934,-0.019009530544281,0.7698448300361633,0.3239514231681824,-0.039610382169485,0.7179441452026367,0.3263373374938965,-0.0451113209128379,0.7783982157707214,0.5634672045707703,-0.0133629972115159,0.7874276638031006,0.452112078666687,-0.0393165722489357,0.7619767189025879,0.3849195837974548,-0.0534882768988609,0.723298192024231,0.3567970395088196,-0.0567690059542655
2023-08-01 16:24:47.335790,21,231,0.9675586819648744,-0.1653588712215423,-0.0136307030916213,-0.1905273497104644,-0.30322265625,0.81591796875,0.4833984375,0.6299105882644653,0.8407480120658875,-2.5100533207478293e-07,0.5803593993186951,0.7189207673072815,-0.012846503406763,0.5629178881645203,0.5598576068878174,-0.0164062026888132,0.5551137328147888,0.43758025765419,-0.0275456327944993,0.572840690612793,0.3420324921607971,-0.0358519256114959,0.6506569385528564,0.4753151535987854,0.0500934831798076,0.669915497303009,0.3748571276664734,0.0218792725354433,0.6631852984428406,0.3238255679607391,-0.0105992322787642,0.6465169191360474,0.3052162528038025,-0.0305421780794858,0.7035841941833496,0.4867791533470154,0.0364784114062786,0.7393630146980286,0.3608481884002685,0.00263696257025,0.7154124975204468,0.3100337982177734,-0.0333876311779022,0.6673958897590637,0.3148948550224304,-0.0507646463811397,0.7479759454727173,0.5173466205596924,0.0143603244796395,0.8032958507537842,0.3815536499023437,-0.0164351798593997,0.7726761102676392,0.3256643414497375,-0.038771953433752,0.7199233174324036,0.3281975388526916,-0.0457220487296581,0.7819513082504272,0.5634706020355225,-0.0104270968586206,0.789365291595459,0.4524926841259002,-0.0376896932721138,0.7597289085388184,0.3885173201560974,-0.0532581582665443,0.7178376317024231,0.3635454773902893,-0.0576532781124115
2023-08-01 16:24:47.399724,22,232,0.9678171277046204,-0.1644200384616851,-0.0131689328700304,-0.1900598406791687,-0.3203125,0.8291015625,0.4755859375,0.6282914876937866,0.8394380807876587,-2.2147513334402907e-07,0.58077472448349,0.7157645225524902,-0.0148726711049675,0.5628651976585388,0.5592526197433472,-0.0201273448765277,0.5558879375457764,0.4357791543006897,-0.0326784253120422,0.5769838690757751,0.3373073935508728,-0.0422226302325725,0.6503043174743652,0.4752091765403747,0.0484143383800983,0.6699349284172058,0.3759077787399292,0.0186712630093097,0.6636099219322205,0.3243789672851562,-0.0148018430918455,0.6484265327453613,0.3067140579223633,-0.0350656025111675,0.7038737535476685,0.4865576326847076,0.0359498225152492,0.7383862733840942,0.3596452474594116,0.0012764560524374,0.7155314087867737,0.3084191679954529,-0.0352039113640785,0.6700286269187927,0.3151909112930298,-0.0529276244342327,0.7486434578895569,0.5169317126274109,0.0147926388308405,0.8025862574577332,0.3800949454307556,-0.0166283212602138,0.7731693983078003,0.3252714872360229,-0.038929209113121,0.722562313079834,0.3311041891574859,-0.0455997101962566,0.7828046679496765,0.5633777976036072,-0.0091650541871786,0.7907200455665588,0.4518904387950897,-0.0362768694758415,0.7623710632324219,0.3865323066711426,-0.051686979830265,0.721236526966095,0.3620006740093231,-0.0558209829032421
2023-08-01 16:24:47.459322,23,233,0.9682559967041016,-0.163081094622612,-0.0127800032496452,-0.1890014559030532,-0.35791015625,0.80419921875,0.521484375,0.6292967200279236,0.8416739702224731,-2.6848240963772696e-07,0.5811474919319153,0.7171492576599121,-0.0139420479536056,0.5633254051208496,0.5587565302848816,-0.0195319540798664,0.5562800765037537,0.4346072375774383,-0.0326585434377193,0.57732754945755,0.335074245929718,-0.0428499057888984,0.6516236066818237,0.4733065962791443,0.0505925714969635,0.6727883219718933,0.3719541430473327,0.0208120681345462,0.6641854643821716,0.3244714140892029,-0.0132126454263925,0.6457940936088562,0.3093332648277282,-0.0338810607790946,0.7047232985496521,0.4858006536960602,0.0374214276671409,0.7411068677902222,0.3593434691429138,0.0015044457977637,0.7148693203926086,0.3143763244152069,-0.0364081673324108,0.6648213863372803,0.324154257774353,-0.05465604737401,0.7492818236351013,0.5162803530693054,0.0155449490994215,0.8038153648376465,0.3799763917922973,-0.0160371139645576,0.7725239992141724,0.3262176513671875,-0.0394035093486309,0.719175398349762,0.3297280967235565,-0.046854056417942,0.7834106683731079,0.5625782012939453,-0.0089907813817262,0.7921841144561768,0.4487913250923157,-0.0351101160049438,0.7645095586776733,0.382830411195755,-0.0504453182220459,0.7236733436584473,0.3552257418632507,-0.0549664050340652
2023-08-01 16:24:47.520088,24,234,0.9695871472358704,-0.1595939844846725,-0.0121291298419237,-0.1851575672626495,-0.34326171875,0.83154296875,0.509765625,0.6273336410522461,0.8403719663619995,-2.786053414638445e-07,0.5804091691970825,0.7188214063644409,-0.012282901443541,0.5647916793823242,0.5603806972503662,-0.016005128622055,0.5581351518630981,0.4399406313896179,-0.0274420995265245,0.575047492980957,0.3449456691741943,-0.0358932130038738,0.6531158089637756,0.4731360077857971,0.0495224483311176,0.6735733151435852,0.3731138110160827,0.0202810801565647,0.6647995710372925,0.3244359195232391,-0.0125983394682407,0.6456980109214783,0.3091441392898559,-0.0319348946213722,0.7048125267028809,0.4844175279140472,0.0358854122459888,0.7408131957054138,0.3587972223758697,0.0012222615769132,0.714537501335144,0.3128460049629211,-0.0340083539485931,0.6650965213775635,0.3233899474143982,-0.0499869175255298,0.748176634311676,0.5142077803611755,0.0137933436781167,0.802233099937439,0.3797951936721802,-0.0165597647428512,0.7711641192436218,0.3267400860786438,-0.0370566882193088,0.7191497087478638,0.332236111164093,-0.0422007963061332,0.7808794975280762,0.5601076483726501,-0.0110039478167891,0.7927876710891724,0.4468486607074737,-0.0354551300406456,0.7665954828262329,0.3808119297027588,-0.0482947900891304,0.7274675369262695,0.3540779054164886,-0.0507243014872074
2023-08-01 16:24:47.585452,25,235,0.9716677665710448,-0.1536333709955215,-0.0119142485782504,-0.1792109757661819,-0.330078125,0.7939453125,0.54541015625,0.6270549297332764,0.8369905352592468,-2.851658678082458e-07,0.5804646611213684,0.7152849435806274,-0.0118526397272944,0.5646336078643799,0.5572014451026917,-0.015649065375328,0.5574986338615417,0.4383535385131836,-0.0271159633994102,0.5774008631706238,0.3457486927509308,-0.035517293959856,0.6519299149513245,0.4698324501514435,0.0488439910113811,0.6725704073905945,0.3708508014678955,0.0187320746481418,0.6634793281555176,0.3238941729068756,-0.0145400473847985,0.6436217427253723,0.3099106550216675,-0.0336943008005619,0.7032939195632935,0.4806732535362243,0.0352768041193485,0.7407561540603638,0.3574675619602203,0.0010862448252737,0.715048611164093,0.3123387694358825,-0.0330322347581386,0.6651662588119507,0.3217780590057373,-0.0480884425342083,0.7468703389167786,0.5102728009223938,0.0132153742015361,0.8018801212310791,0.3796287775039673,-0.0167067423462867,0.7717278003692627,0.325292706489563,-0.0364158600568771,0.7197129130363464,0.3278059065341949,-0.0409334227442741,0.7795857787132263,0.556489109992981,-0.0115281613543629,0.7939915657043457,0.4453706741333008,-0.034876961261034,0.7686156630516052,0.3787477016448974,-0.0466580279171466,0.7297224402427673,0.3502665162086487,-0.0483318567276001
2023-08-01 16:24:47.665418,26,236,0.9760861992836,-0.1414475291967392,-0.0163410045206546,-0.164259672164917,-0.2568359375,0.83203125,0.47607421875,0.6241987943649292,0.8376564979553223,-2.672213099685905e-07,0.5790594816207886,0.7178741097450256,-0.0113811194896698,0.5639866590499878,0.5603487491607666,-0.0147070903331041,0.5571010112762451,0.4416753053665161,-0.025759657844901,0.5752953886985779,0.3481575846672058,-0.0341468527913093,0.6507242918014526,0.4710782170295715,0.0499367341399192,0.6691479682922363,0.3747726082801819,0.0220248829573392,0.6621516346931458,0.3267731070518493,-0.0103563964366912,0.645269513130188,0.3082751333713531,-0.029984526336193,0.7022510170936584,0.4833801984786987,0.0358323231339454,0.7389587759971619,0.3607324361801147,0.002266161609441,0.7161931991577148,0.3158090710639953,-0.0322135724127292,0.669114351272583,0.3247685730457306,-0.0479028671979904,0.7453960180282593,0.5142505764961243,0.0134491389617323,0.7995905876159668,0.3835028111934662,-0.0157327372580766,0.7705211639404297,0.3295275568962097,-0.0356514193117618,0.7189300656318665,0.3313054740428924,-0.0408785454928875,0.7781627178192139,0.5614786148071289,-0.0116248773410916,0.7910311222076416,0.450561910867691,-0.035125482827425,0.7655729651451111,0.385255753993988,-0.047405406832695,0.7264331579208374,0.3574568033218384,-0.0498280376195907
2023-08-01 16:24:47.744457,27,237,0.9794918298721312,-0.1293656229972839,-0.0197107028216123,-0.1532047390937805,-0.2548828125,0.841796875,0.4765625,0.6268710494041443,0.8209716081619263,-3.13682278374472e-07,0.5840033888816833,0.7015570998191833,-0.0094372071325778,0.5697326064109802,0.5506197810173035,-0.0105333663523197,0.5644240379333496,0.4391646683216095,-0.0192024782299995,0.5751742124557495,0.351769208908081,-0.0253207981586456,0.6505589485168457,0.4671997725963592,0.0490978956222534,0.6685962677001953,0.3743171393871307,0.0252520907670259,0.660205066204071,0.3306370973587036,-0.003146446775645,0.6420623660087585,0.3102492690086365,-0.0206596311181783,0.6980040073394775,0.475633829832077,0.0360043682157993,0.7298753261566162,0.3590373694896698,0.0073951953090727,0.7061745524406433,0.317653477191925,-0.0227641146630048,0.6615501046180725,0.3200106024742126,-0.0370770543813705,0.7387490272521973,0.5021644830703735,0.015157482586801,0.7905712723731995,0.3797612190246582,-0.0111753353849053,0.7621995806694031,0.3330221772193908,-0.0293706618249416,0.7134379744529724,0.3348806500434875,-0.0345483273267746,0.7705293893814087,0.5459272861480713,-0.0081666726619005,0.7854709029197693,0.4430519044399261,-0.0281992405652999,0.7610016465187073,0.3831559419631958,-0.0386155284941196,0.7233997583389282,0.3563248217105865,-0.0409191809594631
2023-08-01 16:24:47.814451,28,238,0.983478307723999,-0.1134857982397079,-0.0240245219320058,-0.1389754265546798,-0.26123046875,0.8583984375,0.4248046875,0.6286737322807312,0.8123251795768738,-2.840997126440925e-07,0.5858465433120728,0.7000873684883118,-0.0098249176517128,0.5726929903030396,0.5514267683029175,-0.0110422261059284,0.5666584372520447,0.4420743584632873,-0.0194974094629287,0.5764050483703613,0.3567726016044616,-0.0253054890781641,0.6515265703201294,0.4675280749797821,0.045296911150217,0.6668694019317627,0.3787421584129333,0.0213783029466867,0.6593258380889893,0.3344312310218811,-0.0060679037123918,0.643682599067688,0.3151252269744873,-0.0226024743169546,0.6977396607398987,0.4740654230117798,0.0329101420938968,0.7252662181854248,0.359093427658081,0.0038233546074479,0.7035540342330933,0.3196932673454284,-0.0253641288727521,0.6627646088600159,0.3290567398071289,-0.0383327454328537,0.737551212310791,0.4983991682529449,0.0131875602528452,0.7826486229896545,0.3777929246425628,-0.0121917380020022,0.7560898661613464,0.3342871069908142,-0.0279166605323553,0.7111617922782898,0.3414612412452698,-0.030953399837017,0.7696919441223145,0.5396239757537842,-0.0091292634606361,0.7865903377532959,0.4361566603183746,-0.027404410764575,0.7677687406539917,0.374670147895813,-0.0360997207462787,0.7351001501083374,0.3481205701828003,-0.0369379520416259
2023-08-01 16:24:47.882187,29,239,0.9865157604217528,-0.100687526166439,-0.0252160783857107,-0.1265416890382766,-0.23974609375,0.94140625,0.32568359375,0.6449975371360779,0.8263469934463501,-3.111973967406812e-07,0.6019191145896912,0.7096207737922668,-0.0053094867616891,0.5932523012161255,0.5675981640815735,-0.0021150161046534,0.5925740599632263,0.4617403149604797,-0.0071885692887008,0.6035157442092896,0.3803871273994446,-0.0091828973963856,0.6649447679519653,0.4913626313209533,0.0608641617000103,0.6829780340194702,0.4061208367347717,0.0405011251568794,0.6760355830192566,0.3638604283332824,0.0138298533856868,0.6624763607978821,0.3552197515964508,-0.0010964476969093,0.7041978240013123,0.4994908571243286,0.0491613000631332,0.7317703366279602,0.3883683085441589,0.023993982002139,0.7152310013771057,0.3532834649085998,-0.0052375714294612,0.6806529760360718,0.3717978596687317,-0.0177533403038978,0.7396461963653564,0.5191500782966614,0.0296510644257068,0.7777634263038635,0.4090467989444732,0.0093088159337639,0.757532000541687,0.3678029179573059,-0.007017693016678,0.7208178639411926,0.3814652562141418,-0.0107300374656915,0.7707316279411316,0.5515488386154175,0.0074931946583092,0.7901240587234497,0.4549990892410278,-0.0037924761418253,0.7763506770133972,0.3964787125587463,-0.0105946026742458,0.7490894794464111,0.3754400312900543,-0.0111085744574666
2023-08-01 16:24:47.954933,30,240,0.99005925655365,-0.0858771428465843,-0.0338120982050895,-0.1061346009373664,-0.10888671875,0.9140625,0.27197265625,0.6433247327804565,0.8186524510383606,-2.9162706027818786e-07,0.6060916781425476,0.7029509544372559,-0.0010523356031626,0.5973647236824036,0.5696329474449158,0.0039143483154475,0.5944365859031677,0.4712836742401123,1.7493493942311034e-05,0.605015754699707,0.3915691971778869,-0.0016104876995086,0.6692730784416199,0.5010919570922852,0.0634049251675605,0.6847166419029236,0.4222338199615478,0.0478690788149833,0.6760221719741821,0.3840861320495605,0.0248161498457193,0.6620285511016846,0.3670466542243957,0.0105301346629858,0.7073848843574524,0.5051871538162231,0.0499610155820846,0.7349284887313843,0.4018522202968597,0.0291967634111642,0.7164952754974365,0.3719154596328735,0.0034783007577061,0.6827998757362366,0.3846556842327118,-0.0080852573737502,0.7418553829193115,0.5227543115615845,0.0293436758220195,0.7812262773513794,0.4155348837375641,0.011886715888977,0.7597867846488953,0.3761619627475738,-0.0017895094351843,0.7232253551483154,0.3827504515647888,-0.0050373091362416,0.7714084982872009,0.5541673302650452,0.0064515992999076,0.7907896041870117,0.4616963267326355,-0.0028360188007354,0.7762336730957031,0.4055448472499847,-0.0077752387151122,0.7492131590843201,0.3809387683868408,-0.0079024657607078
2023-08-01 16:24:48.035453,31,241,0.99360454082489,-0.0685817673802375,-0.0381929241120815,-0.0811662897467613,-0.0458984375,0.9501953125,0.18896484375,0.6476954221725464,0.8088411092758179,-2.748083716141992e-07,0.6090351343154907,0.702415943145752,-0.0051260087639093,0.5992658138275146,0.5730087161064148,-0.0024043435696512,0.5972156524658203,0.4755060970783233,-0.0073193362914025,0.6055575609207153,0.3968956470489502,-0.0096990438178181,0.6698334217071533,0.5058801174163818,0.053064439445734,0.6853673458099365,0.4266844987869262,0.0347888879477977,0.6774436235427856,0.3889434933662414,0.0120024690404534,0.6651203036308289,0.3746657371520996,-0.0011288836831226,0.707699716091156,0.5090835690498352,0.0420055128633976,0.733581006526947,0.406525045633316,0.0185569655150175,0.7143797278404236,0.377824604511261,-0.0057697030715644,0.6817091107368469,0.3932232856750488,-0.0153388483449816,0.741729736328125,0.525209903717041,0.0238634590059518,0.7777736186981201,0.4228276312351227,0.0043861675076186,0.7544451951980591,0.3860975205898285,-0.0081726843491196,0.7185108661651611,0.3941607475280761,-0.0096212849020957,0.7712529897689819,0.5555076599121094,0.0032838294282555,0.7907997965812683,0.4661821722984314,-0.0070298262871801,0.7768501043319702,0.4115258753299713,-0.0116458227857947,0.7510044574737549,0.3882009983062744,-0.0108903581276535
2023-08-01 16:24:48.102020,32,242,0.9949846863746644,-0.0594438649713993,-0.0447488166391849,-0.0668525695800781,-0.03369140625,0.9560546875,0.24560546875,0.6515401005744934,0.8153173923492432,-3.023515091626905e-07,0.610767126083374,0.7061020731925964,0.0027889239136129,0.6003850102424622,0.5854824781417847,0.0106983268633484,0.5981060862541199,0.495130181312561,0.0092085031792521,0.6093311905860901,0.4279946088790893,0.0099697671830654,0.6638275384902954,0.5277815461158752,0.0687452182173729,0.6784814596176147,0.4498881697654724,0.0562883540987968,0.6689786314964294,0.4157090187072754,0.0356308370828628,0.6540514826774597,0.4085515141487121,0.0240182373672723,0.6965393424034119,0.5292583107948303,0.055997584015131,0.7204488515853882,0.43314129114151,0.039419375360012,0.7040457129478455,0.40262371301651,0.0156457833945751,0.673940122127533,0.4160434603691101,0.0051339543424546,0.7278782725334167,0.5418727993965149,0.0362097807228565,0.7547048330307007,0.4477636516094208,0.0233184341341257,0.7336445450782776,0.41617351770401,0.0088559705764055,0.7015295624732971,0.4294134676456451,0.0046078949235379,0.7575032114982605,0.5644843578338623,0.0143694682046771,0.7707881927490234,0.4811814725399017,0.0103882169350981,0.7545506954193115,0.4387743175029754,0.0068507129326462,0.7283573746681213,0.4302994608879089,0.0070886639878153
2023-08-01 16:24:48.164900,33,243,0.9964736104011536,-0.0482252463698387,-0.0476505979895591,-0.0494374707341194,0.0341796875,0.98974609375,0.17578125,0.6430714726448059,0.7987185716629028,-2.719455949318217e-07,0.6087027192115784,0.6940968036651611,0.0013521336950361,0.5997204780578613,0.5803583860397339,0.0065213316120207,0.5963059067726135,0.4963918626308441,0.0034738639369606,0.6063821911811829,0.4297864437103271,0.0022191139869391,0.6653026342391968,0.5260035991668701,0.0563441179692745,0.6780729293823242,0.4565162062644958,0.0429980233311653,0.6672505736351013,0.4244996905326843,0.0232656300067901,0.6521536707878113,0.4114644229412079,0.0112248929217457,0.6975831389427185,0.5292995572090149,0.0441633313894271,0.7191904187202454,0.4356541037559509,0.0256875846534967,0.6995722055435181,0.4110182821750641,0.0027940289583057,0.6694740056991577,0.4240759015083313,-0.0073971459642052,0.7266888618469238,0.5442689061164856,0.0261519588530063,0.7573033571243286,0.4504662752151489,0.0117971906438469,0.7331095933914185,0.4227046370506286,-0.0009040510049089,0.6994117498397827,0.4342315793037414,-0.0041916579939424,0.7519024610519409,0.5719121098518372,0.0063641783781349,0.7647531628608704,0.4925774931907654,-0.0001998401276068,0.7461367845535278,0.4499169588088989,-0.0045168218202888,0.7180164456367493,0.4360238909721374,-0.0046648038551211
2023-08-01 16:24:48.222276,34,244,0.9971429109573364,-0.0418060310184955,-0.0486310757696628,-0.0399156548082828,0.0185546875,0.95703125,0.1572265625,0.64649897813797,0.7950605750083923,-2.799400817821152e-07,0.6095085740089417,0.6980252861976624,0.0002535503590479,0.5988221764564514,0.5873279571533203,0.0052353180944919,0.5949815511703491,0.5032264590263367,0.0021874967496842,0.6043797135353088,0.4393038153648376,0.0007117558270692,0.6583225131034851,0.5344213247299194,0.0553010217845439,0.6699064373970032,0.4657005667686462,0.0422743335366249,0.6613583564758301,0.4335908591747284,0.0228297431021928,0.6489349603652954,0.4216457605361938,0.0109513364732265,0.6909515857696533,0.536134660243988,0.0436473004519939,0.7129914164543152,0.4465474486351013,0.0261215940117836,0.6958550214767456,0.4200148582458496,0.0040080528706312,0.6670057773590088,0.4296944141387939,-0.0061266995035111,0.7213788032531738,0.5488986968994141,0.0258923061192035,0.7494182586669922,0.458596259355545,0.0117790149524807,0.727069616317749,0.4280855059623718,-0.001247190288268,0.6949952840805054,0.435764342546463,-0.00524184666574,0.7487378120422363,0.5730236768722534,0.00627499865368,0.761995792388916,0.4928958415985107,-0.0004667213070206,0.7429330348968506,0.4545613527297973,-0.0045246491208672,0.7146598100662231,0.4455297589302063,-0.0048826844431459
2023-08-01 16:24:48.282821,35,245,0.9974498748779296,-0.0371007099747657,-0.0525638088583946,-0.0308929737657308,0.03076171875,0.96044921875,0.20166015625,0.6405932903289795,0.7973405718803406,-2.812650166106323e-07,0.6052761673927307,0.7027363181114197,0.0009762384579516,0.5951303243637085,0.6000288724899292,0.006489492021501,0.5898967385292053,0.5219700336456299,0.003983162343502,0.6010965704917908,0.4670808315277099,0.0031685284338891,0.6524665355682373,0.5543485283851624,0.0558736138045787,0.6627652049064636,0.4857440590858459,0.0431505255401134,0.6527308225631714,0.454903781414032,0.02409103885293,0.6396036744117737,0.4489692151546478,0.0131579907611012,0.6812565326690674,0.5546689033508301,0.0450084805488586,0.699775755405426,0.469805508852005,0.0286066122353076,0.6819365620613098,0.4421642422676086,0.006749712396413,0.6537418365478516,0.4537445902824402,-0.003259536344558,0.7094119787216187,0.5638153553009033,0.0281236097216606,0.7319058179855347,0.4799031317234039,0.0149480933323502,0.7108745574951172,0.4509561955928802,0.0013404111377894,0.6808977723121643,0.461984783411026,-0.0028018555603921,0.7358231544494629,0.5822464823722839,0.0094343042001128,0.7471098899841309,0.5085030198097229,0.0037228560540825,0.7308393716812134,0.4708616137504577,-0.0007639135583303,0.7047402858734131,0.4637773633003235,-0.0012994277058169
2023-08-01 16:24:48.346881,36,246,0.997757852077484,-0.0307184588164091,-0.0563244670629501,-0.0190596189349889,-0.00390625,0.9609375,0.20361328125,0.638732373714447,0.7842701077461243,-2.262878382452982e-07,0.6039843559265137,0.699288547039032,0.0003450882504694,0.5921581983566284,0.6017887592315674,0.0045689851976931,0.5875237584114075,0.5274995565414429,0.0016146559501066,0.5979312658309937,0.4714151322841644,-0.000126793529489,0.6497538685798645,0.5553575158119202,0.0487714894115924,0.6593300104141235,0.4941262900829315,0.0375420153141021,0.6518532037734985,0.4661032557487488,0.0208096839487552,0.6417726874351501,0.4555398225784302,0.0106377974152565,0.6789104342460632,0.5553207397460938,0.0384909510612487,0.6968628168106079,0.4750244617462158,0.023207239806652,0.680651068687439,0.4521022737026214,0.0034755039960145,0.6546939015388489,0.4627971649169922,-0.0054579665884375,0.7063238620758057,0.5647444725036621,0.0229881200939416,0.7312590479850769,0.482290118932724,0.0100183244794607,0.7106981873512268,0.4546836912631988,-0.0013841658364981,0.6816480755805969,0.4626191258430481,-0.0042773270979523,0.7307954430580139,0.5841215252876282,0.0059463204815983,0.7411335110664368,0.5114644765853882,-0.0013991508167237,0.7253848314285278,0.4737766981124878,-0.0056970370933413,0.7018733024597168,0.4624749422073364,-0.0058234804309904
2023-08-01 16:24:48.409301,37,247,0.9979385733604432,-0.0243221335113048,-0.0586116462945938,-0.0095780715346336,-0.0205078125,0.92919921875,0.154296875,0.6384438872337341,0.7809275984764099,-2.1099015157233225e-07,0.6039713025093079,0.6997939348220825,0.0011820713989436,0.5931302309036255,0.6031522154808044,0.005556303076446,0.5881194472312927,0.5303018689155579,0.00274841603823,0.5981433987617493,0.4772874414920807,0.0010393769480288,0.6489129066467285,0.5586325526237488,0.0479203350841999,0.6591677665710449,0.497347354888916,0.0362567827105522,0.6533646583557129,0.4689401090145111,0.0196659993380308,0.6444876194000244,0.4621288478374481,0.010051398538053,0.6783583164215088,0.5613395571708679,0.0369240157306194,0.6995109915733337,0.4818620979785919,0.0195244383066892,0.6840121150016785,0.4570202231407165,-0.0012648910051211,0.6569276452064514,0.4694701433181762,-0.0099531607702374,0.7051071524620056,0.5727100968360901,0.0208797771483659,0.731779158115387,0.4937008619308471,0.0061121364124119,0.7115139961242676,0.4642219543457031,-0.0071393805555999,0.6816310286521912,0.4710107445716858,-0.0106295645236969,0.727741003036499,0.5924986600875854,0.0036288516130298,0.7360579967498779,0.5225843191146851,-0.0055770291946828,0.7202211618423462,0.4832534193992615,-0.0115820169448852,0.6970805525779724,0.4691988229751587,-0.0125801749527454
2023-08-01 16:24:48.474234,38,248,0.9978287816047668,-0.0194877237081527,-0.0628497898578643,0.0028039815369993,0.1142578125,0.98046875,0.13720703125,0.6359833478927612,0.7875876426696777,-2.2401209776035105e-07,0.6026747226715088,0.7106388807296753,-0.0016691208584234,0.5912119746208191,0.616718053817749,0.0012733100447803,0.585689127445221,0.5453957915306091,-0.0019869988318532,0.5968795418739319,0.4946272373199463,-0.0036843188572674,0.6441752314567566,0.5717811584472656,0.0432289727032184,0.6531458497047424,0.5101635456085205,0.0304390210658311,0.6466039419174194,0.4828208088874817,0.0135335847735404,0.6364008188247681,0.4785938858985901,0.0041442052461206,0.6719124913215637,0.5752087235450745,0.0341919474303722,0.6911882758140564,0.5020588040351868,0.0180024411529302,0.6762436032295227,0.4773554503917694,-0.0009020597208291,0.649402916431427,0.4871898889541626,-0.0088559575378894,0.6981424689292908,0.5861031413078308,0.0199047420173883,0.7228854894638062,0.5121057033538818,0.0061086062341928,0.7040428519248962,0.4841477870941162,-0.0048100608401,0.6753783822059631,0.4910911321640014,-0.0070675867609679,0.7208684682846069,0.6044366955757141,0.0040774797089397,0.7293611168861389,0.5388172268867493,-0.0038722686003893,0.714614748954773,0.503258228302002,-0.0079373084008693,0.6922569274902344,0.4921306073665619,-0.0076552960090339
2023-08-01 16:24:48.531588,39,249,0.997692346572876,-0.0166972856968641,-0.0652514994144439,0.008570309728384,0.17236328125,1.00439453125,0.10107421875,0.6338695883750916,0.782376229763031,-1.8117655997684778e-07,0.6010373830795288,0.7077283263206482,-0.0006807041936554,0.5892164707183838,0.6187281608581543,0.0023372792638838,0.5829259753227234,0.5514280796051025,-0.0008585977484472,0.5945650339126587,0.5004881620407104,-0.0030075996182858,0.6414502859115601,0.5789475440979004,0.0418950021266937,0.6493036150932312,0.5221251845359802,0.0306333173066377,0.643612802028656,0.493900328874588,0.0150137832388281,0.6354547142982483,0.4861763417720794,0.0057500563561916,0.6693376302719116,0.5805106163024902,0.0325628742575645,0.6881524324417114,0.5062991976737976,0.0168071072548627,0.6729773879051208,0.4821375608444214,-0.0023499126546084,0.6475206017494202,0.4925898909568786,-0.0108176190406084,0.6953790187835693,0.5909848213195801,0.0185176152735948,0.7200367450714111,0.5148678421974182,0.0045572747476398,0.7005581855773926,0.4862168431282043,-0.0079617202281951,0.6725916862487793,0.4919309020042419,-0.0115853594616055,0.7171400189399719,0.6096459627151489,0.0033183791674673,0.7223843336105347,0.5432849526405334,-0.006329895928502,0.7053180932998657,0.5072766542434692,-0.0124238701537251,0.6822926998138428,0.4955907464027405,-0.0136335752904415
2023-08-01 16:24:48.592811,40,250,0.9979010820388794,-0.014316277578473,-0.0622969903051853,0.0103626856580376,0.11328125,0.99560546875,0.0693359375,0.6312150359153748,0.784744918346405,-2.017705895696054e-07,0.5989561080932617,0.7136357426643372,-0.0014226298080757,0.5865119099617004,0.6252129077911377,0.0014185317559167,0.579361081123352,0.5566465854644775,-0.0016124431276693,0.5947336554527283,0.5118612051010132,-0.0035481739323586,0.6383261680603027,0.584935188293457,0.0415523648262023,0.6460801362991333,0.5274763107299805,0.0309378188103437,0.6405869126319885,0.501056432723999,0.0158686731010675,0.6324710249900818,0.4941844344139099,0.0068899812176823,0.6653347015380859,0.5886476635932922,0.0331399701535701,0.6827136278152466,0.5158576965332031,0.0171541459858417,0.6683319211006165,0.4933536648750305,-0.0021470035426318,0.6431233286857605,0.5024129748344421,-0.010378872975707,0.6911105513572693,0.5998265743255615,0.0201139263808727,0.7126561403274536,0.5264326333999634,0.0059724925085902,0.694048285484314,0.4993327558040619,-0.0070243217051029,0.6659453511238098,0.5031497478485107,-0.010656539350748,0.713066816329956,0.6180301904678345,0.0059988014400005,0.7157721519470215,0.5539635419845581,-0.003374669002369,0.6999073028564453,0.5196495652198792,-0.0096920505166053,0.6779544353485107,0.506858766078949,-0.0110182622447609
2023-08-01 16:24:48.669355,41,251,0.9980701208114624,-0.013117030262947,-0.059949766844511,0.0094824731349945,0.04833984375,0.96533203125,0.10888671875,0.6317530274391174,0.7873631715774536,-1.7606190283459e-07,0.5990338325500488,0.7202688455581665,-0.0019974359311163,0.58617103099823,0.631768524646759,0.000884389039129,0.5786018967628479,0.564132809638977,-0.001962270354852,0.593967616558075,0.5174493789672852,-0.0036086100153625,0.6365975141525269,0.5930857062339783,0.0408843532204628,0.6437826156616211,0.5382781028747559,0.030717397108674,0.6379074454307556,0.5106185674667358,0.0163767654448747,0.6297408938407898,0.50030517578125,0.007736335042864,0.6637688875198364,0.5948594212532043,0.0326102115213871,0.6811981201171875,0.523224413394928,0.017760120332241,0.6662908792495728,0.4980579018592834,-0.0001881925854831,0.6415010690689087,0.5033177733421326,-0.007854588329792,0.6892531514167786,0.6049384474754333,0.0195869542658329,0.710498571395874,0.5324469804763794,0.0054977810941636,0.6908086538314819,0.5049228072166443,-0.0065777245908975,0.6632319092750549,0.5075618624687195,-0.0095357345417141,0.7102442383766174,0.6215752363204956,0.0054290844127535,0.7124211192131042,0.5576187968254089,-0.004240398760885,0.6951766610145569,0.5231456160545349,-0.0102197304368019,0.6731719374656677,0.5105990171432495,-0.0112723959609866
2023-08-01 16:24:48.758405,42,252,0.9982195496559144,-0.0126308118924498,-0.057516973465681,0.0094843488186597,0.07958984375,0.962890625,0.16357421875,0.6304267644882202,0.7838549613952637,-1.7097185889269897e-07,0.5986278653144836,0.7172806262969971,-0.0024647177197039,0.5869360566139221,0.6321829557418823,-0.001051535247825,0.5801317095756531,0.5669397115707397,-0.0048344023525714,0.5912908315658569,0.5167996883392334,-0.0075415093451738,0.63852459192276,0.5929333567619324,0.0351473912596702,0.6470099091529846,0.5374627113342285,0.0240014288574457,0.639366626739502,0.5099929571151733,0.0094694560393691,0.6287221908569336,0.500625729560852,0.0006439525750465,0.6647356152534485,0.5948051810264587,0.0268192682415246,0.6824141144752502,0.5229086875915527,0.0124252531677484,0.6661624312400818,0.4960913360118866,-0.0045750406570732,0.6399195194244385,0.5002239942550659,-0.0124094672501087,0.6889867186546326,0.6061665415763855,0.0140698924660682,0.7120897769927979,0.5301882028579712,0.000112750705739,0.6915568113327026,0.5027254819869995,-0.0107102012261748,0.6632043719291687,0.5062916278839111,-0.0135768642649054,0.708507239818573,0.6252837181091309,0.0001981087989406,0.708432674407959,0.5616893172264099,-0.0114235328510403,0.6893714070320129,0.5289866328239441,-0.0178215857595205,0.6662949323654175,0.5178101658821106,-0.0191048886626958
2023-08-01 16:24:48.830388,43,253,0.998376727104187,-0.0123571418225765,-0.0548616386950016,0.0090243630111217,0.08154296875,0.9658203125,0.1376953125,0.6316686868667603,0.784258246421814,-1.607540696113574e-07,0.598520040512085,0.717616617679596,-0.0042109708301723,0.5863752365112305,0.6313363909721375,-0.0043547782115638,0.5800676345825195,0.5642421841621399,-0.0094479909166693,0.5947150588035583,0.5148102045059204,-0.0134407375007867,0.6374369859695435,0.590941846370697,0.0324837192893028,0.6454001069068909,0.5354076623916626,0.0197013262659311,0.63923180103302,0.5075917840003967,0.0040637338533997,0.6307070255279541,0.4988504350185394,-0.0056343493051826,0.664584219455719,0.593717634677887,0.0245470982044935,0.6824727058410645,0.5215237140655518,0.0075049940496683,0.6671686768531799,0.497680515050888,-0.0112489471212029,0.6424194574356079,0.5057068467140198,-0.0198724046349525,0.6894322037696838,0.6064698100090027,0.0122197084128856,0.7135612368583679,0.5299443006515503,-0.0032705105841159,0.6928110718727112,0.5029222369194031,-0.0153123699128627,0.6644843220710754,0.5072492361068726,-0.0188939683139324,0.7097071409225464,0.6279484033584595,-0.0012756425421684,0.7097964882850647,0.5646507143974304,-0.0138018252328038,0.6913537979125977,0.5312680006027222,-0.0212599895894527,0.669199526309967,0.5196634531021118,-0.0232830792665481
2023-08-01 16:24:48.897758,44,254,0.9984346628189088,-0.0125601822510361,-0.0539825670421123,0.0075114299543201,0.083984375,0.970703125,0.142578125,0.6299723982810974,0.7836878299713135,-1.8323427752875435e-07,0.597578227519989,0.7161272168159485,-0.0022518434561789,0.5857070684432983,0.628949761390686,-0.0005131674697622,0.5796452760696411,0.5621713399887085,-0.0039720074273645,0.5933815836906433,0.5132320523262024,-0.0064456290565431,0.636383593082428,0.5919069647789001,0.0348061695694923,0.644253671169281,0.5363810062408447,0.023326801136136,0.63803631067276,0.5081720352172852,0.0086709866300225,0.6298854947090149,0.498740404844284,-0.0003932132967747,0.6634852290153503,0.5940485596656799,0.0266327671706676,0.6804187297821045,0.5213876962661743,0.0109177408739924,0.6655237674713135,0.4974111318588257,-0.0071102972142398,0.6418682932853699,0.5039095878601074,-0.0153687046840786,0.6889561414718628,0.6056016683578491,0.014228674583137,0.7121380567550659,0.5285441875457764,-0.0006055638659745,0.692175567150116,0.5025206804275513,-0.0125297401100397,0.6648937463760376,0.5074057579040527,-0.016016473993659,0.7098121643066406,0.6253643035888672,0.0008552654762752,0.7097051739692688,0.561178982257843,-0.0108840269967913,0.691271185874939,0.5278164148330688,-0.0179723892360925,0.6693090796470642,0.5160090327262878,-0.0198617186397314
2023-08-01 16:24:48.951547,45,255,0.9984570145606996,-0.0130255045369267,-0.0535674877464771,0.0066694193519651,0.0859375,0.9736328125,0.15576171875,0.6292757987976074,0.7838815450668335,-1.8815357805124225e-07,0.5968222618103027,0.7160873413085938,-0.0029686780180782,0.5850476622581482,0.629768431186676,-0.0023120841942727,0.5783454775810242,0.5637245774269104,-0.0066453064791858,0.5919348001480103,0.5152497291564941,-0.0098591269925236,0.6360839009284973,0.5900866389274597,0.0327405594289302,0.6446453928947449,0.5332394242286682,0.0201768763363361,0.637224018573761,0.5065233111381531,0.0050550322048366,0.6279479265213013,0.4994998574256897,-0.003898010123521,0.663106381893158,0.5930962562561035,0.0248672813177108,0.6802908182144165,0.5204797983169556,0.0090299034491181,0.6645563244819641,0.497042715549469,-0.0085647050291299,0.6401708722114563,0.5036646723747253,-0.0164746791124343,0.6886726021766663,0.6053152084350586,0.012714828364551,0.7130216360092163,0.5285799503326416,-0.0023030717857182,0.6919833421707153,0.502030074596405,-0.0137818735092878,0.6635931730270386,0.5058782696723938,-0.0169011857360601,0.7092481255531311,0.6253344416618347,-0.0004338533326517,0.70843505859375,0.5621920228004456,-0.01238579954952,0.6888204216957092,0.528416633605957,-0.0193302016705274,0.6659120321273804,0.5152866840362549,-0.020960634574294
2023-08-01 16:24:49.010241,46,256,0.9985009431838988,-0.0130810914561152,-0.0528575368225574,0.0055555761791765,0.1103515625,0.9814453125,0.10009765625,0.6299606561660767,0.7858631610870361,-1.8009889402037518e-07,0.596992552280426,0.7170571088790894,-0.00195029808674,0.5855644941329956,0.6300085186958313,-0.0004805364587809,0.5793790817260742,0.5635371208190918,-0.0044752992689609,0.5932281017303467,0.5134742259979248,-0.0074926316738128,0.6360461115837097,0.5918154716491699,0.0357310473918914,0.644962728023529,0.5359835028648376,0.024337550625205,0.6386038661003113,0.5083563923835754,0.0097719160839915,0.6300597190856934,0.4990539252758026,0.0008125542080961,0.6632853746414185,0.5949444770812988,0.0270127207040786,0.6817175149917603,0.5220463275909424,0.0109747033566236,0.6654935479164124,0.4981254637241363,-0.0072211110964417,0.6403315663337708,0.5050162076950073,-0.0153826037421822,0.6885878443717957,0.6067907214164734,0.0140130948275327,0.7135761380195618,0.5294817686080933,-0.0012488736538216,0.6920115947723389,0.5029698014259338,-0.0133978305384516,0.6633729338645935,0.5076559782028198,-0.0167921055108308,0.7090973854064941,0.6258862614631653,7.230531628010795e-05,0.7092612981796265,0.5617014169692993,-0.0121460696682333,0.6895686984062195,0.5280500054359436,-0.0195032246410846,0.6664296984672546,0.516120433807373,-0.0213930122554302
2023-08-01 16:24:49.078975,47,257,0.9985660910606384,-0.0139287235215306,-0.0516429021954536,0.0021531451493501,0.08837890625,0.97998046875,0.13623046875,0.6298503279685974,0.7836958169937134,-2.018253155711136e-07,0.5972128510475159,0.7153253555297852,-0.0010173955233767,0.5854622721672058,0.6293620467185974,0.0011650519445538,0.579142153263092,0.5640681982040405,-0.0021719299256801,0.5916275978088379,0.5149655938148499,-0.0046063871122896,0.6366382241249084,0.5919644236564636,0.036035805940628,0.6442210078239441,0.5355318784713745,0.0249103717505931,0.6373432874679565,0.5085604786872864,0.0106397699564695,0.6284551620483398,0.5011343955993652,0.0020802444778382,0.663674533367157,0.5946512818336487,0.0271830987185239,0.6805318593978882,0.5224191546440125,0.0123406136408448,0.6644576787948608,0.4993875622749328,-0.0049590985290706,0.6395171880722046,0.5073922872543335,-0.0127536104992032,0.6890304684638977,0.6065257787704468,0.0141028668731451,0.7129615545272827,0.529934287071228,-0.0001390493125654,0.6920107007026672,0.503046989440918,-0.0115801831707358,0.6640145778656006,0.5073115229606628,-0.0148476203903555,0.7094022631645203,0.6260306239128113,0.000130963671836,0.7084630131721497,0.5624089241027832,-0.0113755390048027,0.6887903213500977,0.529405951499939,-0.0181089993566274,0.6661151647567749,0.5179586410522461,-0.0197085328400135
