Timestamp,Index,Frame ID,w,x,y,z,ax,ay,az,x_0,y_0,z_0,x_1,y_1,z_1,x_2,y_2,z_2,x_3,y_3,z_3,x_4,y_4,z_4,x_5,y_5,z_5,x_6,y_6,z_6,x_7,y_7,z_7,x_8,y_8,z_8,x_9,y_9,z_9,x_10,y_10,z_10,x_11,y_11,z_11,x_12,y_12,z_12,x_13,y_13,z_13,x_14,y_14,z_14,x_15,y_15,z_15,x_16,y_16,z_16,x_17,y_17,z_17,x_18,y_18,z_18,x_19,y_19,z_19,x_20,y_20,z_20
2023-08-01 16:24:52.281806,0,306,0.9981663823127748,-0.0006880555883981,-0.0550778582692146,0.0250959284603595,0.21826171875,0.97314453125,0.04296875,0.624198317527771,0.7628456354141235,-1.7076870051369045e-07,0.5903183817863464,0.7038460969924927,-0.003187377937138,0.5748081207275391,0.6198214292526245,-0.0016166198765859,0.5660964846611023,0.5543696284294128,-0.0048920139670372,0.5796176791191101,0.5042522549629211,-0.0066547016613185,0.624789834022522,0.5795869827270508,0.0357729084789752,0.6299688816070557,0.5237604379653931,0.0259243138134479,0.6196025609970093,0.4972441792488098,0.0125746857374906,0.6077892184257507,0.4890680313110351,0.0045063644647598,0.6494231820106506,0.5800300240516663,0.0287727359682321,0.6635204553604126,0.5096992254257202,0.016772199422121,0.6451883316040039,0.4844249188899994,0.001526710926555,0.6188368201255798,0.4884704649448395,-0.0055907922796905,0.6729854345321655,0.5891234874725342,0.0172162503004074,0.6935198307037354,0.5145857930183411,0.004951290320605,0.6715618968009949,0.4889857769012451,-0.0049994201399385,0.6431978344917297,0.4928404092788696,-0.0077170622535049,0.6931972503662109,0.6047327518463135,0.0044656614772975,0.6933671236038208,0.5438451170921326,-0.0060792723670601,0.6730217337608337,0.5128117203712463,-0.0122963842004537,0.6491982936859131,0.5027754902839661,-0.0138147203251719
2023-08-01 16:24:52.362483,1,307,0.9985918402671814,-0.0114418696612119,-0.0513326786458492,0.0069529404863715,0.203125,0.96484375,0.1015625,0.6244298219680786,0.7628579139709473,-1.5576797807170808e-07,0.5898734331130981,0.7017489075660706,-0.0026250653900206,0.5751806497573853,0.6185705065727234,-0.0009656432666815,0.566246509552002,0.5538610816001892,-0.0044954740442335,0.5800906419754028,0.5048401355743408,-0.0066245393827557,0.6250002384185791,0.579383909702301,0.0370317064225673,0.6301250457763672,0.5243578553199768,0.0271815042942762,0.6209218502044678,0.4975551068782806,0.0136554194614291,0.6112674474716187,0.4888082146644592,0.0054277456365525,0.6498950719833374,0.5794243216514587,0.0294428691267967,0.6658678650856018,0.5089568495750427,0.0170681439340114,0.6483370661735535,0.4841040372848511,0.0018098583677783,0.623435378074646,0.4896434545516968,-0.0049789613112807,0.6738250851631165,0.5883834958076477,0.0172523278743028,0.6948018074035645,0.5137855410575867,0.0047484659589827,0.6720086336135864,0.488269954919815,-0.0049910685047507,0.6442149877548218,0.4936392307281494,-0.0072022024542093,0.6940061450004578,0.6044946908950806,0.0038538556545972,0.6945077776908875,0.5421093106269836,-0.0065045258961617,0.6735897064208984,0.5108547210693359,-0.0122334826737642,0.6499876976013184,0.5023613572120667,-0.0132008846849203
2023-08-01 16:24:52.444524,2,308,0.9986065626144408,-0.024688521400094,-0.0433307439088821,-0.0172584690153598,0.02197265625,0.958984375,0.21435546875,0.6239706873893738,0.7547318339347839,-1.810647631828033e-07,0.591079592704773,0.6923781037330627,8.264829375548288e-05,0.5774237513542175,0.6068549752235413,0.0037746862508356,0.5690675973892212,0.540926456451416,0.0018450987990945,0.5797601342201233,0.4908762872219085,0.0014977296814322,0.6296179294586182,0.5667062401771545,0.0417135022580623,0.6345508694648743,0.5135290622711182,0.0343962050974369,0.6247485280036926,0.4885641634464264,0.0219163969159126,0.6126291751861572,0.4783092737197876,0.0138577129691839,0.6537721157073975,0.5669918656349182,0.0332424268126487,0.6653432846069336,0.4998286962509155,0.0234505478292703,0.6474776864051819,0.4756595492362976,0.0085517950356006,0.6215475797653198,0.478525698184967,0.0013667964376509,0.6768603324890137,0.5764621496200562,0.0202824287116527,0.694473385810852,0.5042213201522827,0.0097533715888857,0.6725354194641113,0.4780753850936889,0.0003803424770012,0.6438040137290955,0.4810680449008941,-0.0020340660121291,0.6972206830978394,0.5932459235191345,0.0062135159969329,0.7003800272941589,0.5293305516242981,-0.002853421960026,0.681064248085022,0.4946313500404358,-0.0081278700381517,0.6567359566688538,0.4826840460300445,-0.0090315891429781
2023-08-01 16:24:52.520541,3,309,0.9980294704437256,-0.0338008552789688,-0.0385087803006172,-0.0362189710140228,0.041015625,0.99755859375,0.1826171875,0.6303984522819519,0.74215167760849,-1.792910921949442e-07,0.5963847637176514,0.6747745871543884,-0.0004791001265402,0.5830676555633545,0.5881839990615845,0.0023244188632816,0.5732672214508057,0.5200962424278259,-0.0005463817506097,0.5853171348571777,0.4719842970371246,-0.0022458315361291,0.6371642351150513,0.5514889359474182,0.0390275977551937,0.6429480910301208,0.4962202906608581,0.030451463535428,0.6333118677139282,0.4683762788772583,0.0171591714024543,0.6209880709648132,0.4552811980247497,0.0082470308989286,0.663033127784729,0.553419291973114,0.0298709701746702,0.6774231195449829,0.4845506250858307,0.0169061105698347,0.6585251092910767,0.457158088684082,-0.0003461864544078,0.630427896976471,0.4560416638851166,-0.0088394563645124,0.6882166266441345,0.5644304156303406,0.0164451617747545,0.7103172540664673,0.4891018867492676,0.0019793841056525,0.6866381764411926,0.4640984535217285,-0.0100871790200471,0.6560525298118591,0.4679263830184936,-0.0136554539203643,0.7093104720115662,0.5820794105529785,0.0021811029873788,0.7080230712890625,0.5173694491386414,-0.0109644420444965,0.6844847202301025,0.4846823215484619,-0.0187397953122854,0.6578897833824158,0.4741056263446808,-0.0209838952869176
2023-08-01 16:24:52.594146,4,310,0.9971255660057068,-0.0454252548515796,-0.0341931022703647,-0.0500792562961578,0.01708984375,0.95751953125,0.17822265625,0.6330556273460388,0.7333865761756897,-1.944581384805133e-07,0.5992783308029175,0.6649400591850281,-0.0012664879905059,0.587051510810852,0.5766504406929016,0.0004654164076782,0.5787166357040405,0.5072091221809387,-0.0034874796401709,0.5907132029533386,0.4536843001842499,-0.0060457773506641,0.6446215510368347,0.5366876125335693,0.0403479263186454,0.651751697063446,0.4760286509990692,0.0289485771209001,0.6392920017242432,0.4488911032676697,0.0131997028365731,0.6241175532341003,0.442127525806427,0.0037293913774192,0.6709027886390686,0.5391110777854919,0.0309844817966222,0.6872440576553345,0.4653671085834503,0.0172536578029394,0.6666946411132812,0.4376026093959808,-0.0011678395094349,0.636496901512146,0.4403084218502044,-0.0099701881408691,0.6956936120986938,0.5519675016403198,0.016825208440423,0.7202193737030029,0.4734116494655609,0.0026753440033644,0.6959247589111328,0.4446899890899658,-0.0098614376038312,0.6640534400939941,0.4468314051628113,-0.0136977545917034,0.7161192893981934,0.572719156742096,0.0016619981033727,0.7149847745895386,0.504829466342926,-0.0113820508122444,0.6922021508216858,0.4690893888473511,-0.0193041265010833,0.6661962866783142,0.4557856619358063,-0.0213493388146162
2023-08-01 16:24:52.665044,5,311,0.995040774345398,-0.0658640787005424,-0.0303512010723352,-0.0680786967277526,-0.08251953125,0.9365234375,0.283203125,0.6308778524398804,0.7306769490242004,-2.1977074027290655e-07,0.5966088771820068,0.660588800907135,-0.0027328957803547,0.5844566822052002,0.5677617192268372,-0.0013735740212723,0.5775793194770813,0.496441900730133,-0.0055852141231298,0.5917548537254333,0.4416451156139374,-0.0081152468919754,0.6452088356018066,0.5297476053237915,0.0382121391594409,0.6520178914070129,0.4655333161354065,0.0246726479381322,0.63914954662323,0.4363533854484558,0.0081383483484387,0.6237826347351074,0.4321468770503998,-0.0010971544543281,0.6725901365280151,0.5320255160331726,0.0295334383845329,0.6875917315483093,0.4547832012176513,0.0154542429372668,0.6667311787605286,0.4251189827919006,-0.0015621109632775,0.6360160112380981,0.4298837184906006,-0.0092971762642264,0.698371946811676,0.5452985763549805,0.0157083421945571,0.7225840091705322,0.4632335305213928,0.0011201447341591,0.6980841755867004,0.4321971237659454,-0.009105360135436,0.6651569604873657,0.4354548454284668,-0.011081620119512,0.7196447253227234,0.5669277310371399,0.0006037413841113,0.7207258939743042,0.4960450530052185,-0.0127961840480566,0.6979453563690186,0.4592109322547912,-0.0192392989993095,0.6701486110687256,0.4468024969100952,-0.0197977684438228
2023-08-01 16:24:52.723970,6,312,0.9931889176368712,-0.0795336887240409,-0.0188338104635477,-0.0830390304327011,-0.27392578125,0.8955078125,0.29345703125,0.6299698352813721,0.7277334928512573,-2.544421988659451e-07,0.5958247184753418,0.654720664024353,-0.0017425460973754,0.5839273929595947,0.5617832541465759,-0.0004912025178782,0.5772832036018372,0.4896143674850464,-0.0053492402657866,0.5901633501052856,0.4328807592391968,-0.0088709769770503,0.6469058990478516,0.5222876667976379,0.0407133661210536,0.6550092101097107,0.4583974182605743,0.026960052549839,0.6416244506835938,0.4290673732757568,0.0093485489487648,0.6250686049461365,0.4223393499851227,-0.0010813820408657,0.6745096445083618,0.5259900093078613,0.0307184141129255,0.6907482743263245,0.4485200643539428,0.0152895059436559,0.6694411039352417,0.4194444417953491,-0.0040692524053156,0.6381896138191223,0.4212753772735595,-0.0136837782338261,0.7007163166999817,0.540019154548645,0.0155647862702608,0.725571870803833,0.455165296792984,-0.0006783173303119,0.7004553079605103,0.4235004782676697,-0.0129119623452425,0.6669309735298157,0.4241929054260254,-0.0164070297032594,0.7223552465438843,0.5623894333839417,-0.0006794372457079,0.7221483588218689,0.4877717792987823,-0.0154091222211718,0.698208212852478,0.4506891667842865,-0.0227857641875743,0.6697065234184265,0.4371746778488159,-0.0242876950651407
2023-08-01 16:24:52.788215,7,313,0.9909409880638124,-0.0941788703203201,-0.0243586711585521,-0.0925901681184768,-0.04052734375,0.8935546875,0.4326171875,0.6296454668045044,0.7062257528305054,-1.3326702230642698e-07,0.5893539190292358,0.6344987750053406,-0.0050240671262145,0.5756841897964478,0.5335241556167603,-0.0042263553477823,0.5687470436096191,0.4571130275726318,-0.0083044413477182,0.5811011791229248,0.3977459073066711,-0.0108527075499296,0.6412754058837891,0.4926957488059997,0.033658392727375,0.6534057259559631,0.4235265552997589,0.0211191773414611,0.645420491695404,0.3883836269378662,0.0050101005472242,0.6320475935935974,0.3788683414459228,-0.0047710863873362,0.673356294631958,0.4957126379013061,0.0254033748060464,0.6919102072715759,0.4111500382423401,0.0116528905928134,0.6739048361778259,0.3727743029594421,-0.0058983596973121,0.6428909301757812,0.3717660903930664,-0.0148066524416208,0.702088475227356,0.5104457139968872,0.0120300538837909,0.7314598560333252,0.4161245226860046,-0.0032000883948057,0.709112823009491,0.3789786100387573,-0.016019182279706,0.6764436960220337,0.3791733384132385,-0.020546305924654,0.7249413132667542,0.5346785187721252,-0.0026213373057544,0.7262880802154541,0.4573945999145508,-0.019713032990694,0.701583206653595,0.4168134033679962,-0.029964156448841,0.6712629795074463,0.4029240012168884,-0.0333887487649917
2023-08-01 16:24:52.847844,8,314,0.9888567328453064,-0.1048134416341781,-0.014708106406033,-0.104690782725811,-0.1025390625,0.8994140625,0.42138671875,0.6262854933738708,0.7101653218269348,-2.393964280145156e-07,0.5863952040672302,0.6337825059890747,-0.0042930687777698,0.5744430422782898,0.5282552242279053,-0.004905255511403,0.5654506683349609,0.4497662484645843,-0.0109006483107805,0.5769695043563843,0.3917821049690246,-0.0150786563754081,0.6429254412651062,0.4805652499198913,0.0322469808161258,0.6548343896865845,0.4051908254623413,0.0134848458692431,0.6411551833152771,0.3728610873222351,-0.0061374884098768,0.6246792674064636,0.3740628361701965,-0.0166596304625272,0.6750256419181824,0.4873986840248108,0.0222558565437793,0.6987106800079346,0.3991396129131317,0.0034569690469652,0.6753973364830017,0.3636016547679901,-0.0160402879118919,0.6417385935783386,0.3694998621940613,-0.0249579679220914,0.7049872279167175,0.5061984062194824,0.0069438875652849,0.7389394640922546,0.4096716046333313,-0.0116011779755353,0.7104859948158264,0.3700622916221618,-0.0245025977492332,0.6743622422218323,0.3718156814575195,-0.0280596259981393,0.7276822328567505,0.533397912979126,-0.0095265051349997,0.7272157669067383,0.452911764383316,-0.0270906500518322,0.6993588209152222,0.4100413024425506,-0.0364778377115726,0.6686393022537231,0.3949617743492126,-0.0387671440839767
2023-08-01 16:24:52.914986,9,315,0.9860949516296388,-0.1159578785300254,-0.0171536337584257,-0.1177977100014686,-0.13623046875,0.89892578125,0.36669921875,0.6242532730102539,0.7157029509544373,-2.694447118756216e-07,0.5843485593795776,0.6374171376228333,-0.0038796660955995,0.5705390572547913,0.5263921618461609,-0.0025477844756096,0.560940146446228,0.4446879625320434,-0.0074866516515612,0.5725799798965454,0.383544921875,-0.0099710691720247,0.6414844989776611,0.4767184555530548,0.0412299521267414,0.6521477103233337,0.397653728723526,0.0239203423261642,0.6369642019271851,0.3649324178695678,0.0045343996025621,0.6167563199996948,0.366344690322876,-0.0054746652022004,0.6738362312316895,0.4817321300506592,0.0310870744287967,0.6969249844551086,0.3929693698883056,0.0136545645073056,0.6734297871589661,0.3571078181266784,-0.0056139794178307,0.636992871761322,0.3647763133049011,-0.0137768648564815,0.7037317156791687,0.4986754655838012,0.01484558545053,0.7382791638374329,0.4033246636390686,-0.0027954285033047,0.7119322419166565,0.3653305768966675,-0.015450982376933,0.6753580570220947,0.3706519901752472,-0.0183138791471719,0.7269184589385986,0.5230522751808167,-0.0029151402413845,0.729141116142273,0.4437271654605865,-0.0198687594383955,0.7011405825614929,0.4028048813343048,-0.0288560260087251,0.6684287190437317,0.3919862508773803,-0.0303925666958093
2023-08-01 16:24:52.977053,10,316,0.983576238155365,-0.1242179274559021,-0.0203994996845722,-0.129350408911705,-0.18310546875,0.9228515625,0.373046875,0.6181344389915466,0.7150464057922363,-2.653165722676931e-07,0.5734567046165466,0.63255774974823,-0.0027015525847673,0.5568308234214783,0.5143414735794067,-0.0002647911314852,0.5472970604896545,0.4265075623989105,-0.0042075021192431,0.5551259517669678,0.355979323387146,-0.0062694521620869,0.6319880485534668,0.4615570306777954,0.0460308827459812,0.6419179439544678,0.3831552565097809,0.0329262055456638,0.6276818513870239,0.3480974435806274,0.0141238663345575,0.6074846982955933,0.3378013372421264,0.0025015650317072,0.6678279042243958,0.4670479893684387,0.0349679701030254,0.6865545511245728,0.376164436340332,0.019047487527132,0.6625437140464783,0.3403732478618622,-0.0032778410241007,0.6246300935745239,0.3408239483833313,-0.0147597398608922,0.7004573345184326,0.484987199306488,0.0182291977107524,0.733326256275177,0.3842082619667053,0.000636801123619,0.7068327069282532,0.3460204005241394,-0.0146111296489834,0.6679542064666748,0.3472437262535095,-0.0198024325072765,0.726254403591156,0.5120024681091309,0.0003035511181224,0.7272375822067261,0.4247815608978271,-0.0176429376006126,0.6994915008544922,0.3774494528770447,-0.0280785057693719,0.6655260920524597,0.3583706021308899,-0.0311087742447853
2023-08-01 16:24:53.035055,11,317,0.980579137802124,-0.134310245513916,-0.0258924290537834,-0.1405519545078277,-0.13525390625,0.8505859375,0.37646484375,0.6160513758659363,0.7207896709442139,-2.841677826381783e-07,0.5714004039764404,0.6322852373123169,-0.0046267909929156,0.5550084114074707,0.5118448734283447,-0.0049102301709353,0.5446962118148804,0.4198234379291534,-0.0120883053168654,0.5592987537384033,0.3478942513465881,-0.0174737516790628,0.6341362595558167,0.4545073509216308,0.0465617068111896,0.6450074911117554,0.3755150139331817,0.0300911273807287,0.6307483315467834,0.3397353887557983,0.009012272581458,0.6120301485061646,0.3300393521785736,-0.0038516211789101,0.6719602346420288,0.4622790515422821,0.0348086506128311,0.6916624307632446,0.3656579256057739,0.015968395397067,0.6649396419525146,0.3304276466369629,-0.0074878893792629,0.6259435415267944,0.3331696987152099,-0.0190185122191905,0.7066687345504761,0.4829590022563934,0.0167858116328716,0.7417929172515869,0.3731344640254974,-0.0039244918152689,0.7101452946662903,0.3333105444908142,-0.0189411882311105,0.6680123805999756,0.3362662196159363,-0.0230097379535436,0.7341659069061279,0.5135608315467834,-0.0026199263520538,0.7328474521636963,0.4179260730743408,-0.0235001035034656,0.7011736035346985,0.3715491890907287,-0.0339821651577949,0.6651645302772522,0.3569001257419586,-0.0361229479312896
2023-08-01 16:24:53.095568,12,318,0.977781057357788,-0.143331840634346,-0.0225324220955371,-0.1513026505708694,-0.28076171875,0.84814453125,0.44873046875,0.6160920262336731,0.7302136421203613,-2.975559709739173e-07,0.572452187538147,0.6361274719238281,-0.00527223944664,0.5558544993400574,0.5114927887916565,-0.0058592488057911,0.5458918213844299,0.4148939251899719,-0.0135405864566564,0.5631556510925293,0.3418401181697845,-0.0193281732499599,0.632638692855835,0.454740971326828,0.045679360628128,0.6430123448371887,0.3718331456184387,0.0269881971180439,0.6307076215744019,0.3317319750785827,0.0043252250179648,0.6133221983909607,0.3189823031425476,-0.0099954176694154,0.6724149584770203,0.4600847363471985,0.0330598279833793,0.6946969032287598,0.3575012683868408,0.0097716487944126,0.6688860654830933,0.3173227906227112,-0.0164433550089597,0.6274120211601257,0.3178287446498871,-0.0294254645705223,0.7085880041122437,0.4804077446460724,0.0140302656218409,0.7469719648361206,0.366525799036026,-0.009868380613625,0.7159038782119751,0.327591061592102,-0.026643356308341,0.6711493134498596,0.3312850594520569,-0.0316851921379566,0.7375577092170715,0.5119398832321167,-0.0064905905164778,0.7351672053337097,0.4195316135883331,-0.0289286226034164,0.7032719850540161,0.3724858462810516,-0.0412953570485115,0.6655727028846741,0.35500568151474,-0.0450319349765777
2023-08-01 16:24:53.155765,13,319,0.9750852584838868,-0.1520842909812927,-0.0197122823446989,-0.1602824479341507,-0.28125,0.8251953125,0.45654296875,0.6309685111045837,0.7312638163566589,-1.6776354527792137e-07,0.5821118354797363,0.6377030611038208,-0.0128999408334493,0.5636646151542664,0.5038292407989502,-0.0157973747700452,0.5545229315757751,0.3994130790233612,-0.0247633308172225,0.5716190934181213,0.3176968693733215,-0.0312759391963481,0.6415203809738159,0.4324275851249695,0.045729923993349,0.6545130014419556,0.34888756275177,0.0253790169954299,0.6449093222618103,0.3068364858627319,2.346390647289809e-05,0.6288869976997375,0.2915963530540466,-0.0159238819032907,0.6840434670448303,0.4378724992275238,0.0355761721730232,0.7145795822143555,0.3327891230583191,0.0101780202239751,0.6904555559158325,0.2892438769340515,-0.0178805440664291,0.6478320360183716,0.2922582626342773,-0.03070386685431,0.7212089896202087,0.4600880742073059,0.0177424643188714,0.763135552406311,0.3472805917263031,-0.0069166282191872,0.7343930602073669,0.3035722374916076,-0.0248341877013444,0.6901553273200989,0.3070902526378631,-0.0295538734644651,0.7512521147727966,0.4960826933383941,-0.0025323932059109,0.756568968296051,0.3983319997787475,-0.0248887110501527,0.7280162572860718,0.3451173901557922,-0.0369947999715805,0.6903680562973022,0.3262127041816711,-0.0398659519851207
2023-08-01 16:24:53.223274,14,320,0.9718915820121764,-0.1596598327159881,-0.0187366679310798,-0.1720013171434402,-0.2490234375,0.8134765625,0.4853515625,0.6315799951553345,0.7438423037528992,-2.409906301181764e-07,0.5814510583877563,0.6480680108070374,-0.0131348725408315,0.5618451833724976,0.5036213397979736,-0.0163774732500314,0.554036021232605,0.3930768072605133,-0.0257257726043462,0.576324462890625,0.308770477771759,-0.0323601327836513,0.6430135369300842,0.4338536262512207,0.0434467867016792,0.658588171005249,0.3461294770240783,0.0184851419180631,0.6460684537887573,0.3003751337528229,-0.0101344063878059,0.6242914199829102,0.2855624556541443,-0.0275759790092706,0.6877269148826599,0.4395261406898498,0.0330788195133209,0.7147451639175415,0.3303917050361633,0.0039839339442551,0.6885274052619934,0.2835575342178345,-0.0272059366106987,0.6430588364601135,0.2872792482376098,-0.0423809774219989,0.7270625829696655,0.4609976410865783,0.0149881746619939,0.7682279944419861,0.3407647311687469,-0.0122180487960577,0.7388060092926025,0.2913465201854706,-0.0315163619816303,0.691710889339447,0.293201744556427,-0.0372019931674003,0.7595177888870239,0.4960477352142334,-0.0055166562087833,0.7655608654022217,0.3943959176540375,-0.0298281218856573,0.7405270338058472,0.3369958400726318,-0.0434234291315078,0.7042621374130249,0.3150679469108581,-0.0472829043865203
2023-08-01 16:24:53.284970,15,321,0.9695626497268676,-0.1649896055459976,-0.0199677683413028,-0.1797999441623687,-0.3203125,0.8203125,0.5126953125,0.633956789970398,0.7531540393829346,-2.2811738631389747e-07,0.5827414989471436,0.6507459878921509,-0.0107895610854029,0.5631895661354065,0.5054255723953247,-0.0131873153150081,0.5550034642219543,0.3929653763771057,-0.0227255709469318,0.576105535030365,0.3055590391159057,-0.0295737106353044,0.6444592475891113,0.4308103621006012,0.050832126289606,0.6595337986946106,0.3400698006153106,0.0265705119818449,0.6496825218200684,0.2956108152866363,-0.0018685435643419,0.6303707957267761,0.2836753129959106,-0.0187989473342895,0.6905855536460876,0.4374313056468963,0.0388784743845462,0.7171597480773926,0.3248979449272156,0.0098291784524917,0.6950972676277161,0.2778964042663574,-0.0227303430438041,0.6517298221588135,0.2832232713699341,-0.0382886677980423,0.7306828498840332,0.4601912498474121,0.0189137328416109,0.7725483775138855,0.3378976583480835,-0.0088833374902606,0.7465306520462036,0.2855989933013916,-0.0294948983937501,0.7000353336334229,0.2863441109657287,-0.0355463474988937,0.7634034752845764,0.4958339333534241,-0.0032695003319531,0.7652114629745483,0.3939874172210693,-0.0290188398212194,0.7397658228874207,0.3338574171066284,-0.044029127806425,0.702825129032135,0.308121383190155,-0.0482591092586517
2023-08-01 16:24:53.345139,16,322,0.9677284955978394,-0.1681196540594101,-0.016884533688426,-0.1869549751281738,-0.3720703125,0.841796875,0.50439453125,0.6338558197021484,0.7603520154953003,-2.4216186034209386e-07,0.5832007527351379,0.6520639061927795,-0.0101334359496831,0.5644091367721558,0.5050260424613953,-0.0125995781272649,0.5552126169204712,0.3923302292823791,-0.0225706249475479,0.5744044780731201,0.3018410801887512,-0.0299635194242,0.6479989290237427,0.4295730590820312,0.0517902597784996,0.6637136340141296,0.3355399370193481,0.0262005403637886,0.6520408391952515,0.2895533740520477,-0.0038643099833279,0.6305602192878723,0.2785332798957824,-0.0218218471854925,0.6948102712631226,0.4379602372646332,0.0385143719613552,0.723185122013092,0.3210296630859375,0.0071577792987227,0.6991394758224487,0.2741553783416748,-0.0279297176748514,0.6535353660583496,0.2828645706176758,-0.0449717007577419,0.735139012336731,0.4626583158969879,0.0172336436808109,0.7784420251846313,0.3358490169048309,-0.0120027288794517,0.7499301433563232,0.2834358811378479,-0.0344079583883285,0.7015917301177979,0.285976231098175,-0.041576113551855,0.7676514983177185,0.5009594559669495,-0.0061735804192721,0.7694215774536133,0.3957778811454773,-0.032744001597166,0.7417262196540833,0.334399551153183,-0.048523548990488,0.7028704285621643,0.3088563084602356,-0.0533389076590538
2023-08-01 16:24:53.406990,17,323,0.9669412970542908,-0.1690865755081176,-0.0156457405537366,-0.1902351975440979,-0.29248046875,0.86083984375,0.4873046875,0.6434264183044434,0.7827008962631226,-2.252643298561452e-07,0.5916697382926941,0.6754934787750244,-0.0120425727218389,0.5747292637825012,0.5139715671539307,-0.0114226434379816,0.5660982728004456,0.3950551450252533,-0.0180249940603971,0.581373393535614,0.3033730983734131,-0.0215563122183084,0.6608134508132935,0.4305126667022705,0.05629663169384,0.6794027090072632,0.3373318314552307,0.0344415381550788,0.6718620657920837,0.2924520373344421,0.005602145101875,0.6534790992736816,0.2767533957958221,-0.0127741396427154,0.7098022103309631,0.4387764036655426,0.0440285243093967,0.7420492768287659,0.3209147453308105,0.0162288639694452,0.7228633165359497,0.2717272341251373,-0.0179375950247049,0.6788683533668518,0.2767751812934875,-0.0349505469202995,0.7526402473449707,0.4658530056476593,0.0231594890356063,0.8002544641494751,0.3408065736293793,-0.003996786661446,0.7760232090950012,0.2842496633529663,-0.0267241112887859,0.7279221415519714,0.2840656042098999,-0.0346362218260765,0.787384033203125,0.5079951286315918,-0.0003511434188112,0.794744610786438,0.4012151062488556,-0.0265878066420555,0.7694790959358215,0.338460624217987,-0.0429690405726432,0.7306890487670898,0.3137224912643432,-0.0484337322413921
2023-08-01 16:24:53.470384,18,324,0.9667824506759644,-0.1688819229602813,-0.0149615863338112,-0.191276267170906,-0.29931640625,0.83349609375,0.49560546875,0.6463375091552734,0.79742431640625,-2.313921498853233e-07,0.593756914138794,0.6836469173431396,-0.0129081830382347,0.5757976770401001,0.5223390460014343,-0.0158454775810241,0.5675543546676636,0.4010264873504638,-0.0260243546217679,0.5895254611968994,0.3059971630573272,-0.0330390073359012,0.6632381081581116,0.4369406998157501,0.051169566810131,0.684717059135437,0.3394301533699035,0.0234629176557064,0.6777313351631165,0.2912301421165466,-0.0079755214974284,0.6592879891395569,0.2796850502490997,-0.0265553761273622,0.7147442698478699,0.4490635991096496,0.0380301401019096,0.7528864145278931,0.3277876377105713,0.0046125915832817,0.7311192154884338,0.2809603810310364,-0.0306414272636175,0.6841107606887817,0.2945390343666076,-0.0465876869857311,0.7583727240562439,0.478341668844223,0.0162858366966247,0.809293270111084,0.3463967144489288,-0.0137511231005191,0.780816912651062,0.2895198762416839,-0.0351386591792106,0.7303580045700073,0.2931605875492096,-0.0410392135381698,0.7928667068481445,0.5216731429100037,-0.0080992728471755,0.794541597366333,0.4119501709938049,-0.0356942787766456,0.7663426995277405,0.3496921062469482,-0.0512954369187355,0.7273221611976624,0.3266338407993316,-0.055131621658802
2023-08-01 16:24:53.542687,19,325,0.9669913053512572,-0.1680072396993637,-0.0132110025733709,-0.1911198794841766,-0.30126953125,0.833984375,0.484375,0.6463356018066406,0.7988219261169434,-1.9466203582396704e-07,0.5954391360282898,0.6852388978004456,-0.0155955804511904,0.5767674446105957,0.529631495475769,-0.0208366364240646,0.5678614377975464,0.4096918106079101,-0.0330158174037933,0.5894848704338074,0.3180758059024811,-0.0422152243554592,0.6615816950798035,0.4387978613376617,0.0449487529695034,0.6808359026908875,0.3408713340759277,0.0155403688549995,0.6750268936157227,0.2924273014068603,-0.0164755936712026,0.6603153347969055,0.2810391783714294,-0.0353277139365673,0.7149184346199036,0.44963338971138,0.0325606800615787,0.7525168061256409,0.3256893455982208,-0.0030075085815042,0.7306955456733704,0.2796211838722229,-0.0382464602589607,0.6861382722854614,0.2966856360435486,-0.0537934526801109,0.7595824599266052,0.4789824485778808,0.0116704618558287,0.8105125427246094,0.3457100987434387,-0.0200673546642065,0.7802703380584717,0.2911628484725952,-0.0409836657345294,0.7300156354904175,0.298707902431488,-0.0461186245083808,0.7941254377365112,0.5241585969924927,-0.0119964405894279,0.7988710999488831,0.4136578142642975,-0.0398025959730148,0.7705103754997253,0.3518867492675781,-0.0543792955577373,0.7309799790382385,0.3315528631210327,-0.0572981461882591
2023-08-01 16:24:53.622257,20,326,0.9676087498664856,-0.1661395728588104,-0.0126737067475914,-0.1896587461233139,-0.31103515625,0.81005859375,0.49072265625,0.6434981226921082,0.8086056709289551,-2.056051613408272e-07,0.5939490795135498,0.6861480474472046,-0.0148053728044033,0.5748888850212097,0.5361176133155823,-0.0209491960704326,0.5665961503982544,0.4168673753738403,-0.0343774557113647,0.5874893069267273,0.3248888552188873,-0.045143362134695,0.6588299870491028,0.4477764368057251,0.0459847636520862,0.6768763065338135,0.3524142205715179,0.0164717603474855,0.6707876324653625,0.3014706373214721,-0.0170374568551778,0.6570647954940796,0.2824691534042358,-0.0380021035671234,0.7126323580741882,0.4584776163101196,0.0326804853975772,0.7497346997261047,0.3324674367904663,-0.0046403184533119,0.7265452146530151,0.2872236371040344,-0.0421013459563255,0.681247353553772,0.302312284708023,-0.0596976205706596,0.75810706615448,0.4869338572025299,0.0110736852511763,0.8119423389434814,0.350793719291687,-0.0216150823980569,0.7796362638473511,0.2973576188087463,-0.0447313822805881,0.7272449731826782,0.3065864443778991,-0.0517102591693401,0.7936751246452332,0.5321319103240967,-0.0133268181234598,0.8028363585472107,0.4205615520477295,-0.0410139374434948,0.7729460000991821,0.35840904712677,-0.0569253526628017,0.7300359010696411,0.3391759991645813,-0.0614580772817134
2023-08-01 16:24:53.698209,21,327,0.9691491723060608,-0.1613826155662536,-0.0126778110861778,-0.1858619600534439,-0.31591796875,0.83154296875,0.490234375,0.6422534584999084,0.8079421520233154,-2.17980925754091e-07,0.5944905281066895,0.689545750617981,-0.0146648315712809,0.5760061144828796,0.5355544686317444,-0.0194472819566726,0.5675669312477112,0.4162372052669525,-0.0316076353192329,0.5879608392715454,0.3250249922275543,-0.0409455001354217,0.6571645736694336,0.4417219460010528,0.0486755818128585,0.675938606262207,0.3471395969390869,0.0198329947888851,0.6707720160484314,0.3007463216781616,-0.0129829598590731,0.6568049788475037,0.2854266166687011,-0.0327183119952678,0.7105920314788818,0.4519575238227844,0.0362886525690555,0.7458820343017578,0.3288211226463318,0.0010396145517006,0.7241477370262146,0.2871510684490204,-0.03500721976161,0.6796116828918457,0.3023692369461059,-0.0512669384479522,0.7563149929046631,0.4805273413658142,0.0153145547956228,0.8075793385505676,0.3491836786270141,-0.0167507473379373,0.7782236933708191,0.2992889285087585,-0.0395627655088901,0.7282181978225708,0.3084011971950531,-0.0457902215421199,0.7921473383903503,0.5257391929626465,-0.0083235725760459,0.8019512295722961,0.4148711264133453,-0.0345734469592571,0.7737923860549927,0.3535761833190918,-0.0491347201168537,0.7332030534744263,0.3330134749412536,-0.052500769495964
2023-08-01 16:24:53.779491,22,328,0.9721357226371764,-0.152724489569664,-0.0138980355113744,-0.1772968620061874,-0.3115234375,0.8505859375,0.4970703125,0.6429517269134521,0.803613543510437,-2.5665883640613174e-07,0.5951970815658569,0.6855524182319641,-0.011703205294907,0.5790823101997375,0.5315982699394226,-0.0144742345437407,0.5720757246017456,0.4160373210906982,-0.0250695217400789,0.5879640579223633,0.3242277503013611,-0.0329974666237831,0.6641268134117126,0.4393780529499054,0.0505878403782844,0.6830448508262634,0.3447290062904358,0.0232064258307218,0.6753524541854858,0.2999783158302307,-0.0083624385297298,0.6582225561141968,0.2854213416576385,-0.0271179862320423,0.7148293256759644,0.4484880566596985,0.0371123924851417,0.7500637769699097,0.3250029385089874,0.0028597984928637,0.7263736128807068,0.2858525812625885,-0.0322114527225494,0.6807616949081421,0.3021356165409088,-0.0476084314286708,0.7580220103263855,0.4755428433418274,0.0154354898259043,0.8078915476799011,0.3455076813697815,-0.0149955134838819,0.7767422199249268,0.299273818731308,-0.0368992574512958,0.7264147400856018,0.3092776536941528,-0.0427086539566516,0.7917718887329102,0.5197128057479858,-0.0087784081697463,0.803418755531311,0.4098052084445953,-0.0323692448437213,0.7764657735824585,0.3502122461795807,-0.0453662388026714,0.7374371290206909,0.3295357823371887,-0.0481033436954021
2023-08-01 16:24:53.846207,23,329,0.975458562374115,-0.142835646867752,-0.0161944273859262,-0.1667820513248443,-0.27734375,0.83837890625,0.48974609375,0.6424421668052673,0.8034675121307373,-2.703332313558349e-07,0.5953330397605896,0.6826891303062439,-0.0106764631345868,0.5794625282287598,0.53144371509552,-0.0132703119888901,0.5718098282814026,0.4177633821964264,-0.0236424412578344,0.586603045463562,0.3283539414405823,-0.0314815863966941,0.6595702171325684,0.4439091086387634,0.0484730899333953,0.6769121289253235,0.3496922850608825,0.0215757265686988,0.6712074279785156,0.3024566173553467,-0.0093421135097742,0.657122790813446,0.2855610847473144,-0.027982136234641,0.7112249135971069,0.453917533159256,0.0345448032021522,0.7464421987533569,0.3326461911201477,0.0009601971250958,0.7228474617004395,0.2928776144981384,-0.0328555069863796,0.6778480410575867,0.3073985576629638,-0.0479557812213897,0.755397379398346,0.4812257587909698,0.0126798180863261,0.8093709349632263,0.3510497808456421,-0.0171156246215105,0.7780516147613525,0.3006898164749145,-0.0382286012172699,0.7274539470672607,0.3078644871711731,-0.0441611371934413,0.7890422344207764,0.525439977645874,-0.0116498908028006,0.8020193576812744,0.4175286889076233,-0.0353686176240444,0.7728304862976074,0.3565534353256225,-0.0483187660574913,0.7313103079795837,0.3352707624435425,-0.0512905456125736
2023-08-01 16:24:53.908223,24,330,0.9786585569381714,-0.1323752254247665,-0.0183065980672836,-0.1561059206724167,-0.32470703125,0.8671875,0.49267578125,0.6408464908599854,0.799639105796814,-2.688053939436941e-07,0.5961110591888428,0.6803101897239685,-0.0098739471286535,0.5809251666069031,0.5314770936965942,-0.0116476165130734,0.5748092532157898,0.4197754561901092,-0.0213366467505693,0.589568018913269,0.3308039307594299,-0.0285367015749216,0.661237895488739,0.4445261359214782,0.049732394516468,0.6787160634994507,0.3533647060394287,0.0239875167608261,0.6729398965835571,0.3070998191833496,-0.0060941572301089,0.6580253839492798,0.2876817286014557,-0.024317841976881,0.7112588286399841,0.4532046318054199,0.0360845103859901,0.7444090247154236,0.3346115946769714,0.0040924786590039,0.7219411134719849,0.2935070693492889,-0.0287391152232885,0.677873969078064,0.3039589524269104,-0.043434876948595,0.7541269063949585,0.4790642261505127,0.0145980613306164,0.8051050901412964,0.3523050844669342,-0.0141755063086748,0.7760414481163025,0.3042184114456177,-0.0342585407197475,0.7269377112388611,0.3113228678703308,-0.0393898673355579,0.7875974178314209,0.5220063328742981,-0.0093649579212069,0.8028085827827454,0.4152281582355499,-0.0320096090435981,0.7769737839698792,0.3546763956546783,-0.0440121851861476,0.7370339035987854,0.3331414461135864,-0.0462608262896537
2023-08-01 16:24:53.969937,25,331,0.9823908805847168,-0.1186477392911911,-0.0196877121925354,-0.1429799646139145,-0.19384765625,0.86767578125,0.3876953125,0.6487598419189453,0.7950004935264587,-2.75249078640627e-07,0.6035170555114746,0.677293598651886,-0.0076638646423816,0.5863679647445679,0.5308960676193237,-0.0063761733472347,0.5792467594146729,0.4207440614700317,-0.0133106643334031,0.5922205448150635,0.3371561169624328,-0.0178091507405042,0.6592053174972534,0.4483622312545776,0.0561460293829441,0.6763666272163391,0.3632559180259704,0.0350451432168483,0.673534631729126,0.3219666481018066,0.0078037921339273,0.6628487706184387,0.305026113986969,-0.0088592609390616,0.7064344882965088,0.4544387459754944,0.0434160865843296,0.7387257814407349,0.3429422080516815,0.0154254576191306,0.7187223434448242,0.3077126741409302,-0.014937125146389,0.6789178848266602,0.3204255700111389,-0.0282762255519628,0.7474872469902039,0.4760365784168243,0.022880608215928,0.7945873141288757,0.361684501171112,-0.0011588056804612,0.7674323916435242,0.318941056728363,-0.0198205541819334,0.7223193049430847,0.3265599608421325,-0.0250051282346248,0.780634880065918,0.5138266086578369,-0.0002203581098001,0.7948309779167175,0.4163937568664551,-0.0164798274636268,0.7695645689964294,0.3635382056236267,-0.0256595239043235,0.7325853705406189,0.3462288975715637,-0.027260672301054
2023-08-01 16:24:54.049572,26,332,0.9874500632286072,-0.0963939651846885,-0.0248286072164773,-0.1226138547062873,-0.15576171875,0.90673828125,0.30029296875,0.6448507308959961,0.7827164530754089,-2.2533291144100081e-07,0.6031416654586792,0.6697696447372437,-0.0086353430524468,0.5883743762969971,0.5286856293678284,-0.0092468606308102,0.5817766189575195,0.4244765639305115,-0.0177489407360553,0.590819239616394,0.3417445123195648,-0.0240374617278575,0.6622218489646912,0.4505877196788788,0.0485170893371105,0.6762997508049011,0.3660874962806701,0.0253699086606502,0.6687069535255432,0.3222614824771881,-0.0020507117733359,0.6539086103439331,0.3059522807598114,-0.0185925588011741,0.7074459791183472,0.4555475115776062,0.0353645235300064,0.7385525703430176,0.3429442048072815,0.0054975310340523,0.7170618772506714,0.3034373819828033,-0.025476025417447,0.6773306131362915,0.3168066442012787,-0.0393839031457901,0.7457388043403625,0.4773516654968261,0.0148360561579465,0.7907640933990479,0.3604020476341247,-0.011665822006762,0.7613619565963745,0.31827113032341,-0.0306108873337507,0.7161999344825745,0.3298976719379425,-0.0354744084179401,0.77642822265625,0.5149126648902893,-0.0080430749803781,0.7932282090187073,0.4146227538585663,-0.0270456802099943,0.7699332237243652,0.3582876324653625,-0.0373763851821422,0.7336673140525818,0.3404973745346069,-0.0394522473216056
2023-08-01 16:24:54.127076,27,333,0.9915456175804138,-0.0766054019331932,-0.0333552584052085,-0.0992792695760726,-0.07666015625,0.91650390625,0.22216796875,0.6488165259361267,0.7734712362289429,-2.2326155146856766e-07,0.6046668887138367,0.6643013954162598,-0.0085010528564453,0.5903075337409973,0.526853084564209,-0.0081572700291872,0.5845614671707153,0.4234366118907928,-0.0152982911095023,0.5937091112136841,0.3433257937431335,-0.0203962512314319,0.6609665751457214,0.4507442712783813,0.0469183027744293,0.6748687028884888,0.3671879172325134,0.0255161523818969,0.6708027124404907,0.3245947957038879,-0.0002355824544792,0.6616368889808655,0.3088885545730591,-0.0160721633583307,0.7056677341461182,0.4554482996463775,0.0344684608280658,0.7359403371810913,0.3432040810585022,0.0069630430079996,0.7164183855056763,0.3052325844764709,-0.0218803156167268,0.679997444152832,0.3184316158294678,-0.0350030846893787,0.743895947933197,0.4761205911636352,0.014837734401226,0.7892271876335144,0.3611487448215484,-0.0097518395632505,0.7608692646026611,0.319484144449234,-0.0284873209893703,0.7175197601318359,0.3304246664047241,-0.0342193990945816,0.774761974811554,0.5128729343414307,-0.0071678515523672,0.7890862226486206,0.4169938564300537,-0.0256185494363307,0.7638271450996399,0.3665047883987427,-0.0361917875707149,0.7272971868515015,0.3537333607673645,-0.038991592824459
2023-08-01 16:24:54.205104,28,334,0.9944097399711608,-0.0591214597225189,-0.0412421636283397,-0.0771560221910476,-0.11572265625,0.94287109375,0.21533203125,0.6442846059799194,0.7813408374786377,-3.539871613611467e-07,0.6043044328689575,0.6660513281822205,0.0023959511891007,0.5941023826599121,0.5362148880958557,0.0090375775471329,0.5887985825538635,0.4418506622314453,0.0057477075606584,0.5940590500831604,0.3675567507743835,0.0049720010720193,0.6624071002006531,0.4679372906684875,0.0667343214154243,0.6805514097213745,0.3805426955223083,0.0490078255534172,0.6675693392753601,0.3470798134803772,0.0244888439774513,0.6487948298454285,0.3479710817337036,0.0111317466944456,0.6969866156578064,0.473393976688385,0.0519528575241565,0.7244963645935059,0.3671163916587829,0.0300437714904546,0.7010459899902344,0.3381780982017517,0.0031969423871487,0.6653780341148376,0.3604133725166321,-0.0084494957700371,0.7295872569084167,0.4902310371398926,0.0297816414386034,0.7632223963737488,0.3858199715614319,0.0137038202956318,0.7351747155189514,0.3525406122207641,-0.0025610665325075,0.6978772282600403,0.371224045753479,-0.0077395997941493,0.7593579292297363,0.5194154381752014,0.0053968480788171,0.7729032039642334,0.4312148094177246,-0.0012820386327803,0.7484492659568787,0.3849462270736694,-0.0067177889868617,0.7151671051979065,0.3767499625682831,-0.0075415079481899
2023-08-01 16:24:54.267760,29,335,0.9961373805999756,-0.0444380082190036,-0.0469968765974044,-0.0593879297375679,-0.04541015625,0.9677734375,0.1787109375,0.6426184773445129,0.7664385437965393,-2.980923454742879e-07,0.6052497625350952,0.657785177230835,0.0005065698642283,0.5931684970855713,0.5337318778038025,0.005585943814367,0.5874535441398621,0.4420026242733001,0.0016406683716922,0.5958410501480103,0.370589405298233,-0.0004597628721967,0.6588106751441956,0.4708342850208282,0.0590287595987319,0.6736968159675598,0.3930510282516479,0.0431406423449516,0.6639596819877625,0.3584342002868652,0.0211229510605335,0.6491912007331848,0.3506823182106018,0.0080772042274475,0.6940141320228577,0.4740126729011535,0.0456990003585815,0.7212738990783691,0.3742350935935974,0.0240826904773712,0.6999847888946533,0.3488247394561767,-0.0010235368972644,0.6663241386413574,0.3682951927185058,-0.0119342720136046,0.7259399890899658,0.4900748133659363,0.0257707741111516,0.7613568305969238,0.3882234096527099,0.0089797163382172,0.7340806722640991,0.3587654531002044,-0.0057999351993203,0.6973167657852173,0.3744939565658569,-0.0101578664034605,0.7534355521202087,0.5198953151702881,0.0038847012910991,0.7656515836715698,0.4349240958690643,-0.0046078157611191,0.7419223189353943,0.3926339149475097,-0.0101824318990111,0.7101436257362366,0.3822893500328064,-0.011038415133953
2023-08-01 16:24:54.330014,30,336,0.9974924325942992,-0.0329130217432975,-0.0481556877493858,-0.0400820188224315,0.00732421875,0.951171875,0.166015625,0.6387529373168945,0.7725066542625427,-3.623956956744223e-07,0.5997425317764282,0.6626489162445068,0.0088842045515775,0.5891135334968567,0.5504767894744873,0.0174071248620748,0.5846115350723267,0.4682403802871704,0.0150328055024147,0.5946226716041565,0.4065076410770416,0.0142284352332353,0.6548475623130798,0.4935722947120666,0.0711123868823051,0.6694022417068481,0.4141358733177185,0.0591884702444076,0.6560139656066895,0.3831303119659424,0.0388472825288772,0.6367735862731934,0.3791060745716095,0.0271599255502223,0.6839886903762817,0.4980575144290924,0.0544017627835273,0.7068272829055786,0.4043778479099273,0.0377895422279834,0.6849262118339539,0.3791323602199554,0.0135328266769647,0.6518222093582153,0.3935765624046325,0.0022876886650919,0.7123414278030396,0.511385977268219,0.0313567705452442,0.7403286099433899,0.4159840941429138,0.0182434450834989,0.7135974764823914,0.3891046345233917,0.0041573615744709,0.6785703301429749,0.4044938385486603,-0.0002241000038338,0.7391367554664612,0.5336630344390869,0.0068878848105669,0.7497392296791077,0.4505211114883423,0.0020293821580708,0.7282743453979492,0.4110848605632782,-0.0011195836123079,0.6991953253746033,0.4044921398162842,-0.0007084207609295
2023-08-01 16:24:54.390156,31,337,0.9982612133026124,-0.0207526944577693,-0.0513318479061126,-0.020219761878252,0.03076171875,0.9326171875,0.14306640625,0.6375653743743896,0.7584830522537231,-3.063204871978087e-07,0.599774181842804,0.6578444838523865,0.0066564055159688,0.5885087251663208,0.5525820851325989,0.0127456402406096,0.5837186574935913,0.4744970202445984,0.0092969695106148,0.5937714576721191,0.4118114113807678,0.0072125275619328,0.6508199572563171,0.4955839216709137,0.0603888630867004,0.6650036573410034,0.4235284328460693,0.0464888028800487,0.6516085863113403,0.393421322107315,0.0260331444442272,0.6323880553245544,0.3873654007911682,0.014068211428821,0.6795123815536499,0.4987912774085998,0.0454206801950931,0.7016884684562683,0.4066672921180725,0.0267124511301517,0.6799425482749939,0.3822077512741089,0.0026708065997809,0.6479464769363403,0.3957468867301941,-0.0085774902254343,0.7062946557998657,0.5118468999862671,0.0248374380171298,0.732631504535675,0.4195165932178497,0.0108418529853224,0.7062548398971558,0.3945861160755157,-0.003656247165054,0.6722344160079956,0.4077045619487762,-0.0087691666558384,0.7315051555633545,0.5360363721847534,0.0029205481987446,0.7444868087768555,0.456268846988678,-0.0032342439517378,0.723389744758606,0.4178844690322876,-0.0080940378829836,0.6934143900871277,0.4072827398777008,-0.0093067307025194
2023-08-01 16:24:54.450015,32,338,0.9983318448066713,-0.0094440467655658,-0.0568386353552341,-0.0037105870433151,0.111328125,0.97119140625,0.1357421875,0.6338971257209778,0.7516823410987854,-3.147638096834271e-07,0.5970013737678528,0.6600797176361084,0.0042291991412639,0.5861659049987793,0.5547201037406921,0.0102748461067676,0.5813207626342773,0.4776692390441894,0.0075962650589644,0.5902656316757202,0.4182480871677398,0.0066575370728969,0.6459868550300598,0.5016016960144043,0.0559566728770732,0.6605193614959717,0.4283867180347442,0.0416424572467803,0.6463997960090637,0.4014827013015747,0.0224923864006996,0.6279641389846802,0.4010512828826904,0.0123289534822106,0.6746032238006592,0.5035390853881836,0.0427468419075012,0.6957293152809143,0.4126855134963989,0.0249683819711208,0.6737286448478699,0.3899361491203308,0.0037360314745455,0.6430902481079102,0.4071998000144958,-0.0051033245399594,0.7013813257217407,0.514889121055603,0.0236853435635566,0.7256546020507812,0.4256424903869629,0.0100641688331961,0.698780357837677,0.400439977645874,-0.0027950485236942,0.6660136580467224,0.4140057563781738,-0.0063564255833625,0.7267776131629944,0.5356429815292358,0.0031310259364545,0.7385591268539429,0.4574029743671417,-0.0028901174664497,0.7170112133026123,0.4208333790302276,-0.0070617864839732,0.6876946091651917,0.4132797718048095,-0.0074085360392928
2023-08-01 16:24:54.516941,33,339,0.998018443584442,0.0011151378275826,-0.0616730153560638,0.0124227106571197,0.2578125,0.9755859375,0.09765625,0.623637855052948,0.7635233998298645,-3.212992112366919e-07,0.5884710550308228,0.6735274791717529,0.0030333255417644,0.5775350332260132,0.5750301480293274,0.0075948410667479,0.5709041357040405,0.5005744695663452,0.0044615762308239,0.5805732011795044,0.4456017613410949,0.0026457735802978,0.6309486031532288,0.5294356942176819,0.049386840313673,0.6386294960975647,0.4608823359012604,0.0368775613605976,0.6274895071983337,0.4319489300251007,0.0190883819013834,0.6130202412605286,0.423974335193634,0.0087215043604373,0.6574018597602844,0.5313431024551392,0.0379431471228599,0.6733028292655945,0.4496635496616363,0.0236420594155788,0.6549140810966492,0.4257167875766754,0.0044147055596113,0.6283103823661804,0.4320054352283478,-0.0052154306322336,0.6834107637405396,0.5417052507400513,0.021390052512288,0.7087752819061279,0.4585680365562439,0.0092251431196928,0.6849117279052734,0.4334979355335235,-0.0012735518394038,0.6536315679550171,0.4414513111114502,-0.0045092524960637,0.7053483128547668,0.5613724589347839,0.0035448882263153,0.7106020450592041,0.4930550158023834,-0.0021987149957567,0.6922067403793335,0.4563563168048858,-0.0052140480838716,0.6675741076469421,0.4431371688842773,-0.0052321208640933
2023-08-01 16:24:54.571500,34,340,0.99796462059021,0.0089555187150835,-0.0578529201447963,0.0252881553024053,0.17529296875,0.9765625,0.0205078125,0.6210137009620667,0.7592682242393494,-2.81839760418734e-07,0.5844649076461792,0.6810147166252136,0.0011180744040757,0.5709206461906433,0.5852595567703247,0.0064261327497661,0.5642461180686951,0.5146320462226868,0.0049511324614286,0.5753951072692871,0.4641419351100921,0.0052009364590048,0.6225264072418213,0.5383594036102295,0.0481918156147003,0.6296273469924927,0.4741958379745483,0.0366615690290927,0.6171927452087402,0.4492847621440887,0.0206840950995683,0.6016845107078552,0.4481029510498047,0.0123830279335379,0.6480603814125061,0.5383349657058716,0.0393834523856639,0.6581808924674988,0.4653114080429077,0.0266382601112127,0.6400527358055115,0.4436764717102051,0.0091747362166643,0.6151261925697327,0.4539474844932556,0.0012273335596546,0.6738618612289429,0.5470291972160339,0.0252610463649034,0.6895278096199036,0.4750863909721374,0.0138476910069584,0.6685643792152405,0.4514225721359253,0.0028537795878946,0.6418899893760681,0.4604650139808655,-0.0001000324555207,0.6983358860015869,0.5631006956100464,0.0098344041034579,0.7041256427764893,0.497013658285141,0.004902530927211,0.6882572770118713,0.4632523357868194,0.0016811223467811,0.6660696864128113,0.4544617235660553,0.0019439193420112
2023-08-01 16:24:54.633141,35,341,0.9975837469100952,0.0127863120287656,-0.059469137340784,0.0335649400949478,0.1650390625,0.9775390625,0.02978515625,0.6171942949295044,0.7517423629760742,-2.2063748872369615e-07,0.582949697971344,0.6769960522651672,0.0030853166244924,0.5702705383300781,0.5879967212677002,0.0085344510152935,0.5629153251647949,0.5216055512428284,0.0070012789219617,0.5712607502937317,0.4709283113479614,0.0063952235504984,0.6210412979125977,0.5474595427513123,0.0476053990423679,0.6298008561134338,0.4913616180419922,0.0386000610888004,0.6206075549125671,0.4659076333045959,0.0243592988699674,0.6088054776191711,0.4582997262477875,0.0158410388976335,0.6469936370849609,0.5475763082504272,0.0371910259127616,0.6643604636192322,0.4746998250484466,0.0240494217723608,0.6471682786941528,0.4546027183532715,0.0063781654462218,0.6216184496879578,0.4646068811416626,-0.0015032998053357,0.6717349886894226,0.5560649633407593,0.0221686977893114,0.6946988105773926,0.4804665148258209,0.0104728005826473,0.6721521615982056,0.4568082988262176,-0.0006471630767919,0.6430526375770569,0.4635947942733764,-0.0037772257346659,0.6927765607833862,0.5720650553703308,0.0061847595497965,0.696307897567749,0.506985604763031,-0.0006687474669888,0.6774984002113342,0.4747899770736694,-0.0051476885564625,0.6540419459342957,0.4641324281692505,-0.0057768262922763
2023-08-01 16:24:54.695374,36,342,0.997361421585083,0.015053667128086,-0.0603468604385852,0.0374406166374683,0.19921875,0.97900390625,0.04638671875,0.6147271394729614,0.7477164268493652,-2.232503106824879e-07,0.5814902186393738,0.678794264793396,0.0002071975904982,0.5681331157684326,0.5918105840682983,0.0035691270604729,0.5588573217391968,0.5262771844863892,0.0009474639082327,0.5677383542060852,0.4785374104976654,-0.0006098063313402,0.6183025240898132,0.5503665208816528,0.0404175743460655,0.625504195690155,0.4922920763492584,0.0298440530896186,0.61625736951828,0.4670990705490112,0.0155996475368738,0.6055423617362976,0.4622478187084198,0.0073900055140256,0.6439160704612732,0.5515791177749634,0.0316481925547122,0.6583647131919861,0.4784946739673614,0.0171645544469356,0.6409715414047241,0.4577078223228454,-0.0005751460557803,0.6160767674446106,0.4668991863727569,-0.0084366565570235,0.6690312623977661,0.5615021586418152,0.0184514559805393,0.6910766363143921,0.4858173727989197,0.0048922388814389,0.6685367226600647,0.4618463814258575,-0.0072344243526458,0.6394612789154053,0.4675906598567962,-0.010806648992002,0.6900399923324585,0.5787413120269775,0.0043778344988822,0.6892048120498657,0.5160943269729614,-0.0053793438710272,0.6696146130561829,0.4839776754379272,-0.0119762141257524,0.6467697620391846,0.4717873334884643,-0.0136300744488835
2023-08-01 16:24:54.758103,37,343,0.997485876083374,0.016605332493782,-0.0571464449167251,0.0384771563112735,0.15869140625,0.974609375,0.0576171875,0.6134675741195679,0.7536705732345581,-2.2248765674248721e-07,0.5798929333686829,0.6850860118865967,0.0008619491709396,0.5662645101547241,0.6004810929298401,0.0050358548760414,0.5565108060836792,0.5345365405082703,0.0029912637546658,0.5682458281517029,0.4899320602416992,0.0020219709258526,0.6156613230705261,0.5606802701950073,0.0444030202925205,0.6219022274017334,0.5043891668319702,0.0353045538067817,0.6134962439537048,0.4792382717132568,0.0213547497987747,0.6032763719558716,0.4724378883838653,0.0128585956990718,0.6399500966072083,0.5626924633979797,0.0355779491364955,0.6541438698768616,0.4916343986988067,0.0215104427188634,0.6379766464233398,0.4702169597148895,0.0031420169398188,0.6128721833229065,0.4776588082313537,-0.005234548356384,0.6640690565109253,0.5718985795974731,0.0221946276724338,0.6833352446556091,0.5000140070915222,0.009055252186954,0.6623852849006653,0.4755537807941437,-0.0044302605092525,0.6332677006721497,0.4798677265644073,-0.0090469419956207,0.6853687167167664,0.5873570442199707,0.007954504340887,0.68564373254776,0.5267847180366516,-0.0009413918596692,0.6663699746131897,0.496448278427124,-0.0079254368320107,0.6420263051986694,0.4857181906700134,-0.0103080915287137
2023-08-01 16:24:54.820077,38,344,0.997404932975769,0.0178216528147459,-0.0579963028430938,0.0387571938335895,0.21240234375,0.978515625,0.07568359375,0.6141910552978516,0.752795934677124,-1.878186282056049e-07,0.5801148414611816,0.688106894493103,0.0014298323076218,0.5661852359771729,0.6040751338005066,0.0053225914016366,0.5578953623771667,0.5408777594566345,0.0032804319635033,0.568012535572052,0.4930863976478576,0.0019820781890302,0.6153050065040588,0.5648589134216309,0.03948425501585,0.6209666132926941,0.5121660828590393,0.0315583907067775,0.6139839887619019,0.4847027957439422,0.0192777924239635,0.6057533025741577,0.474275529384613,0.0113768419250845,0.6407751441001892,0.5668333172798157,0.0295807011425495,0.656157374382019,0.4971518814563751,0.016934597864747,0.6403631567955017,0.4741536378860473,0.0004942175582982,0.6163744330406189,0.4813332557678222,-0.0071017444133758,0.6647936701774597,0.5768653750419617,0.0156495459377765,0.6857699751853943,0.5034501552581787,0.0027899628039449,0.6636939644813538,0.4773479700088501,-0.0088402330875396,0.6354940533638,0.4815777838230133,-0.0125312767922878,0.6846804618835449,0.5931008458137512,0.0009985598735511,0.6829875707626343,0.5310518741607666,-0.0097309695556759,0.6622360348701477,0.498804360628128,-0.0165731981396675,0.638676106929779,0.4878386259078979,-0.0186142027378082
2023-08-01 16:24:54.897876,39,345,0.997433066368103,0.0192679651081562,-0.0585008338093757,0.0365198776125907,0.14013671875,0.97900390625,0.078125,0.6134145855903625,0.7516331672668457,-1.7146170705473199e-07,0.5801360011100769,0.690960705280304,-0.0001907053374452,0.5661429762840271,0.6055140495300293,0.0027484146412461,0.557650625705719,0.5419028401374817,0.0003137923486065,0.57036954164505,0.4957384467124939,-0.0010895460145547,0.6163062453269958,0.5656699538230896,0.0361733548343181,0.6223347783088684,0.5132038593292236,0.0276034753769636,0.6151185035705566,0.4871487319469452,0.0153038967400789,0.6063460111618042,0.4789402186870575,0.0075973011553287,0.6412304639816284,0.5674722790718079,0.0273755248636007,0.6571159362792969,0.4979728758335113,0.0150864105671644,0.6418995261192322,0.474835067987442,-5.297713141771965e-05,0.6183046698570251,0.4826298356056213,-0.0067986832000315,0.6646941900253296,0.5781843066215515,0.0144994733855128,0.6863582730293274,0.5043114423751831,0.0021044765599071,0.6646799445152283,0.479068785905838,-0.0083016315475106,0.6369394659996033,0.4844343662261963,-0.0112797254696488,0.6842001676559448,0.5954475402832031,0.0007648846367374,0.6846204996109009,0.5340220332145691,-0.0097872642800211,0.6640574336051941,0.5031837224960327,-0.0161991603672504,0.6406838893890381,0.4939970374107361,-0.0179352965205907
2023-08-01 16:24:54.973504,40,346,0.9975174069404602,0.0209681876003742,-0.0555520132184028,0.0378610454499721,0.14453125,0.96435546875,0.03173828125,0.6150138974189758,0.7565152645111084,-1.7861931667084718e-07,0.5816459655761719,0.6950310468673706,-0.0007168825250118,0.5670128464698792,0.6088424921035767,0.0023795929737389,0.5580981373786926,0.5436504483222961,1.847724888648372e-05,0.5720636248588562,0.4988369047641754,-0.0012660070788115,0.6153009533882141,0.5696265697479248,0.0383265949785709,0.6212184429168701,0.516349732875824,0.03033940307796,0.6145365238189697,0.4907671511173248,0.018078688532114,0.6063441038131714,0.4814731776714325,0.0101047316566109,0.6404268145561218,0.5712230205535889,0.0299795418977737,0.6542844176292419,0.5032151341438293,0.0176247153431177,0.6395768523216248,0.4797814488410949,0.001167822512798,0.6165481805801392,0.4847862124443054,-0.0066800829954445,0.664331316947937,0.5808088779449463,0.0174111202359199,0.684403121471405,0.5083279013633728,0.004306836053729,0.6639313101768494,0.4837501645088196,-0.0079320454970002,0.6364886164665222,0.4886440932750702,-0.0120473401620984,0.6849287152290344,0.5962618589401245,0.0040178918279707,0.6854787468910217,0.5350320339202881,-0.0070234923623502,0.6662340760231018,0.5037717819213867,-0.0144954556599259,0.6429986953735352,0.4936078190803528,-0.0170483514666557
2023-08-01 16:24:55.047538,41,347,0.9976198673248292,0.0212518498301506,-0.0531457476317882,0.0384516306221485,0.14990234375,0.9443359375,0.08447265625,0.6171022653579712,0.7599138617515564,-1.7470823365783874e-07,0.5839904546737671,0.6965671181678772,0.0023151088971644,0.5708329081535339,0.6115102171897888,0.0084886625409126,0.5638285875320435,0.547451913356781,0.0084427595138549,0.5754947662353516,0.5010653734207153,0.0095576466992497,0.6212380528450012,0.5761235356330872,0.0469345413148403,0.6270676851272583,0.5229874849319458,0.041216030716896,0.6195862293243408,0.497032105922699,0.0295267179608345,0.6095029711723328,0.4874212145805359,0.0223197732120752,0.6457048058509827,0.5768458843231201,0.0379655621945858,0.6598866581916809,0.5112324357032776,0.028621420264244,0.6448526978492737,0.4862226843833923,0.0127223720774054,0.621309757232666,0.4901230633258819,0.0052990429103374,0.6691837310791016,0.5848718881607056,0.0245413500815629,0.6864773631095886,0.5177662968635559,0.0148315364494919,0.6663603186607361,0.4906304478645324,0.0040813419036567,0.6400217413902283,0.4931768774986267,0.000903342384845,0.6899117827415466,0.5986084938049316,0.0102067273110151,0.692145586013794,0.5384961366653442,0.0030549287330359,0.6744144558906555,0.5048319101333618,-0.0020595563109964,0.6524205803871155,0.493412971496582,-0.0030715630855411
2023-08-01 16:24:55.124156,42,348,0.9976374506950378,0.0215332135558128,-0.0525273792445659,0.0386862903833389,0.1591796875,0.95849609375,0.08251953125,0.6164852976799011,0.7507241368293762,-1.7504606830698324e-07,0.58417147397995,0.6905413866043091,-0.0024523418396711,0.5712253451347351,0.6083431839942932,-0.0011505285510793,0.5634215474128723,0.5447168350219727,-0.0047746403142809,0.5764460563659668,0.4969921708106994,-0.0066573051735758,0.6233492493629456,0.5709536671638489,0.0330108702182769,0.6295472383499146,0.5145770311355591,0.0219718553125858,0.6183849573135376,0.4899024367332458,0.0084037454798817,0.6068066954612732,0.4845900237560272,0.0005762911168858,0.6460776329040527,0.5713164210319519,0.025693105533719,0.6602964997291565,0.5004165172576904,0.0130672371014952,0.6407607197761536,0.4768394827842712,-0.0015544978668913,0.6161166429519653,0.483355164527893,-0.0080497981980443,0.667761504650116,0.5804247260093689,0.0140472240746021,0.6873389482498169,0.5062989592552185,0.002384663792327,0.6636605858802795,0.4829035997390747,-0.0065644695423543,0.63667893409729,0.4896619617938995,-0.0085958745330572,0.6863895654678345,0.5974056720733643,0.0011648312211036,0.6908790469169617,0.5352608561515808,-0.0078748995438218,0.6706761121749878,0.5041844248771667,-0.0128891300410032,0.6469410061836243,0.4962493479251861,-0.0136434659361839
2023-08-01 16:24:55.202751,43,349,0.9977784752845764,0.021312516182661,-0.0507479310035705,0.0375302955508232,0.15087890625,0.97705078125,0.0771484375,0.6146028637886047,0.752234697341919,-1.8864915318772546e-07,0.5822550058364868,0.6899226307868958,-0.0005763401859439,0.5696467161178589,0.6054010987281799,0.0019223373383283,0.5604092478752136,0.5418422222137451,-0.0010156910866498,0.5735498070716858,0.4997621774673462,-0.0028836010023951,0.6201698184013367,0.5708395838737488,0.0357116684317588,0.6270580887794495,0.5148561596870422,0.0257101114839315,0.61897873878479,0.4886037409305572,0.0124738523736596,0.6102434396743774,0.4826944768428802,0.0044453218579292,0.6443023681640625,0.5732603073120117,0.0273165572434663,0.6602246761322021,0.5022258758544922,0.0135513665154576,0.6439027786254883,0.4787114262580871,-0.002860392909497,0.6200628876686096,0.4861366152763366,-0.0102980118244886,0.6678382754325867,0.583349883556366,0.0148006305098533,0.6893948316574097,0.5082967281341553,0.0015768433222547,0.6668436527252197,0.4834444522857666,-0.010054362937808,0.6385548114776611,0.4888491928577423,-0.0136904092505574,0.6874534487724304,0.5992342829704285,0.0014431570889428,0.6855062246322632,0.5378903746604919,-0.0094124330207705,0.6637693047523499,0.5070642828941345,-0.0167757384479045,0.6396492719650269,0.4969498515129089,-0.0192107185721397
2023-08-01 16:24:55.266896,44,350,0.9978129863739014,0.0212374292314052,-0.0507086105644702,0.0367004722356796,0.12890625,0.97314453125,0.087890625,0.615990161895752,0.7535638213157654,-1.75611972963452e-07,0.5825045704841614,0.692514181137085,-0.0008788853883743,0.5695590972900391,0.6074684858322144,0.0017177916597574,0.5606533885002136,0.5434079766273499,-0.0009668582933954,0.574333906173706,0.5011162161827087,-0.0025729313492774,0.6192070841789246,0.571765661239624,0.0357421338558197,0.6252681016921997,0.5169817209243774,0.0267052557319402,0.6180430054664612,0.4900982677936554,0.0142754865810275,0.6101095080375671,0.4831793308258056,0.0066656004637479,0.6443608403205872,0.5735064148902893,0.0274998042732477,0.6603297591209412,0.5037747025489807,0.0147087518125772,0.6442075967788696,0.4792259931564331,-0.0008446939755231,0.6200295686721802,0.486412763595581,-0.0077695241197943,0.6682640910148621,0.5835848450660706,0.0151388207450509,0.6897513270378113,0.5093271136283875,0.0023534800857305,0.6674814224243164,0.4837409853935241,-0.0085967453196644,0.6394656896591187,0.4890791773796081,-0.0117824170738458,0.6876707077026367,0.5995219945907593,0.0019104304956272,0.6852434873580933,0.5386610627174377,-0.008926379494369,0.6641790866851807,0.5073809623718262,-0.0159571524709463,0.6410305500030518,0.4970804452896118,-0.0180614050477743
2023-08-01 16:24:55.324833,45,351,0.9978847503662108,0.0210227780044078,-0.0496877245604991,0.0362657159566879,0.1787109375,0.9697265625,0.0556640625,0.6151325702667236,0.7519190907478333,-1.792178494497421e-07,0.5824404954910278,0.6905720829963684,-0.0014658301370218,0.5688703656196594,0.607828676700592,9.276143100578338e-05,0.5606589913368225,0.5434152483940125,-0.0035898312926292,0.5758987665176392,0.4970866739749908,-0.0062032607384026,0.6196069121360779,0.5726025700569153,0.0358012951910495,0.6256716847419739,0.5180378556251526,0.0259800273925066,0.6171936392784119,0.4912649393081665,0.0127079486846923,0.6075073480606079,0.4847321212291717,0.0046764160506427,0.6447594165802002,0.5745453834533691,0.0276428237557411,0.6603557467460632,0.5056474208831787,0.0148021457716822,0.64303058385849,0.4805037975311279,-0.0012256623012945,0.6173228025436401,0.486037939786911,-0.0087686376646161,0.6683530807495117,0.5847082138061523,0.0151982735842466,0.6906161904335022,0.5115129351615906,0.002240709029138,0.6689160466194153,0.4846218824386596,-0.0088280253112316,0.6407701373100281,0.4881490170955658,-0.0122623238712549,0.687247633934021,0.6004393696784973,0.0018455020617693,0.6856308579444885,0.5399002432823181,-0.0093415416777133,0.6652859449386597,0.5079352259635925,-0.0163694396615028,0.6420802474021912,0.4967281818389892,-0.018485989421606
2023-08-01 16:24:55.383847,46,352,0.9979771375656128,0.0197772942483425,-0.0501239337027072,0.0337351001799106,0.15087890625,0.99658203125,0.03271484375,0.6139514446258545,0.7511880993843079,-1.7982975464292394e-07,0.5809475779533386,0.6897000074386597,0.0001067557968781,0.5687084197998047,0.6067714095115662,0.0029494981281459,0.5602902770042419,0.5441486835479736,0.0003084837226197,0.5740902423858643,0.5002424120903015,-0.0013963133096694,0.620343804359436,0.5711925625801086,0.0367405638098716,0.6265615224838257,0.5175231695175171,0.0274188555777072,0.6182276010513306,0.4907472133636474,0.0145636675879359,0.6089843511581421,0.483462393283844,0.0067352340556681,0.6450088620185852,0.573405921459198,0.0279052667319774,0.660844087600708,0.5033519268035889,0.0151787744835019,0.6438623666763306,0.4776512086391449,-0.000629962189123,0.6189625263214111,0.4825232625007629,-0.0077939452603459,0.668408989906311,0.584021270275116,0.0149800367653369,0.6900765895843506,0.5103124380111694,0.0021351114846765,0.6678752899169922,0.4833003580570221,-0.0089332750067114,0.6398192644119263,0.4866043329238891,-0.0121478522196412,0.6871946454048157,0.6005910634994507,0.001263397745788,0.6860933303833008,0.5394750237464905,-0.0097252922132611,0.6651193499565125,0.5071406960487366,-0.0166267342865467,0.6417235732078552,0.495791345834732,-0.0185566991567611
