Timestamp,Index,Frame ID,w,x,y,z,ax,ay,az,x_0,y_0,z_0,x_1,y_1,z_1,x_2,y_2,z_2,x_3,y_3,z_3,x_4,y_4,z_4,x_5,y_5,z_5,x_6,y_6,z_6,x_7,y_7,z_7,x_8,y_8,z_8,x_9,y_9,z_9,x_10,y_10,z_10,x_11,y_11,z_11,x_12,y_12,z_12,x_13,y_13,z_13,x_14,y_14,z_14,x_15,y_15,z_15,x_16,y_16,z_16,x_17,y_17,z_17,x_18,y_18,z_18,x_19,y_19,z_19,x_20,y_20,z_20
2023-08-01 16:24:42.758942,0,161,0.9985599517822266,-0.0032729553058743,-0.0535458475351333,-4.525943586486392e-05,0.11328125,0.98974609375,0.109375,0.5956714153289795,0.7606031894683838,-2.0224496211085355e-07,0.5639325380325317,0.700147271156311,-0.0016310097416862,0.5550568699836731,0.6183974742889404,0.0028833991382271,0.5526277422904968,0.5521594882011414,0.0021010667551308,0.5676280856132507,0.5045179724693298,0.0026973912026733,0.6138730645179749,0.5911146998405457,0.0447119139134883,0.6204524636268616,0.5385627746582031,0.0392829738557338,0.6110909581184387,0.508812427520752,0.0268756654113531,0.5988038778305054,0.4933201968669891,0.0184156335890293,0.6363033056259155,0.5923992395401001,0.0381249450147151,0.6503831744194031,0.5274222493171692,0.0297635700553655,0.6350218653678894,0.496968924999237,0.0129221584647893,0.6100072860717773,0.4911731779575348,0.0036688547115772,0.6585259437561035,0.6012293100357056,0.0268890541046857,0.6785693168640137,0.5323317050933838,0.0173775367438793,0.6618678569793701,0.4987188875675201,0.0054887169972062,0.6357175707817078,0.4919982850551605,0.0009505435591563,0.6789848804473877,0.6160820722579956,0.0144432075321674,0.6854493618011475,0.5530989170074463,0.0055564418435096,0.6709367036819458,0.5130778551101685,-0.001277775154449,0.6490351557731628,0.4940768480300903,-0.0036383063998073
2023-08-01 16:24:42.814712,1,162,0.9985365867614746,-0.0120628755539655,-0.0515937954187393,-0.0108289131894707,0.0458984375,0.97119140625,0.1865234375,0.5934441685676575,0.7611348628997803,-1.892063039576897e-07,0.5635055899620056,0.6965537667274475,-0.0004713589441962,0.555310845375061,0.611122727394104,0.0047405073419213,0.5524045825004578,0.5426409244537354,0.0042646443471312,0.5672597289085388,0.4907423853874206,0.0051729874685406,0.6140145659446716,0.586957573890686,0.0488538220524787,0.6212290525436401,0.5329669713973999,0.0452509634196758,0.6117772459983826,0.5024905204772949,0.0336728766560554,0.5982723236083984,0.4858511090278625,0.0256262272596359,0.63716059923172,0.5882731080055237,0.0414184629917144,0.6514248847961426,0.5215950608253479,0.0348157286643981,0.6350611448287964,0.4896990954875946,0.0178708434104919,0.6081029176712036,0.4825070798397064,0.0083580696955323,0.6601440906524658,0.5967845916748047,0.0292321182787418,0.68049556016922,0.5269559025764465,0.0208606775850057,0.6628656387329102,0.4930979907512665,0.0081894416362047,0.6356719732284546,0.4859040379524231,0.0029792003333568,0.681268572807312,0.6108520030975342,0.0159415714442729,0.6863259077072144,0.545924961566925,0.0083637600764632,0.6705736517906189,0.5058059692382812,0.0016851595137268,0.6476351618766785,0.4870551228523254,-0.000843476911541
2023-08-01 16:24:42.875431,2,163,0.9985838532447816,-0.0181041676551103,-0.0460912883281707,-0.0194439049810171,0.07177734375,0.99462890625,0.06591796875,0.5924381017684937,0.7612041234970093,-2.0340141304586726e-07,0.5618450045585632,0.6990330815315247,-0.0027008042670786,0.5547182559967041,0.6098535656929016,0.0016155398916453,0.5530505776405334,0.5402185916900635,0.0008699701866135,0.5678133964538574,0.4895434081554413,0.0017313715070486,0.615060567855835,0.5804911255836487,0.0420833453536033,0.6217548847198486,0.5267089605331421,0.0361671447753906,0.6136936545372009,0.4967214465141296,0.0239767953753471,0.6023574471473694,0.4822069406509399,0.0159738939255476,0.6388525366783142,0.5820674300193787,0.0354556068778038,0.6529897451400757,0.5156576037406921,0.0265620909631252,0.637173593044281,0.4850832521915436,0.0105151906609535,0.610564649105072,0.4824573993682861,0.002476803259924,0.6617799997329712,0.591880738735199,0.0241568088531494,0.6826624274253845,0.5223277807235718,0.0143576664850115,0.6658126711845398,0.4881226122379303,0.0036144971381872,0.6391143202781677,0.4832889139652252,0.0004029036499559,0.6819173693656921,0.6081514954566956,0.0114926164969801,0.689730703830719,0.5437922477722168,0.0027738939970731,0.6762645840644836,0.5019386410713196,-0.0031845725607126,0.6546204090118408,0.4829721450805664,-0.0044629699550569
2023-08-01 16:24:42.962987,3,164,0.9977440237998962,-0.0345557071268558,-0.0415589846670627,-0.0398201383650302,0.0400390625,0.96533203125,0.1142578125,0.5936338305473328,0.7607661485671997,-2.011232567156185e-07,0.5625973343849182,0.6974460482597351,-0.0013780294684693,0.5551058053970337,0.6082775592803955,0.003232245799154,0.5530686378479004,0.5389487147331238,0.0023994818329811,0.5675008296966553,0.4883234202861786,0.0030585445929318,0.6157704591751099,0.5753815174102783,0.0431482419371604,0.6229481101036072,0.5209276080131531,0.0370073728263378,0.615278422832489,0.4908744096755981,0.024560609832406,0.6039031147956848,0.4764210879802704,0.0163670349866151,0.6401782631874084,0.5772665143013,0.0355690568685531,0.6549894213676453,0.5098408460617065,0.026474455371499,0.6401439905166626,0.4781482815742492,0.0101441005244851,0.6137277483940125,0.4751885533332824,0.0018755710916593,0.6631667613983154,0.588318943977356,0.0233857259154319,0.6848717927932739,0.5183702111244202,0.013406959362328,0.6690014600753784,0.4823604226112366,0.0023875085171312,0.641974925994873,0.4764694571495056,-0.0010656572412699,0.6833696365356445,0.606412947177887,0.0099341059103608,0.6922527551651001,0.541366696357727,0.0005802225787192,0.6793937683105469,0.4991763234138489,-0.005739000160247,0.6576655507087708,0.4802391231060028,-0.0071636759676039
2023-08-01 16:24:43.039212,4,165,0.9963014125823976,-0.050382062792778,-0.0392973385751247,-0.0574523024260997,0.0,0.93994140625,0.23388671875,0.5938681960105896,0.7609726786613464,-2.1106960446104495e-07,0.5629388093948364,0.6958894729614258,-0.000800181471277,0.5557460188865662,0.6053249835968018,0.0044705490581691,0.5543744564056396,0.5344376564025879,0.0040336106903851,0.5676788091659546,0.4820022881031036,0.0050562308169901,0.617645263671875,0.5725958943367004,0.0455677211284637,0.6248406171798706,0.5181078314781189,0.0403427481651306,0.61653733253479,0.4875901043415069,0.0280153304338455,0.6052724123001099,0.4716603755950928,0.0194666218012571,0.6422522068023682,0.575263261795044,0.0373774468898773,0.6574346423149109,0.5063289999961853,0.0278793647885322,0.6403290033340454,0.4749647676944732,0.0103511018678545,0.6127209663391113,0.4720056056976318,0.0012185976374894,0.6655473113059998,0.5864352583885193,0.024587282910943,0.6874836683273315,0.5135502815246582,0.0136127909645438,0.6689621210098267,0.4786514341831207,0.0012049672659486,0.6408335566520691,0.4749084711074829,-0.0030435395892709,0.6856891512870789,0.6040698289871216,0.0106261437758803,0.6934254169464111,0.5369203686714172,0.0003656812768895,0.6786879897117615,0.4940110445022583,-0.0069013610482215,0.6560043096542358,0.4757154881954193,-0.0090594068169593
2023-08-01 16:24:43.112715,5,166,0.9936577081680298,-0.0698737427592277,-0.0360109135508537,-0.0804066359996795,-0.078125,0.939453125,0.26416015625,0.5931792855262756,0.737575888633728,-1.5376737394490195e-07,0.5598282814025879,0.6745219230651855,-0.0059739663265645,0.5539986491203308,0.5759188532829285,-0.0024772442411631,0.5524485111236572,0.5002028942108154,-0.0031806658953428,0.5653994083404541,0.4423302114009857,-0.0019957860931754,0.6190873980522156,0.5414069890975952,0.0370784774422645,0.629400908946991,0.477045327425003,0.0294314585626125,0.6206226944923401,0.4444383978843689,0.0167989414185285,0.6071677207946777,0.4296759665012359,0.0089270211756229,0.64757239818573,0.5455439686775208,0.0314780361950397,0.6629889607429504,0.471990168094635,0.0224559232592582,0.6485294103622437,0.4337040185928345,0.0073068393394351,0.6199164390563965,0.4238389134407043,-0.000148731021909,0.6741798520088196,0.5595325827598572,0.0207853633910417,0.6970199346542358,0.4801490902900696,0.0092625617980957,0.6792727112770081,0.4405146837234497,-0.0013186243595555,0.6480841040611267,0.4303770661354065,-0.0040935934521257,0.6963300108909607,0.5795597434043884,0.008584838360548,0.700075089931488,0.5070208311080933,-0.0038427857216447,0.6836415529251099,0.4630203247070312,-0.0113598676398396,0.6583849787712097,0.4414199888706207,-0.0129414675757288
2023-08-01 16:24:43.189432,6,167,0.9905690550804138,-0.0863424241542816,-0.0305284075438976,-0.1019120514392852,-0.2861328125,0.9208984375,0.3623046875,0.5949660539627075,0.7384248375892639,-2.0967050318176922e-07,0.5595667362213135,0.670157253742218,-0.0033048121258616,0.5534034967422485,0.5685420632362366,0.0007577920332551,0.5525895953178406,0.4924548268318176,-0.0003642107767518,0.5658972859382629,0.4362505078315735,0.0005324579542502,0.6205746531486511,0.5316620469093323,0.0395561084151268,0.6278563737869263,0.4665004014968872,0.0311234798282384,0.6202471256256104,0.4324573278427124,0.0175460763275623,0.6091711521148682,0.4170743823051452,0.0090379379689693,0.6487459540367126,0.5349783897399902,0.0319449640810489,0.6670687794685364,0.4579699039459228,0.0211115889251232,0.6504285931587219,0.4233030974864959,0.0053164530545473,0.6218221783638,0.4212929606437683,-0.0017273820703849,0.6747297644615173,0.5479708313941956,0.0195380058139562,0.7007492780685425,0.4669488966464996,0.0084587773308157,0.6805009841918945,0.4280462265014648,-0.0008890880271792,0.6500509977340698,0.4241682887077331,-0.0025258855894207,0.696012020111084,0.5685312747955322,0.0055547794327139,0.7057343125343323,0.4945107102394104,-0.0048260577023029,0.688933253288269,0.4484607577323913,-0.0102243488654494,0.6639158725738525,0.4298028945922851,-0.0102315321564674
2023-08-01 16:24:43.252320,7,168,0.9886358976364136,-0.0948674529790878,-0.0231012850999832,-0.1143043413758277,-0.2548828125,0.88037109375,0.33203125,0.6011144518852234,0.7271596193313599,-1.804932310278673e-07,0.5620706081390381,0.6574724912643433,-0.0034902906045317,0.55457603931427,0.549026608467102,0.0012970528332516,0.5546507835388184,0.4647034108638763,0.0009802792919799,0.5686715245246887,0.4006333947181701,0.0022215105127543,0.6237666606903076,0.5064719915390015,0.0433708243072032,0.6346958875656128,0.4385135769844055,0.0374765805900096,0.6277942657470703,0.4023615419864654,0.0251172557473182,0.6159654855728149,0.3833131194114685,0.0165217313915491,0.65690016746521,0.5120546221733093,0.0350555554032325,0.6756888628005981,0.4313130676746368,0.0254008471965789,0.6606298089027405,0.3903543055057525,0.0080632427707314,0.6294933557510376,0.3803424835205078,-0.0007761439774185,0.6864754557609558,0.5276586413383484,0.0217017419636249,0.7147341966629028,0.439545601606369,0.008787621743977,0.6965674757957458,0.3952434659004211,-0.0040977676399052,0.6636608839035034,0.3830877542495727,-0.0085319327190518,0.7103518843650818,0.550157904624939,0.0071327807381749,0.7131405472755432,0.4711353182792663,-0.0082486160099506,0.6958127021789551,0.4217708110809326,-0.0180765055119991,0.6701448559761047,0.3953230381011963,-0.021237188950181
2023-08-01 16:24:43.329347,8,169,0.98579204082489,-0.1073385328054428,-0.0184765830636024,-0.1278713941574096,-0.2060546875,0.904296875,0.35888671875,0.600313663482666,0.7338679432868958,-2.321353917977831e-07,0.5632604360580444,0.6545290946960449,-0.0003441708104219,0.556164562702179,0.5407593250274658,0.0055984798818826,0.5546115636825562,0.4553564488887787,0.0047185332514345,0.5700629949569702,0.3911129236221313,0.0056262733414769,0.6316252946853638,0.4979510307312011,0.0525648519396781,0.6424196362495422,0.4293858706951141,0.0466758906841278,0.6336814761161804,0.3924103379249573,0.0324862264096736,0.6190745830535889,0.3710275590419769,0.0224144738167524,0.6637226939201355,0.5043210387229919,0.0414052084088325,0.6840474009513855,0.4209776520729065,0.0306254383176565,0.6658919453620911,0.3818037509918213,0.0104235783219337,0.6315643787384033,0.3750102818012237,-2.916630364779849e-05,0.692188024520874,0.5206979513168335,0.0250211264938116,0.7219607830047607,0.4317415058612823,0.0121895261108875,0.7015946507453918,0.3878453373908996,-0.0014513779897242,0.6665005683898926,0.3791539669036865,-0.0058960122987627,0.7144111394882202,0.5441367626190186,0.0073148705996572,0.7222488522529602,0.4602781534194946,-0.0055760201066732,0.7037297487258911,0.4068403542041778,-0.0136474994942545,0.6751856803894043,0.3804791569709778,-0.0155826080590486
2023-08-01 16:24:43.400202,9,170,0.9826570749282836,-0.1189853549003601,-0.0206643883138895,-0.1407143622636795,-0.13720703125,0.88623046875,0.4267578125,0.6016098856925964,0.7345359921455383,-2.4552088007112616e-07,0.5647630095481873,0.6544784903526306,-0.004063619300723,0.5563585162162781,0.537613570690155,-0.0004125048581045,0.55405193567276,0.4478519558906555,-0.0034504623617976,0.570466935634613,0.3794093132019043,-0.0044745523482561,0.6338079571723938,0.4902822077274322,0.0514312721788883,0.6456575989723206,0.4184190332889557,0.0408697389066219,0.6353631019592285,0.3808243870735168,0.0237537901848554,0.6180683970451355,0.3647839426994324,0.0132094137370586,0.6681997179985046,0.4969776272773742,0.0412451401352882,0.6924000978469849,0.412127137184143,0.0272876303642988,0.6745894551277161,0.3735027611255646,0.0064484192989766,0.6391016840934753,0.3712917566299438,-0.0031633479520678,0.6978490352630615,0.5146913528442383,0.0247933957725763,0.7305881977081299,0.425517588853836,0.0094479825347661,0.7104000449180603,0.379342257976532,-0.0039707482792437,0.6743464469909668,0.3706556260585785,-0.0071800774894654,0.7199525237083435,0.5399560928344727,0.0065970760770142,0.7286853194236755,0.4546829760074615,-0.0079611018300056,0.7109968662261963,0.3994054794311523,-0.0161598268896341,0.6827923059463501,0.3719755411148071,-0.0174070671200752
2023-08-01 16:24:43.460507,10,171,0.9798117280006408,-0.125523179769516,-0.0139119056984782,-0.1549813747406005,-0.2626953125,0.89453125,0.37890625,0.6074652075767517,0.7295857071876526,-1.5876531733738378e-07,0.5628974437713623,0.6462270021438599,-0.0037035713903605,0.5545530915260315,0.5161468386650085,0.0022912607528269,0.5552908778190613,0.4147063195705414,0.001703719026409,0.5710686445236206,0.3366100192070007,0.0024111636448651,0.6332682967185974,0.4664488732814789,0.0603109337389469,0.6473106145858765,0.3905031681060791,0.0618313625454902,0.6394802331924438,0.3499281406402588,0.0501102469861507,0.6253272891044617,0.3182978630065918,0.038595512509346,0.6732813715934753,0.4748254120349884,0.0495944358408451,0.6920664310455322,0.3822855353355407,0.0446367524564266,0.6772736310958862,0.3317645788192749,0.02179941162467,0.6434406042098999,0.3055837154388428,0.0061378055252134,0.7077628374099731,0.4959713816642761,0.0328663550317287,0.7425981760025024,0.3919462561607361,0.0201748609542846,0.724338948726654,0.3401156067848205,-0.0020378695335239,0.685456395149231,0.3174942135810852,-0.0148844439536333,0.7363337278366089,0.523322343826294,0.0150728160515427,0.7390040755271912,0.4258686006069183,-0.002966136438772,0.7166218161582947,0.368877649307251,-0.0189913511276245,0.6830022931098938,0.3360308408737182,-0.0283922664821147
2023-08-01 16:24:43.516206,11,172,0.9770283102989196,-0.1345442682504654,-0.0155116468667984,-0.164538562297821,-0.2744140625,0.8583984375,0.43115234375,0.6074402928352356,0.7356910705566406,-2.2866153415179727e-07,0.5635778903961182,0.6443410515785217,-0.0095476806163787,0.555235743522644,0.5132270455360413,-0.0099582048133015,0.5538772344589233,0.4125903844833374,-0.0159144513309001,0.5717213153839111,0.3338020443916321,-0.0195013359189033,0.6371600031852722,0.4548684954643249,0.0428780391812324,0.6519450545310974,0.3714765310287475,0.0251512806862592,0.641220211982727,0.3280417025089264,0.0025078838225454,0.6210176944732666,0.3093579411506653,-0.0114312740042805,0.6766490936279297,0.462738037109375,0.0335422791540622,0.7040592432022095,0.3622464835643768,0.0125441225245594,0.6843884587287903,0.3162523508071899,-0.0128768598660826,0.6433902382850647,0.310342788696289,-0.0251569002866745,0.7110703587532043,0.4850181341171264,0.0176103413105011,0.7497499585151672,0.3795498609542846,-0.0028607756830751,0.7269072532653809,0.3300245404243469,-0.0189849063754081,0.6847339868545532,0.3216328620910644,-0.0236664060503244,0.7378750443458557,0.5180428624153137,-0.0003458149149082,0.7451382875442505,0.4235397577285766,-0.0191257279366254,0.7251834273338318,0.3630464673042297,-0.0299913343042135,0.6934810280799866,0.3301402628421783,-0.0327143035829067
2023-08-01 16:24:43.578049,12,173,0.9743651747703552,-0.1414035260677337,-0.0140821691602468,-0.1744112819433212,-0.27978515625,0.8466796875,0.45947265625,0.6081488728523254,0.7489243149757385,-2.5529215008646133e-07,0.5651456117630005,0.6510483622550964,-0.0062829731032252,0.5576847791671753,0.5123986005783081,-0.0048525361344218,0.5558342933654785,0.4062631130218506,-0.0104901511222124,0.573503315448761,0.3223186433315277,-0.0141013748943805,0.6428205370903015,0.4547284543514251,0.0553034655749797,0.6570972800254822,0.3680677115917206,0.0410144031047821,0.6439401507377625,0.3224743902683258,0.0183026976883411,0.621412456035614,0.298280656337738,0.0027787070721387,0.6820709109306335,0.4616796970367431,0.0434917323291301,0.708678662776947,0.3558891415596008,0.0237564705312252,0.6859803795814514,0.3063002228736877,-0.0048234644345939,0.6410520672798157,0.2967586517333984,-0.0200971309095621,0.7157867550849915,0.4840851426124573,0.0248731393367052,0.7559382319450378,0.3714759945869446,0.0057035787031054,0.7314640879631042,0.3181084990501404,-0.0129703246057033,0.6859204769134521,0.3064748644828796,-0.0202847700566053,0.7421265840530396,0.5180826783180237,0.0042761852964758,0.7490611672401428,0.4174230694770813,-0.0138059239834547,0.7283667922019958,0.3541047275066376,-0.0260849930346012,0.695266842842102,0.3191120326519012,-0.0306780133396387
2023-08-01 16:24:43.641298,13,174,0.9720808267593384,-0.1465420871973037,-0.0129986759275197,-0.1827985346317291,-0.318359375,0.8017578125,0.46142578125,0.6231361627578735,0.7585731148719788,-2.2830117529792918e-07,0.576632022857666,0.6539998650550842,-0.0078931767493486,0.5694597363471985,0.508141815662384,-0.0040343329310417,0.5685616731643677,0.3971415162086487,-0.0072313207201659,0.5792391300201416,0.3065022826194763,-0.0082856370136141,0.6525056958198547,0.4412986636161804,0.0579925440251827,0.6681650280952454,0.3498076200485229,0.0454235970973968,0.660006046295166,0.3021730184555053,0.0236219707876443,0.6430019736289978,0.271833211183548,0.0077390940859913,0.6964603662490845,0.4492100477218628,0.0455248579382896,0.7261264324188232,0.3393760323524475,0.0254128035157918,0.7076142430305481,0.2880882620811462,-0.0040604779496788,0.665184497833252,0.2720649540424347,-0.0201193001121282,0.7339454889297485,0.4742451012134552,0.0255211498588323,0.7807806730270386,0.3567160367965698,0.001621774979867,0.7591714262962341,0.3005537986755371,-0.0211608037352561,0.7129603028297424,0.285230278968811,-0.0305073801428079,0.7636699080467224,0.510588526725769,0.0036148752551525,0.7741029262542725,0.4040795266628265,-0.0213104952126741,0.750457763671875,0.3376076221466064,-0.0378057099878788,0.7127065658569336,0.3001568615436554,-0.0448018163442611
2023-08-01 16:24:43.701226,14,175,0.9704071879386902,-0.150156557559967,-0.0136342579498887,-0.1886185854673385,-0.3515625,0.7880859375,0.45361328125,0.6263872981071472,0.7772835493087769,-1.944172822732071e-07,0.5777924656867981,0.667657196521759,-0.0087929628789424,0.571031928062439,0.509691596031189,-0.0058624348603188,0.5713295936584473,0.390949547290802,-0.0101742185652256,0.5888566970825195,0.2971618771553039,-0.0117767471820116,0.6576378345489502,0.4390742182731628,0.0615338087081909,0.6768646240234375,0.344283789396286,0.0458956211805343,0.6697991490364075,0.2937528491020202,0.021365063264966,0.6501563787460327,0.2650829553604126,0.0049868989735841,0.7039545178413391,0.4490853250026703,0.0492846593260765,0.7363356351852417,0.3348626792430877,0.0266302563250064,0.7172896265983582,0.279068112373352,-0.0048971748910844,0.6707441806793213,0.2667858600616455,-0.0208771079778671,0.7434288263320923,0.4749089181423187,0.0291099678725004,0.7879505157470703,0.3552069664001465,0.0062551745213568,0.7662595510482788,0.2950731515884399,-0.0146672250702977,0.7187443971633911,0.2815983295440674,-0.0218616351485252,0.7741973996162415,0.5108264684677124,0.0065449406392872,0.783327043056488,0.4028574526309967,-0.0144188795238733,0.7644652724266052,0.3318374156951904,-0.0282660573720932,0.7318102121353149,0.291350781917572,-0.0327755585312843
2023-08-01 16:24:43.762638,15,176,0.9694280624389648,-0.1526254564523697,-0.0134636852890253,-0.1916601508855819,-0.357421875,0.796875,0.4677734375,0.6322969198226929,0.779875636100769,-2.0203840733756809e-07,0.582701563835144,0.6671347618103027,-0.0090748462826013,0.5742117762565613,0.5070719122886658,-0.0056303916499018,0.5746482610702515,0.3879932463169098,-0.0092834644019603,0.5907214879989624,0.2950486540794372,-0.0099810333922505,0.6593748331069946,0.4343561828136444,0.0580314397811889,0.6790831089019775,0.3395982980728149,0.0404316745698452,0.6741920709609985,0.2890078425407409,0.0164232943207025,0.6575478315353394,0.261307805776596,0.0012616049498319,0.7067779898643494,0.4426654279232025,0.0460966974496841,0.7416004538536072,0.327326238155365,0.0226930938661098,0.7249730825424194,0.2736833691596985,-0.0058455178514122,0.6814992427825928,0.2638775110244751,-0.0188631825149059,0.7473677396774292,0.4682652950286865,0.0260968059301376,0.7951521873474121,0.3474940657615661,0.0022467640228569,0.7731066346168518,0.289245456457138,-0.0149802630767226,0.7260035872459412,0.2776714265346527,-0.0187002345919609,0.7784925699234009,0.5056089758872986,0.003593479283154,0.7880260944366455,0.3987743854522705,-0.0178085267543792,0.7694685459136963,0.3275204300880432,-0.0297468733042478,0.7377240061759949,0.2856911122798919,-0.032023549079895
2023-08-01 16:24:43.822916,16,177,0.969084084033966,-0.1534510254859924,-0.0129227954894304,-0.1927742660045623,-0.35400390625,0.84326171875,0.4970703125,0.6419878005981445,0.7952958345413208,-1.7975241917156384e-07,0.5903998613357544,0.6802390217781067,-0.013033365830779,0.5833783149719238,0.507393479347229,-0.01004274841398,0.5857598185539246,0.3802457451820373,-0.0137746632099151,0.5997553467750549,0.2805074453353882,-0.0145173240453004,0.6701045632362366,0.4326581656932831,0.0595215559005737,0.6918951272964478,0.3374983072280884,0.0424872562289238,0.6915295720100403,0.2835046052932739,0.0165088679641485,0.6766250729560852,0.249560609459877,-0.0019020383479073,0.7209017276763916,0.442783772945404,0.0480975210666656,0.7526606917381287,0.3288143277168274,0.0225546956062316,0.7401167750358582,0.2715503871440887,-0.011552395299077,0.6969480514526367,0.2558265030384063,-0.0300902538001537,0.7636024355888367,0.4699470698833465,0.0279972106218338,0.8098960518836975,0.3509578108787536,0.0009429983911104,0.7929790019989014,0.288103699684143,-0.0231485832482576,0.7451440095901489,0.2722195982933044,-0.0327773764729499,0.7980988621711731,0.5083044171333313,0.0051521989516913,0.8120570778846741,0.3997483253479004,-0.0198861490935087,0.7974106073379517,0.3215729892253876,-0.0371797569096088,0.7642716765403748,0.2737635374069214,-0.0446370206773281
2023-08-01 16:24:43.887527,17,178,0.9690779447555542,-0.153754249215126,-0.0125297009944915,-0.1925888955593109,-0.31591796875,0.85302734375,0.4677734375,0.6417008638381958,0.7947391271591187,-1.1892294793369729e-07,0.5932520031929016,0.6769943833351135,-0.0127341588959097,0.5849784016609192,0.5083574652671814,-0.0114342318847775,0.5875282883644104,0.3808699250221252,-0.0174531191587448,0.6048851013183594,0.2814803123474121,-0.0204609911888837,0.6722715497016907,0.4324065446853637,0.0604561939835548,0.6964258551597595,0.33594611287117,0.040958035737276,0.6973286271095276,0.2813700437545776,0.0137397674843668,0.6846894025802612,0.2499955892562866,-0.004420880228281,0.7239964604377747,0.442726194858551,0.0489212349057197,0.7587841749191284,0.3249493241310119,0.0217080246657133,0.7465752959251404,0.2660778760910034,-0.0127043025568127,0.7048174738883972,0.2538670301437378,-0.0302568096667528,0.7665651440620422,0.4703028798103332,0.0286196805536746,0.8167557716369629,0.3469433486461639,0.0016401760512962,0.7996048331260681,0.283897340297699,-0.0204531848430633,0.7529316544532776,0.270976185798645,-0.0276863239705562,0.799376904964447,0.5092020034790039,0.0054823239333927,0.8116861581802368,0.3990805745124817,-0.0189528856426477,0.798127293586731,0.3236292600631714,-0.0348509587347507,0.768012523651123,0.2806620001792907,-0.040160734206438
2023-08-01 16:24:43.944935,18,179,0.969154179096222,-0.1539579480886459,-0.0127449724823236,-0.1920280456542968,-0.3125,0.83837890625,0.458984375,0.6421216726303101,0.8015812635421753,-1.3794934261568417e-07,0.5933525562286377,0.6765106320381165,-0.0108793741092085,0.5837400555610657,0.5103250741958618,-0.0080031733959913,0.5858041048049927,0.3821130096912384,-0.0133691476657986,0.605509877204895,0.2827935814857483,-0.0155044756829738,0.6716060042381287,0.4360773861408233,0.0704490020871162,0.694719135761261,0.3409153819084167,0.0539057776331901,0.6926220059394836,0.285484254360199,0.0279661882668733,0.6768901944160461,0.2512199878692627,0.0103431055322289,0.7232335805892944,0.4445273876190185,0.0582875087857246,0.7583357095718384,0.3269038796424866,0.0341532416641712,0.7443926334381104,0.2653543949127197,0.0005002710968255,0.700594425201416,0.2494505792856216,-0.0168664194643497,0.7658812999725342,0.470820277929306,0.0368520841002464,0.8164499998092651,0.3475651144981384,0.0111040547490119,0.8001338839530945,0.283802330493927,-0.0116012496873736,0.7537317276000977,0.2713114023208618,-0.0191378071904182,0.7988795042037964,0.5080710649490356,0.0126021010801196,0.8128390312194824,0.3981209397315979,-0.0111688002943992,0.7979315519332886,0.3215618431568146,-0.0272524822503328,0.7657271027565002,0.2783779501914978,-0.0326952077448368
2023-08-01 16:24:44.029371,19,180,0.9696923494338988,-0.153329387307167,-0.0143570946529507,-0.1896862536668777,-0.33056640625,0.8076171875,0.46826171875,0.6386749744415283,0.8025861978530884,-1.7826293685629937e-07,0.5914770364761353,0.6769476532936096,-0.0105249397456645,0.5823128819465637,0.5106920003890991,-0.0082938289269804,0.5833221077919006,0.3846548497676849,-0.0143100218847393,0.603085994720459,0.2883471846580505,-0.0170408096164464,0.6721588969230652,0.4377327859401703,0.0677357614040374,0.6944580674171448,0.3406752347946167,0.0484104417264461,0.6897464394569397,0.2859277725219726,0.0200445484369993,0.6705607771873474,0.254533052444458,0.0012592973653227,0.722046434879303,0.4453920722007751,0.0551591292023658,0.7566174864768982,0.3257836401462555,0.028647294268012,0.7399619221687317,0.2645886540412903,-0.0067640058696269,0.6935338973999023,0.2505512535572052,-0.0252560675144195,0.7639458775520325,0.471057265996933,0.0335154756903648,0.8140935897827148,0.3468547463417053,0.0073707681149244,0.7967756390571594,0.2833996415138244,-0.0157724358141422,0.7498028874397278,0.2716958522796631,-0.0238477643579244,0.7967719435691833,0.5095040202140808,0.009042271412909,0.8144969940185547,0.3996634483337402,-0.0131412101909518,0.8017899394035339,0.3220674395561218,-0.0283505022525787,0.771055281162262,0.2778003513813019,-0.0337197259068489
2023-08-01 16:24:44.109410,20,181,0.9701700210571288,-0.1523480266332626,-0.0147150643169879,-0.1879991143941879,-0.32666015625,0.830078125,0.45361328125,0.6411653161048889,0.7983993887901306,-2.0749820350829398e-07,0.5926986932754517,0.6750993132591248,-0.0088645759969949,0.5833548903465271,0.5097950100898743,-0.0049619451165199,0.5837674736976624,0.3855118751525879,-0.009232054464519,0.5990921258926392,0.2902902364730835,-0.0102614536881446,0.6735630631446838,0.4331261813640594,0.0658114030957222,0.6932286620140076,0.3367252349853515,0.0477371215820312,0.6894353628158569,0.2824939489364624,0.0214430075138807,0.6725248694419861,0.2515691518783569,0.0040574185550212,0.7233247756958008,0.4405291676521301,0.0526409372687339,0.7574230432510376,0.3225114941596985,0.0275366157293319,0.7412325143814087,0.2632853984832763,-0.0050742365419864,0.6960703730583191,0.2503862082958221,-0.0215493496507406,0.7651293873786926,0.4670667052268982,0.0307187531143426,0.8140843510627747,0.3443562984466553,0.0053068003617227,0.7958961725234985,0.2820042371749878,-0.0154307372868061,0.7493350505828857,0.2699518799781799,-0.0219099577516317,0.7977489233016968,0.5064986944198608,0.0061088628135621,0.8126723766326904,0.3978078961372375,-0.0159612409770488,0.7976905107498169,0.3216511607170105,-0.0298241898417472,0.7660639882087708,0.2774549126625061,-0.034050989896059
2023-08-01 16:24:44.185010,21,182,0.9709414839744568,-0.1507450193166732,-0.0172769781202077,-0.1850678920745849,-0.3037109375,0.84375,0.4384765625,0.6421055793762207,0.7995535731315613,-2.022555207759069e-07,0.5936144590377808,0.6754094362258911,-0.0076000774279236,0.5839021801948547,0.509266197681427,-0.0034921506885439,0.5840590596199036,0.3849098682403564,-0.0078769354149699,0.6016056537628174,0.2890696823596954,-0.009105454199016,0.67508864402771,0.4331811964511871,0.0687987133860588,0.6956522464752197,0.3365835547447204,0.0506216138601303,0.6907802224159241,0.2823590040206909,0.0236373171210289,0.6714091300964355,0.2515425682067871,0.0060243983753025,0.7242178320884705,0.4415206611156463,0.0550994127988815,0.7580588459968567,0.3233910501003265,0.0301766898483037,0.7425919771194458,0.2642198503017425,-0.0030911809299141,0.6968130469322205,0.2511118054389953,-0.0198549609631299,0.7656598091125488,0.4680636823177337,0.0325891152024269,0.8124151229858398,0.3457213044166565,0.0081053720787167,0.7956157326698303,0.2820841372013092,-0.0129244998097419,0.749644935131073,0.2681665122509002,-0.0196751356124877,0.7980201244354248,0.5065488219261169,0.0074143032543361,0.8128329515457153,0.3969864845275879,-0.0132380379363894,0.8011652231216431,0.3197126388549804,-0.0267796721309423,0.7728500962257385,0.2738490700721741,-0.0309602599591016
2023-08-01 16:24:44.242002,22,183,0.9716688990592957,-0.1485365182161331,-0.0179580394178628,-0.1829586178064346,-0.287109375,0.89013671875,0.4462890625,0.64091557264328,0.8032830357551575,-2.122453395259072e-07,0.5929346084594727,0.6782534122467041,-0.0092724654823541,0.5841416120529175,0.5147411823272705,-0.0064077782444655,0.5848327875137329,0.3913084864616394,-0.0119374189525842,0.5973360538482666,0.2944016456604004,-0.0142726264894008,0.672342836856842,0.4405086040496826,0.0658215135335922,0.6913080811500549,0.3440719544887543,0.0457439087331295,0.6877543926239014,0.2913263440132141,0.0176355671137571,0.6722154021263123,0.262438952922821,-0.0005081988638266,0.7214765548706055,0.4484933316707611,0.0524587035179138,0.7564651370048523,0.330976128578186,0.0243013482540845,0.7385217547416687,0.2754257917404175,-0.0104896137490868,0.6930345296859741,0.267847865819931,-0.0275460891425609,0.7626739740371704,0.4737937152385711,0.0303407236933708,0.8123836517333984,0.3514738380908966,0.0040514948777854,0.7929982542991638,0.2907490134239197,-0.0168589930981397,0.7467472553253174,0.2808214426040649,-0.022938635200262,0.7950888872146606,0.5120772123336792,0.0053981128148734,0.8139363527297974,0.4033747315406799,-0.0151829244568943,0.801421046257019,0.3265553116798401,-0.0280099380761384,0.7719759941101074,0.282293438911438,-0.0315759405493736
2023-08-01 16:24:44.299758,23,184,0.9722265005111694,-0.1470545381307602,-0.017861483618617,-0.1811948120594024,-0.30615234375,0.8330078125,0.43359375,0.6410504579544067,0.8028862476348877,-2.0223258445639658e-07,0.59486323595047,0.6796601414680481,-0.0115433456376194,0.5853155851364136,0.5185157060623169,-0.0110549349337816,0.5848472714424133,0.3961850702762604,-0.0184539444744586,0.598487913608551,0.3003821969032287,-0.0224079452455043,0.6715145111083984,0.4402223527431488,0.0611761845648288,0.6897643208503723,0.3424943387508392,0.0388821065425872,0.6855725049972534,0.291444718837738,0.009782038629055,0.6696540713310242,0.2645533084869385,-0.0086852787062525,0.720777690410614,0.4483595490455627,0.0487515032291412,0.7530860304832458,0.3326057493686676,0.019439535215497,0.7356897592544556,0.2777692377567291,-0.0149668361991643,0.6907840371131897,0.2702461779117584,-0.0315938554704189,0.7622730731964111,0.4748746156692505,0.0274497792124748,0.8126567602157593,0.3535573482513428,0.0003441751759964,0.7948905825614929,0.2937000393867492,-0.0189840085804462,0.7494377493858337,0.2841909825801849,-0.0237888619303703,0.7946932911872864,0.5149343013763428,0.0031157392077147,0.8105249404907227,0.4097631573677063,-0.0191986951977014,0.7983528971672058,0.3349307179450989,-0.0320040769875049,0.7698191404342651,0.2907445728778839,-0.0348229184746742
2023-08-01 16:24:44.359365,24,185,0.9727634191513062,-0.146557405591011,-0.0196823980659246,-0.1785071939229965,-0.29345703125,0.7978515625,0.51318359375,0.6406775712966919,0.7993471026420593,-2.0362408292839973e-07,0.5941237211227417,0.6756493449211121,-0.0109226470813155,0.5833650827407837,0.5166829824447632,-0.0101141454651951,0.5837755799293518,0.3960093855857849,-0.0173312332481145,0.6013646721839905,0.3038343489170074,-0.0213139653205871,0.6686175465583801,0.4408381581306457,0.0612424500286579,0.688168466091156,0.3466570973396301,0.0393557325005531,0.6845857501029968,0.2949727177619934,0.0105948047712445,0.6685616970062256,0.2672458589076996,-0.0078611504286527,0.7183443307876587,0.4478223323822021,0.0486903041601181,0.7524564266204834,0.3324337005615234,0.0188239458948373,0.7351771593093872,0.2791214883327484,-0.0159671101719141,0.6906682848930359,0.2743023633956909,-0.0327412895858287,0.7602288126945496,0.4730391800403595,0.0274608023464679,0.810715913772583,0.3519482016563415,-0.0002944802981801,0.7927567958831787,0.2939682602882385,-0.0213515628129243,0.747538685798645,0.2879904508590698,-0.027229718863964,0.7931976318359375,0.5129749178886414,0.0034136751201003,0.8107943534851074,0.4086857438087463,-0.0190857555717229,0.7981184720993042,0.3356102108955383,-0.0329161994159221,0.7685855031013489,0.2951960861682892,-0.0366877764463424
2023-08-01 16:24:44.423077,25,186,0.9741212725639344,-0.1435925364494323,-0.0227308273315429,-0.1730673015117645,-0.28564453125,0.82373046875,0.5,0.6369355916976929,0.7933516502380371,-2.062742083808189e-07,0.5917836427688599,0.6700462698936462,-0.009605050086975,0.5820620656013489,0.5145628452301025,-0.0079046916216611,0.5821573734283447,0.3971238136291504,-0.0142611358314752,0.5966722965240479,0.3074886202812195,-0.017533965408802,0.6654470562934875,0.4393340945243835,0.0615754835307598,0.6824541091918945,0.3466625213623047,0.0415072701871395,0.6782402992248535,0.2966517806053161,0.0140989758074283,0.663169264793396,0.2689830958843231,-0.0036180110182613,0.7134318947792053,0.4451651573181152,0.049380537122488,0.7436981201171875,0.3309546113014221,0.0217851549386978,0.7277530431747437,0.2805758118629455,-0.0119840148836374,0.6868758201599121,0.2757523357868194,-0.0287430249154567,0.754599392414093,0.4693314135074615,0.0288373790681362,0.8023865222930908,0.3501389026641845,0.0020896208006888,0.7843042016029358,0.2958254814147949,-0.0196042619645595,0.7401927709579468,0.2925862073898315,-0.0263318177312612,0.7876409292221069,0.5084479451179504,0.005760122090578,0.8079743981361389,0.4062369763851166,-0.0152806313708424,0.7983092069625854,0.3341395854949951,-0.0290352944284677,0.7712507247924805,0.2943607568740845,-0.0333506986498832
2023-08-01 16:24:44.494147,26,187,0.9773464798927308,-0.133996233344078,-0.0269168764352798,-0.1615991443395614,-0.28369140625,0.828125,0.47900390625,0.6379429697990417,0.7920601963996887,-2.661620044364099e-07,0.5929242372512817,0.6720433235168457,-0.0092044072225689,0.5829588770866394,0.5166993737220764,-0.0082585085183382,0.5813923478126526,0.401889443397522,-0.0151662891730666,0.5930470824241638,0.311764657497406,-0.0190063659101724,0.6682402491569519,0.4405373334884643,0.0580352321267128,0.6868154406547546,0.3459459543228149,0.0358493700623512,0.6786931753158569,0.2991296052932739,0.0074499095790088,0.6584069132804871,0.2756989598274231,-0.0100075202062726,0.7147343158721924,0.4477714896202087,0.0453201867640018,0.7450652122497559,0.3341680765151977,0.0171403046697378,0.7262154221534729,0.2856235802173614,-0.0160207711160182,0.6821516752243042,0.2803516089916229,-0.0320174358785152,0.7548486590385437,0.4729174077510834,0.0244117733091115,0.8026047348976135,0.3538412451744079,-0.001541382051073,0.7837705016136169,0.3008323013782501,-0.0209362003952264,0.7392171025276184,0.2943492531776428,-0.0263152718544006,0.7867474555969238,0.5125414729118347,0.0009290309390053,0.8035402297973633,0.4096403121948242,-0.0188605189323425,0.7926768660545349,0.3387292623519897,-0.0304158944636583,0.7658261656761169,0.2963632941246032,-0.0332044102251529
2023-08-01 16:24:44.556851,27,188,0.980793595314026,-0.1218367666006088,-0.0323026850819587,-0.1488494724035263,-0.32861328125,0.8408203125,0.43798828125,0.6357036232948303,0.7930334806442261,-2.603083260055428e-07,0.5924210548400879,0.6715695858001709,-0.0073477108962833,0.5839030742645264,0.5172289609909058,-0.0051210424862802,0.5833476185798645,0.4017918705940246,-0.0113070895895361,0.596754252910614,0.311639130115509,-0.0144722508266568,0.6678882241249084,0.4419738054275512,0.0637468099594116,0.6868278980255127,0.3493898510932922,0.043576318770647,0.6783527135848999,0.30359947681427,0.016014726832509,0.6578385233879089,0.279629111289978,-0.0011550843482837,0.7132700681686401,0.4488698840141296,0.0505277067422866,0.7442851066589355,0.3356722295284271,0.0244938731193542,0.7254068851470947,0.2881982326507568,-0.0078989937901496,0.6815650463104248,0.2828181982040405,-0.023546440526843,0.7528996467590332,0.4737571179866791,0.0289757475256919,0.8005686402320862,0.3549241125583648,0.0041064177639782,0.7807290554046631,0.3025841414928436,-0.0157471373677253,0.7356491088867188,0.2967203557491302,-0.0214557256549596,0.7848689556121826,0.5128021836280823,0.0049613015726208,0.802780270576477,0.4093736112117767,-0.0141638489440083,0.7911642789840698,0.3394260108470917,-0.0257460381835699,0.763617753982544,0.2989616394042969,-0.0286406259983778
2023-08-01 16:24:44.614049,28,189,0.9837718605995178,-0.1117334887385368,-0.038513746112585,-0.1350009590387344,-0.21826171875,0.8642578125,0.40673828125,0.6376504898071289,0.788565993309021,-2.0919553378462297e-07,0.5940945148468018,0.6689479947090149,-0.0113976569846272,0.5836628675460815,0.51765376329422,-0.011551140807569,0.5827081203460693,0.4022865295410156,-0.0192761570215225,0.5958917140960693,0.3139259219169616,-0.0237754620611667,0.6631354689598083,0.4425011277198791,0.0568201094865798,0.6809279322624207,0.3521751761436462,0.0347652211785316,0.6765717267990112,0.3062304854393005,0.0067340354435145,0.6621328592300415,0.2838487029075622,-0.0106780780479311,0.7100417017936707,0.4484947025775909,0.0455772764980793,0.7408131957054138,0.3358816504478454,0.0167840812355279,0.7253270149230957,0.2906860709190368,-0.0160823240876197,0.6860460042953491,0.2929863035678863,-0.0315277613699436,0.7503826022148132,0.4720023870468139,0.0260213315486907,0.7977335453033447,0.3546043038368225,-0.0002537365653552,0.7798374891281128,0.3041794300079345,-0.0197924170643091,0.7375850081443787,0.3043815493583679,-0.0248836930841207,0.7828759551048279,0.5110460519790649,0.0037048375234007,0.8014846444129944,0.4109395146369934,-0.0161080248653888,0.7915928959846497,0.3419736623764038,-0.0280931275337934,0.7658717036247253,0.305125892162323,-0.0310144145041704
2023-08-01 16:24:44.673007,29,190,0.9867311716079712,-0.101307600736618,-0.04416224360466,-0.1189455687999725,-0.1328125,0.9375,0.3427734375,0.6404651999473572,0.7976650595664978,-2.0593351734987666e-07,0.5967002511024475,0.6750226616859436,-0.0081438841298222,0.5876196622848511,0.5264168977737427,-0.0042443554848432,0.5878748893737793,0.4148324728012085,-0.0080386837944388,0.5999862551689148,0.3276679515838623,-0.0088558048009872,0.6567716002464294,0.4586643576622009,0.0603085532784462,0.672397255897522,0.3732862472534179,0.0419475845992565,0.6702776551246643,0.327187180519104,0.0169673487544059,0.6618460416793823,0.3052840232849121,0.0018757539801299,0.7007322311401367,0.4651511907577514,0.0496330820024013,0.7300698757171631,0.3551893234252929,0.0254772752523422,0.7177339196205139,0.3136071562767029,-0.0024539416190236,0.6864684224128723,0.3214223086833954,-0.0145329572260379,0.7395217418670654,0.4868170022964477,0.0308094471693038,0.779742956161499,0.3777167797088623,0.0100676454603672,0.762229323387146,0.3302890062332153,-0.005670677870512,0.7266622185707092,0.3336086869239807,-0.0088652819395065,0.7724570035934448,0.5221909880638123,0.0090799918398261,0.790676474571228,0.4259296357631683,-0.0036497358232736,0.7781728506088257,0.3644118905067444,-0.010860601440072,0.7522385716438293,0.3378627598285675,-0.0112923718988895
2023-08-01 16:24:44.735018,30,191,0.9890367984771729,-0.0911114662885665,-0.046405266970396,-0.1065434142947197,-0.1728515625,0.92626953125,0.30322265625,0.6379362344741821,0.789034366607666,-2.3261893034032255e-07,0.5983495712280273,0.667885959148407,-0.0066961934790015,0.5892965197563171,0.5271975994110107,-0.0028444158378988,0.5875222682952881,0.4192415475845337,-0.0068969205021858,0.5978623628616333,0.3320447206497192,-0.0080914124846458,0.6619139909744263,0.4651755690574646,0.0647577047348022,0.6800270676612854,0.3840453028678894,0.0495356544852256,0.6711776256561279,0.3418301343917846,0.0259476974606513,0.6541593670845032,0.3176833093166351,0.0103380363434553,0.7024135589599609,0.4686999917030334,0.0535342171788215,0.7298944592475891,0.3630576133728027,0.0322985984385013,0.7117569446563721,0.3224533796310425,0.0033897757530212,0.6745598912239075,0.3243637084960937,-0.0112605122849345,0.7380874156951904,0.4879606366157532,0.0342707820236682,0.7808470726013184,0.3785669505596161,0.0135468188673257,0.7607525587081909,0.330948531627655,-0.0053840745240449,0.720940887928009,0.3321352005004883,-0.0119492672383785,0.7681812047958374,0.5206745862960815,0.0125460568815469,0.7844133973121643,0.4275853633880615,-0.0027305074036121,0.7694273591041565,0.3674191832542419,-0.0133674805983901,0.7410705089569092,0.3402659893035888,-0.0168947894126176
2023-08-01 16:24:44.804065,31,192,0.99237459897995,-0.0742507651448249,-0.0488055422902107,-0.0854257866740226,-0.0771484375,0.90185546875,0.28369140625,0.6395862102508545,0.7850691080093384,-2.508762406705501e-07,0.5982485413551331,0.6699011325836182,-0.0053067742846906,0.5882766842842102,0.5338573455810547,-0.0011160946451127,0.5875440835952759,0.4300040602684021,-0.0048195361159741,0.5985391139984131,0.3492671549320221,-0.0056621474213898,0.6590487957000732,0.4698585271835327,0.0610139332711696,0.6749930381774902,0.3867629766464233,0.0443207696080207,0.6651763916015625,0.3448273539543152,0.0210921987891197,0.6477274894714355,0.3255479335784912,0.007103216368705,0.6972862482070923,0.4732327759265899,0.0503456741571426,0.7230432033538818,0.3683438003063202,0.0284164883196353,0.706075131893158,0.3317705690860748,0.0016236137598752,0.671705424785614,0.3405273556709289,-0.0102785695344209,0.7320516705513,0.4911282360553741,0.0321106500923633,0.7697917222976685,0.3832539319992065,0.0129211256280541,0.7506909966468811,0.339175820350647,-0.002837857697159,0.7146016955375671,0.3437954187393188,-0.0067295576445758,0.7626024484634399,0.5223380327224731,0.0114083467051386,0.7796857953071594,0.4317106604576111,-0.0007641437696292,0.7674499750137329,0.3709406852722168,-0.008824810385704,0.7429655194282532,0.3423025608062744,-0.0103473523631691
2023-08-01 16:24:44.861430,32,193,0.9941371083259584,-0.063583955168724,-0.0517092272639274,-0.0705307349562645,-0.013671875,0.96240234375,0.25,0.6369806528091431,0.8004326820373535,-2.928914000221994e-07,0.5967146158218384,0.6831918954849243,0.0020895693451166,0.5872915983200073,0.5573453903198242,0.0105112511664628,0.5871686339378357,0.4619930684566498,0.0094769606366753,0.6030970811843872,0.3914503455162048,0.0107342051342129,0.6531768441200256,0.5011727809906006,0.0724756941199302,0.665094792842865,0.4225070178508758,0.0619708001613616,0.657455563545227,0.3825264573097229,0.041949201375246,0.6444205045700073,0.3641531467437744,0.0297756884247064,0.6876354813575745,0.5024504661560059,0.0597509182989597,0.7069083452224731,0.4093071222305298,0.0453494563698768,0.6931852102279663,0.3745108246803283,0.021976375952363,0.6641130447387695,0.3808624148368835,0.0113314455375075,0.7200614213943481,0.5147401094436646,0.0397160910069942,0.7439247369766235,0.4205773770809173,0.0280441381037235,0.7263556122779846,0.3799543678760528,0.0160727761685848,0.6945840716362,0.3839757144451141,0.0136107383295893,0.7501301169395447,0.5378773808479309,0.0172650031745433,0.7650046944618225,0.4519201517105102,0.0132507728412747,0.7527852654457092,0.3994669616222381,0.0110638253390789,0.7285502552986145,0.38062185049057,0.01289171166718
2023-08-01 16:24:44.917970,33,194,0.995481252670288,-0.0541072078049182,-0.0517470575869083,-0.0584091283380985,-0.052734375,0.96142578125,0.19482421875,0.6347216963768005,0.7756900191307068,-2.387258746239241e-07,0.5968852043151855,0.6700332164764404,-0.00212142476812,0.5855720043182373,0.5543825030326843,0.001106075127609,0.5830084085464478,0.4651413559913635,-0.0032930893357843,0.5953239798545837,0.3990036845207214,-0.005563051905483,0.6545395851135254,0.4991814494132995,0.0568442605435848,0.6667318344116211,0.4266821146011352,0.0429178550839424,0.6574248671531677,0.3926065266132355,0.0216785911470651,0.641465961933136,0.3775336146354675,0.0083715450018644,0.6875888109207153,0.5013489127159119,0.0465309210121631,0.7077314257621765,0.41042160987854,0.0281639620661735,0.6917668581008911,0.3814314603805542,0.0029350093100219,0.6612188816070557,0.3904516994953155,-0.0096288574859499,0.7172887325286865,0.51503986120224,0.0298976898193359,0.7467904090881348,0.423541396856308,0.0150840757414698,0.7276651859283447,0.3876991868019104,0.0001583875709911,0.6937333345413208,0.3930433094501495,-0.0050038904882967,0.7436044216156006,0.5414076447486877,0.0112471655011177,0.7582252025604248,0.4622660875320434,0.0034821180161088,0.7455047369003296,0.4120697379112243,-0.0026479042135179,0.7203232645988464,0.3906673789024353,-0.0041401535272598
2023-08-01 16:24:44.981371,34,195,0.9962506890296936,-0.0443895757198333,-0.0602360256016254,-0.0434250459074974,-0.0693359375,0.96240234375,0.25830078125,0.630898654460907,0.7662959694862366,-2.2002497246376154e-07,0.5942354798316956,0.6682040691375732,-0.0027927211485803,0.5843187570571899,0.5560387969017029,0.0002927683817688,0.5822712182998657,0.4698199927806854,-0.0039130407385528,0.5935788154602051,0.4024639129638672,-0.0061400569975376,0.6528091430664062,0.5045976042747498,0.0534623377025127,0.6661399602890015,0.4351826608181,0.0400946326553821,0.6576427221298218,0.399127185344696,0.0203408095985651,0.643595278263092,0.3810477256774902,0.0078602787107229,0.6853981018066406,0.5077731609344482,0.0430146865546703,0.708013653755188,0.4197885990142822,0.0246098563075065,0.6923968195915222,0.3863157927989959,0.0013702632859349,0.6617838144302368,0.3907090127468109,-0.0095355315133929,0.7141828536987305,0.5219163298606873,0.0262590777128934,0.7452343702316284,0.4329602718353271,0.0107483547180891,0.725768506526947,0.3938423991203308,-0.0024657768663018,0.6917028427124023,0.394223541021347,-0.0060724318027496,0.7392940521240234,0.5471724271774292,0.0074211880564689,0.7529565095901489,0.4701519012451172,-0.0024646334350109,0.7393754720687866,0.419017344713211,-0.0089422399178147,0.7142702341079712,0.3945855498313904,-0.0102123096585273
2023-08-01 16:24:45.048222,35,196,0.9973215460777284,-0.0306066740304231,-0.062220174819231,-0.0232718773186206,0.06640625,0.95068359375,0.16943359375,0.6306853294372559,0.7779449224472046,-2.906108704792132e-07,0.5936070084571838,0.6792132258415222,0.0026566789019852,0.5836203694343567,0.572524905204773,0.0111061781644821,0.581821858882904,0.489854484796524,0.0113308541476726,0.5921803712844849,0.4279926121234894,0.0130875892937183,0.642133891582489,0.5312763452529907,0.0651211366057396,0.6512447595596313,0.4633838534355163,0.0581006556749343,0.6434953212738037,0.4286729991436004,0.0412041433155536,0.6301935315132141,0.4115175008773803,0.030159605666995,0.6721369624137878,0.5313125848770142,0.0542785972356796,0.6866766810417175,0.4509531259536743,0.0423964448273181,0.6729790568351746,0.4190917313098907,0.0196864865720272,0.6453115344047546,0.4187674224376678,0.0077277496457099,0.7012685537338257,0.5401789546012878,0.0373965576291084,0.7197979092597961,0.4589625000953674,0.0268006194382905,0.703545868396759,0.4255805015563965,0.0125258406624197,0.6734706163406372,0.4267119169235229,0.0069885281845927,0.7293005585670471,0.5580680966377258,0.0188218168914318,0.7383724451065063,0.4839170575141907,0.0139504224061965,0.725210428237915,0.4407520294189453,0.0093273939564824,0.7007589936256409,0.4237644076347351,0.0082570649683475
2023-08-01 16:24:45.110373,36,197,0.9977372884750366,-0.0234417729079723,-0.0619701705873012,-0.0114204045385122,0.08251953125,0.96240234375,0.13134765625,0.6284083127975464,0.7623980045318604,-2.0790042754015306e-07,0.5930119156837463,0.6724696755409241,-0.0014346486423164,0.5838379263877869,0.5723415017127991,0.0021392782218754,0.5809962153434753,0.4938595592975616,-0.0007080035866238,0.5895975828170776,0.4326978921890259,-0.0015283647226169,0.6424223184585571,0.5290536880493164,0.0492692478001117,0.6509265899658203,0.4639546871185303,0.0375367179512977,0.6406036615371704,0.4330813884735107,0.0199729222804307,0.6254611015319824,0.4202855825424194,0.0093191927298903,0.6703216433525085,0.5289974808692932,0.0406474173069,0.6859388947486877,0.4495007395744324,0.0261339470744133,0.6697785258293152,0.4211475253105163,0.0055044465698301,0.6420962810516357,0.4244493246078491,-0.0048431195318698,0.6969280242919922,0.5390275716781616,0.0265238918364048,0.7204273343086243,0.4590387046337127,0.0143893994390964,0.7027023434638977,0.4268030822277069,0.0023227590136229,0.6730550527572632,0.4292322993278503,-0.0015768968733027,0.7216899394989014,0.5593255162239075,0.0106711694970726,0.7333762049674988,0.490079253911972,0.0039851390756666,0.7213554382324219,0.4465537071228027,-0.0011191832600161,0.6986379027366638,0.4274637699127197,-0.0021381226833909
2023-08-01 16:24:45.170874,37,198,0.997674286365509,-0.0159707497805356,-0.0662641152739524,0.000196372217033,0.1005859375,0.96533203125,0.142578125,0.6235862970352173,0.7578418850898743,-2.31056603183788e-07,0.5906941294670105,0.6723431348800659,-0.0001687897602096,0.581101655960083,0.572300910949707,0.0039773429743945,0.5778183937072754,0.496171087026596,0.0012828306062147,0.587961733341217,0.4361841380596161,0.0002327780530322,0.6413348317146301,0.5314739346504211,0.0495391748845577,0.6501986384391785,0.4694254696369171,0.0386494100093841,0.6405057907104492,0.4385495781898498,0.0218994729220867,0.6259694695472717,0.4247216880321502,0.0115126566961407,0.670517086982727,0.5336676239967346,0.0394166111946105,0.6874325275421143,0.4578878283500671,0.0246633775532245,0.6695623397827148,0.4297020137310028,0.004454564768821,0.6399251818656921,0.4325213730335235,-0.0054265563376247,0.6968247890472412,0.5453609228134155,0.0239020865410566,0.7220797538757324,0.4674860835075378,0.0102581921964883,0.7017059326171875,0.4338884949684143,-0.0019566568080335,0.6699086427688599,0.4335644841194153,-0.0055447197519242,0.7189711928367615,0.5655286312103271,0.0069266306236386,0.7291654944419861,0.4954096674919128,-0.0018575367284938,0.7146116495132446,0.4518168270587921,-0.0073796370998024,0.6904841065406799,0.4324588775634765,-0.0083686625584959
2023-08-01 16:24:45.229499,38,199,0.9977349638938904,-0.0078788623213768,-0.0659622550010681,0.010574821382761,0.1591796875,0.96435546875,0.076171875,0.6240435242652893,0.7575055360794067,-2.486578125626693e-07,0.5897369384765625,0.6760242581367493,0.0003509675443638,0.5795422196388245,0.5782021284103394,0.0056026559323072,0.5763294100761414,0.5025824308395386,0.0041413274593651,0.5901364088058472,0.4468529224395752,0.0041741682216525,0.6367858052253723,0.5372297167778015,0.0512150041759014,0.6455501914024353,0.4738992154598236,0.041804451495409,0.635949969291687,0.4440023899078369,0.0261105839163064,0.6212772727012634,0.432139903306961,0.0166262052953243,0.6657675504684448,0.5393997430801392,0.0421300008893013,0.6813694834709167,0.46476811170578,0.0292359255254268,0.6648833155632019,0.4374535679817199,0.0091323023661971,0.6365237236022949,0.4380472600460052,-0.0007673601503483,0.6927312612533569,0.5507964491844177,0.027804922312498,0.7154562473297119,0.4745507538318634,0.0151446145027875,0.6971606612205505,0.4417041838169098,0.0022083225194364,0.6670368313789368,0.4388704001903534,-0.0019095455063506,0.7154157161712646,0.5696717500686646,0.0122992787510156,0.721579909324646,0.5005422234535217,0.0037685991264879,0.7070839405059814,0.4580546021461487,-0.0020643903408199,0.684107780456543,0.4369751214981079,-0.0032051091548055
2023-08-01 16:24:45.285404,39,200,0.997707188129425,-0.005308439489454,-0.0657230615615844,0.0152471959590911,0.15869140625,0.97607421875,0.09228515625,0.6197909712791443,0.7660527229309082,-2.2055436943446693e-07,0.585320770740509,0.6881369352340698,0.0007055009482428,0.5755226016044617,0.5935177803039551,0.0074643311090767,0.5703189969062805,0.520513117313385,0.0078371465206146,0.5838464498519897,0.4713328182697296,0.0097233429551124,0.6285977363586426,0.560138463973999,0.0519914142787456,0.6361463665962219,0.5000731348991394,0.0458333827555179,0.629387378692627,0.4701949059963226,0.0326459929347038,0.6202619671821594,0.458327442407608,0.0248169433325529,0.6550494432449341,0.5600157380104065,0.0443337000906467,0.6684011816978455,0.4895125031471252,0.0358890518546104,0.6554877758026123,0.4605638384819031,0.0187239404767751,0.6328681707382202,0.460648238658905,0.0100968685001134,0.6812482476234436,0.5668091773986816,0.0315098762512207,0.6996829509735107,0.49655681848526,0.0227774400264024,0.6833060383796692,0.4654292166233063,0.0107766920700669,0.6570361852645874,0.4647622406482696,0.0066811279393732,0.7047816514968872,0.5791693329811096,0.0174474138766527,0.7126246690750122,0.5125239491462708,0.0134170930832624,0.7002009153366089,0.4738201797008514,0.0095403557643294,0.6794217228889465,0.4588098227977752,0.0090681528672575
2023-08-01 16:24:45.375093,40,201,0.997559130191803,-0.0043204724788665,-0.0678136572241783,0.0160747338086366,0.08984375,0.982421875,0.13671875,0.6166297197341919,0.7572773694992065,-1.5843237122226128e-07,0.5842576026916504,0.6849288940429688,-0.0020471019670367,0.5738099217414856,0.5955401659011841,0.000998715404421,0.5688682198524475,0.5259080529212952,-0.0015013295924291,0.5808672904968262,0.4739848971366882,-0.0024432458449155,0.6289204955101013,0.5598239898681641,0.0424334108829498,0.636735200881958,0.5033362507820129,0.0331107974052429,0.6291254162788391,0.4758617579936981,0.0184527393430471,0.6178522706031799,0.4650480151176452,0.0095489211380481,0.6546300649642944,0.5602368116378784,0.0348721742630004,0.6719505190849304,0.4913992881774902,0.0226871259510517,0.6568422913551331,0.4648603796958923,0.0048209633678197,0.6311810612678528,0.4679405093193054,-0.0039595267735421,0.6785765886306763,0.5692124962806702,0.0224812123924493,0.7006635665893555,0.5000452995300293,0.0117422426119446,0.6826575994491577,0.4686585664749145,0.0005849088774994,0.6551378965377808,0.4683459401130676,-0.0029772066045552,0.6986387968063354,0.5854262709617615,0.0086639672517776,0.7083173990249634,0.5225552320480347,0.001961437985301,0.6969727277755737,0.483063668012619,-0.0029175048694014,0.6776777505874634,0.4661955237388611,-0.0038824891671538
2023-08-01 16:24:45.459493,41,202,0.997488260269165,-0.0025571477599442,-0.0688165128231048,0.0165834538638591,0.10400390625,0.97998046875,0.1171875,0.6164331436157227,0.7653843760490417,-1.7868258339603926e-07,0.5841757655143738,0.6984711289405823,0.0001422091008862,0.5736861824989319,0.6060330271720886,0.0054751909337937,0.5677547454833984,0.535489559173584,0.004817477427423,0.5817277431488037,0.4888966679573059,0.0050555877387523,0.6253035068511963,0.5706132054328918,0.0460905469954013,0.6330522894859314,0.5148570537567139,0.0396042801439762,0.6285011172294617,0.4852238893508911,0.0270643718540668,0.6205070614814758,0.47151979804039,0.0189837403595447,0.6524228453636169,0.5742167234420776,0.0374648720026016,0.6719962954521179,0.5059908032417297,0.0258023608475923,0.6596290469169617,0.4792489409446716,0.0080690830945968,0.6354527473449707,0.480852723121643,-0.0001760434679454,0.6779811978340149,0.5852130055427551,0.0241841673851013,0.7010623812675476,0.515038788318634,0.0121038733050227,0.6833249926567078,0.4822877943515777,-0.0010401305044069,0.6557319164276123,0.4790838062763214,-0.005333756096661,0.6989359855651855,0.6009125113487244,0.0100074661895632,0.7015542984008789,0.5355748534202576,0.0011303587816655,0.6866929531097412,0.4962956309318542,-0.0055925459600985,0.6665635108947754,0.4781447649002075,-0.0076140305027365
2023-08-01 16:24:45.535491,42,203,0.9975346922874452,-0.0023274682462215,-0.067701056599617,0.0183210466057062,0.14892578125,0.962890625,0.13720703125,0.6146790385246277,0.7608860731124878,-1.6112799983147855e-07,0.5839495658874512,0.6954023838043213,-0.0025759078562259,0.5742272734642029,0.6081627607345581,0.0002551483921706,0.5695494413375854,0.5401082634925842,-0.0020407228730618,0.5812253355979919,0.4886799454689026,-0.0027152248658239,0.628234326839447,0.5717971324920654,0.0384426638484001,0.6349234580993652,0.5181336402893066,0.0303126275539398,0.6278864741325378,0.4887461960315704,0.0174032114446163,0.6174548864364624,0.4736347198486328,0.0090901395305991,0.652642548084259,0.5716962814331055,0.031101020053029,0.6665914058685303,0.5044661164283752,0.0199934355914592,0.6509891748428345,0.4752996861934662,0.004292111378163,0.6253669261932373,0.4744792580604553,-0.0034168078564107,0.675827145576477,0.5802244544029236,0.0192063022404909,0.694774329662323,0.5105476975440979,0.0078216716647148,0.6761990785598755,0.4781893491744995,-0.0023337788879871,0.648730456829071,0.4767224788665771,-0.0050712688826024,0.6966000199317932,0.5958094000816345,0.0059463824145495,0.7058504819869995,0.5315762162208557,-0.0028707636520266,0.69269198179245,0.4923012256622314,-0.0081164054572582,0.6712575554847717,0.4775136709213257,-0.0090013677254319
2023-08-01 16:24:45.605639,43,204,0.99759840965271,-0.0030085342004895,-0.0669161826372146,0.017622847110033,0.09912109375,0.95947265625,0.15380859375,0.617154061794281,0.7636997103691101,-1.836372263142039e-07,0.5857058167457581,0.6973046064376831,0.0004799932939931,0.5750397443771362,0.6078214049339294,0.0054116686806082,0.569780707359314,0.5385349988937378,0.0043937005102634,0.5853927135467529,0.4892357587814331,0.0048793964087963,0.6295652985572815,0.572271466255188,0.0459833703935146,0.6359747052192688,0.5183477401733398,0.0403372384607791,0.6287187933921814,0.4915925562381744,0.0282554756850004,0.6180488467216492,0.4785879254341125,0.0203495528548955,0.6541436910629272,0.5726161003112793,0.0376165211200714,0.6686130166053772,0.5048405528068542,0.0284009370952844,0.6535656452178955,0.4768919348716736,0.0122131500393152,0.6274107694625854,0.4766445457935333,0.0042658820748329,0.6774249076843262,0.5819765329360962,0.024715507403016,0.6965926885604858,0.5120026469230652,0.0154756819829344,0.6785708665847778,0.4812611937522888,0.0049560545012354,0.650719404220581,0.4799557626247406,0.0017232110258191,0.6978530883789062,0.5979785323143005,0.010630190372467,0.7055321931838989,0.5339985489845276,0.0034834698308259,0.6923650503158569,0.4949535131454468,-0.0017135298112407,0.6713482141494751,0.4786132574081421,-0.0027888086624443
2023-08-01 16:24:45.681764,44,205,0.9976922869682312,-0.0026588200125843,-0.0656946375966072,0.0169508941471576,0.1201171875,0.97998046875,0.10302734375,0.6162323355674744,0.7607223987579346,-1.690675333065883e-07,0.5854067802429199,0.6950277090072632,-0.0011667835060507,0.573838472366333,0.6069510579109192,0.0023212479427456,0.5678157806396484,0.5390211343765259,0.0005087586469016,0.5825082659721375,0.4899850487709045,6.911658601893578e-06,0.6278135776519775,0.5709637999534607,0.0403224155306816,0.6345863342285156,0.5187261700630188,0.0333689227700233,0.6287486553192139,0.4912816286087036,0.0210019052028656,0.6200488805770874,0.4764475226402282,0.0128083918243646,0.6530158519744873,0.5725827813148499,0.0325987301766872,0.6677510142326355,0.5060751438140869,0.0224394518882036,0.6541840434074402,0.4791512787342071,0.0068556466139853,0.6300790309906006,0.4783727526664734,-0.0008804618264548,0.6766713261604309,0.5825121402740479,0.0204896312206983,0.6973246335983276,0.5142642259597778,0.0102472715079784,0.6808067560195923,0.4827352166175842,0.00046908998047,0.6542114615440369,0.4794514179229736,-0.0023394101299345,0.6965673565864563,0.598966121673584,0.0071795666590332,0.703441321849823,0.5358681082725525,-0.0008151633082889,0.6912255883216858,0.4968883097171783,-0.0057856724597513,0.6716853976249695,0.479001522064209,-0.0066897771321237
2023-08-01 16:24:45.739214,45,206,0.9977864027023317,-0.0027259159833192,-0.0643616765737533,0.0165065620094537,0.07275390625,0.97607421875,0.1455078125,0.6151301264762878,0.7609734535217285,-1.628921069141143e-07,0.5840673446655273,0.6967084407806396,-1.1631232155195905e-05,0.5739973783493042,0.6078446507453918,0.0045689330436289,0.5689889192581177,0.5400652289390564,0.0034702508710324,0.5823272466659546,0.4901266992092132,0.0038688303902745,0.6276224255561829,0.5708668231964111,0.0430631823837757,0.63401198387146,0.51898592710495,0.037348736077547,0.6288013458251953,0.4920851588249206,0.0258251000195741,0.6205469369888306,0.4783022403717041,0.0182026289403438,0.6524333953857422,0.5719638466835022,0.0346965715289115,0.6670718193054199,0.5061216354370117,0.0254429578781127,0.6537570357322693,0.4789783358573913,0.0105245141312479,0.6296664476394653,0.4800882935523987,0.0035758370067924,0.6758047938346863,0.5818110704421997,0.0219095293432474,0.6946398615837097,0.5122719407081604,0.0120373060926795,0.6770275831222534,0.4816333055496216,0.0027300231158733,0.6500908732414246,0.4811269342899322,0.0006238396163098,0.6965206861495972,0.5984088182449341,0.0079280342906713,0.7032490968704224,0.5342302918434143,-0.0003934510750696,0.6888369917869568,0.4959507584571838,-0.0052632107399404,0.6672087907791138,0.4812360107898712,-0.0056945723481476
2023-08-01 16:24:45.802587,46,207,0.9977833032608032,-0.0027951896190643,-0.0641344860196113,0.0175330247730016,0.1279296875,0.9833984375,0.13330078125,0.6156927943229675,0.76179039478302,-1.561766822533173e-07,0.5838913917541504,0.6972296833992004,-0.0011287200031802,0.573604166507721,0.6072885394096375,0.0031291996128857,0.5685189366340637,0.5390905141830444,0.0019925020169466,0.5825417637825012,0.4897909760475158,0.0024010208435356,0.6269473433494568,0.5716719627380371,0.041249718517065,0.6330868005752563,0.5196815729141235,0.0349187031388282,0.6285200119018555,0.4920665621757507,0.0231701415032148,0.6212727427482605,0.4781933128833771,0.0155063355341553,0.6523857712745667,0.5722866654396057,0.0336070619523525,0.6670109033584595,0.506234884262085,0.0237992480397224,0.6537941098213196,0.4788501858711242,0.0087182996794581,0.6301870942115784,0.4800759851932525,0.0016256149392575,0.675996720790863,0.5812990069389343,0.0214995052665472,0.6956086754798889,0.5133265256881714,0.0114601971581578,0.6778099536895752,0.482900321483612,0.0018254034221172,0.6507989764213562,0.4826114177703857,-0.0005782897933386,0.6964280605316162,0.5972571969032288,0.0081241307780146,0.7055086493492126,0.5346421003341675,0.0004943253006786,0.6921777129173279,0.4963604807853699,-0.0042678210884332,0.6708886027336121,0.4814048707485199,-0.0048792795278131
2023-08-01 16:24:45.865657,47,208,0.9978775382041932,-0.0025836224667727,-0.0628302693367004,0.016915300861001,0.12158203125,0.96875,0.1005859375,0.6151259541511536,0.7610864639282227,-1.7215636205492046e-07,0.5840461850166321,0.6970765590667725,-0.0014716039877384,0.5735970735549927,0.6087222695350647,0.001850991975516,0.568472683429718,0.5412299633026123,-0.0001039197813952,0.582369327545166,0.4925385117530823,-0.0004944277461618,0.627739429473877,0.5709999203681946,0.0392319746315479,0.6344512104988098,0.5172972679138184,0.0310301799327135,0.6283169984817505,0.4902758300304413,0.0179544687271118,0.6187019348144531,0.478759229183197,0.0096796099096536,0.6521764993667603,0.5715982913970947,0.0315472818911075,0.6673901677131653,0.5045153498649597,0.0202691126614809,0.6534221172332764,0.4776365756988525,0.004367709159851,0.6281830668449402,0.4798800349235534,-0.0031432923860847,0.6755284667015076,0.5814935564994812,0.0194476302713155,0.6955680251121521,0.5126010179519653,0.0089615387842059,0.6779952645301819,0.4824621677398681,-0.0007360898307524,0.650587260723114,0.4822041392326355,-0.0033020416740328,0.6960412263870239,0.5992363095283508,0.0060046724975109,0.7041786313056946,0.5373275876045227,-0.0022606768179684,0.6912147402763367,0.4979395866394043,-0.0076305023394525,0.6705314517021179,0.4808722138404846,-0.0086424490436911
2023-08-01 16:24:45.922175,48,209,0.9979646801948548,-0.0037721768021583,-0.0619344823062419,0.0147127583622932,0.130859375,0.97265625,0.05908203125,0.6150990128517151,0.7615804672241211,-1.8165651738399904e-07,0.583624541759491,0.6988689303398132,-0.002024695277214,0.5725357532501221,0.6081932187080383,0.0010986162815243,0.5666305422782898,0.5390655994415283,-0.0010415891883894,0.5817175507545471,0.489474892616272,-0.0017556585371494,0.6272298097610474,0.5721683502197266,0.0383849553763866,0.6336604952812195,0.5186343193054199,0.030184393748641,0.6273062825202942,0.4906941652297973,0.0173414759337902,0.6181393265724182,0.477943480014801,0.0090496456250548,0.6521865725517273,0.5736454725265503,0.0305953603237867,0.6676129102706909,0.5053869485855103,0.0188027955591678,0.6530913710594177,0.4777765870094299,0.0026760241016745,0.6279070973396301,0.4792993068695068,-0.0049900659359991,0.675777018070221,0.5837792158126831,0.018378434702754,0.6955424547195435,0.5125217437744141,0.0066813034936785,0.6767022609710693,0.4821130037307739,-0.0038097274955362,0.6488363742828369,0.48171067237854,-0.0067382473498582,0.6959882974624634,0.6007714867591858,0.004922998137772,0.7013931274414062,0.53661048412323,-0.0044729001820087,0.6861861348152161,0.4989704191684723,-0.0103006828576326,0.6643285155296326,0.4840976893901825,-0.0116009777411818
