Timestamp,Index,Frame ID,w,x,y,z,ax,ay,az,x_0,y_0,z_0,x_1,y_1,z_1,x_2,y_2,z_2,x_3,y_3,z_3,x_4,y_4,z_4,x_5,y_5,z_5,x_6,y_6,z_6,x_7,y_7,z_7,x_8,y_8,z_8,x_9,y_9,z_9,x_10,y_10,z_10,x_11,y_11,z_11,x_12,y_12,z_12,x_13,y_13,z_13,x_14,y_14,z_14,x_15,y_15,z_15,x_16,y_16,z_16,x_17,y_17,z_17,x_18,y_18,z_18,x_19,y_19,z_19,x_20,y_20,z_20
2023-08-01 16:24:49.145259,0,258,0.9987532496452332,-0.0150728709995746,-0.0475182309746742,-0.0025884208735078,0.15087890625,1.001953125,0.0771484375,0.6290678381919861,0.7833125591278076,-1.8378264599050453e-07,0.5972430109977722,0.7148685455322266,-0.0010250178165733,0.5866795182228088,0.6275490522384644,0.0010629764292389,0.5797294974327087,0.5617355108261108,-0.002395630814135,0.5925065279006958,0.5130231380462646,-0.0048956084065139,0.6388675570487976,0.5907747149467468,0.0372064225375652,0.6471158266067505,0.5347917675971985,0.026448555290699,0.6395664811134338,0.5065514445304871,0.0120626436546444,0.6295908093452454,0.4972984790802002,0.0032607000321149,0.6653658747673035,0.593980610370636,0.0281840525567531,0.6832991242408752,0.5214239954948425,0.0136824948713183,0.6671624183654785,0.4953022301197052,-0.0038760395254939,0.6415590643882751,0.5000749826431274,-0.0120159946382045,0.6903244256973267,0.6064571142196655,0.014848475344479,0.7146244049072266,0.5288829207420349,0.0005701933987438,0.6927014589309692,0.5007398724555969,-0.0111706750467419,0.6638051867485046,0.503976583480835,-0.014616921544075,0.7102131843566895,0.6259347200393677,0.0006214355817064,0.7090692520141602,0.560627818107605,-0.0111806252971291,0.6880356669425964,0.5268937349319458,-0.0181803703308105,0.6644959449768066,0.5149198770523071,-0.0199728272855281
2023-08-01 16:24:49.212510,1,259,0.9989314675331116,-0.0199670828878879,-0.0396339856088161,-0.0128956837579607,0.1064453125,0.951171875,0.1259765625,0.6280242204666138,0.7821946740150452,-1.908935587380256e-07,0.5966907143592834,0.7155339121818542,-0.0015083150938153,0.5865614414215088,0.6278363466262817,0.0009649402927607,0.5806768536567688,0.5618326663970947,-0.0019219059031456,0.5933341979980469,0.5136343240737915,-0.0038263918831944,0.6377005577087402,0.5883877873420715,0.0359644256532192,0.6454673409461975,0.5323092937469482,0.0253159459680318,0.6390265226364136,0.5049524307250977,0.0114147933200001,0.6312169432640076,0.4975012242794037,0.0031251697801053,0.6645855903625488,0.5915269255638123,0.0274967681616544,0.6821867227554321,0.5194380283355713,0.0135172912850975,0.6670650243759155,0.4952080845832824,-0.0029780219774693,0.6431674957275391,0.5024524927139282,-0.0102063119411468,0.6896888613700867,0.6040983200073242,0.0147357517853379,0.7134818434715271,0.5280721187591553,0.0010146105196326,0.6930872201919556,0.5004042387008667,-0.0098300063982605,0.6657200455665588,0.5043398141860962,-0.0126590011641383,0.7096825242042542,0.6238322257995605,0.0009862298611551,0.7088638544082642,0.5593079924583435,-0.0104558644816279,0.6887990236282349,0.5255770087242126,-0.0169204268604517,0.666012167930603,0.5137697458267212,-0.0182057060301303
2023-08-01 16:24:49.271861,2,260,0.9987093806266784,-0.0288081485778093,-0.0312948115170002,-0.0277542863041162,0.05078125,0.98193359375,0.11328125,0.6260014772415161,0.7731175422668457,-1.9317637622862094e-07,0.5965149998664856,0.7073338627815247,-0.0026489223819226,0.5862342715263367,0.6191919445991516,-0.0015884351450949,0.5802342891693115,0.5527435541152954,-0.0055763595737516,0.5925844311714172,0.5023590326309204,-0.0080211656168103,0.6415954232215881,0.5791207551956177,0.0331818386912345,0.6496148109436035,0.5221278667449951,0.0207627564668655,0.6407482028007507,0.4952504634857178,0.0056471736170351,0.6288852691650391,0.4887579083442688,-0.0029259738512337,0.6666626930236816,0.5820375680923462,0.0252378303557634,0.6829376816749573,0.5112096667289734,0.011270017363131,0.6662931442260742,0.4860416650772095,-0.0047302958555519,0.6407483816146851,0.4916582107543945,-0.0118492497131228,0.690488338470459,0.5944774150848389,0.0128631237894296,0.7131838202476501,0.5195038318634033,-0.0001948082353919,0.6923850178718567,0.492208182811737,-0.009320012293756,0.664530873298645,0.4963677227497101,-0.0109887868165969,0.7101800441741943,0.6152032017707825,-0.0007444474613294,0.7145516276359558,0.5487041473388672,-0.0108150076121091,0.6969817876815796,0.512893557548523,-0.015533709898591,0.6745558381080627,0.5003361701965332,-0.0155310202389955
2023-08-01 16:24:49.340423,3,261,0.998054027557373,-0.0379142165184021,-0.0260883625596761,-0.0420719422399997,-0.05126953125,0.99072265625,0.2275390625,0.6276801228523254,0.7693213820457458,-2.1922404869201278e-07,0.5969923734664917,0.6988015174865723,-0.0018428948242217,0.5872266888618469,0.6131263375282288,-0.001776409917511,0.5804620981216431,0.5471242070198059,-0.0072181988507509,0.5921504497528076,0.4962654709815979,-0.0116943819448351,0.6444486379623413,0.5748297572135925,0.0337973795831203,0.653035581111908,0.516055703163147,0.0192566756159067,0.6418911218643188,0.4893224835395813,0.002339890692383,0.6290198564529419,0.4860099554061889,-0.0072475750930607,0.6711578369140625,0.5794709920883179,0.0245188642293214,0.6905553936958313,0.5068936347961426,0.0081810867413878,0.6710320115089417,0.4811234474182129,-0.009754566475749,0.6429615020751953,0.4874104261398315,-0.0179772898554801,0.6959190368652344,0.5941005349159241,0.0106964530423283,0.7220692038536072,0.5157850980758667,-0.0050419881008565,0.6976990699768066,0.4864366054534912,-0.0163684729486703,0.6672948002815247,0.4897929430007934,-0.0193286538124084,0.7146809101104736,0.6161267757415771,-0.0040638740174472,0.7141245603561401,0.5480805039405823,-0.0172177776694297,0.6921039819717407,0.5132225751876831,-0.023912563920021,0.6677718758583069,0.5012964010238647,-0.0251073949038982
2023-08-01 16:24:49.397091,4,262,0.9972207546234132,-0.0461407601833343,-0.0196080449968576,-0.0551125518977642,-0.08740234375,0.96142578125,0.2568359375,0.6306673288345337,0.7654049396514893,-2.2950624156692362e-07,0.5999035835266113,0.6934040188789368,-0.0010128380963578,0.5921516418457031,0.6069299578666687,-0.0003632938314694,0.586220920085907,0.5400126576423645,-0.0054459953680634,0.5967567563056946,0.487555980682373,-0.0095689194276928,0.6509851813316345,0.5643022656440735,0.0359729565680027,0.6609818339347839,0.5019443035125732,0.0214423649013042,0.6485114097595215,0.4764048159122467,0.0044114775955677,0.635026752948761,0.4739425182342529,-0.0053874524310231,0.6785794496536255,0.569771409034729,0.0259464643895626,0.69825279712677,0.4926089942455292,0.0094296494498848,0.6782613396644592,0.4673393368721008,-0.009569339454174,0.6505414843559265,0.4726487100124359,-0.0185266956686973,0.70358806848526,0.5861250162124634,0.0112896040081977,0.7307819128036499,0.5040857791900635,-0.0049826856702566,0.7049031853675842,0.4759504199028015,-0.017711216583848,0.6731250882148743,0.4785537719726562,-0.0217065457254648,0.7224708795547485,0.6106868982315063,-0.0041604530997574,0.7200961112976074,0.5410795211791992,-0.0180961322039365,0.6965840458869934,0.5061302781105042,-0.0259563997387886,0.6718137860298157,0.4919887185096741,-0.0281192157417535
2023-08-01 16:24:49.460415,5,263,0.9964579939842224,-0.0529342405498027,-0.0165459550917148,-0.0632118135690689,-0.0146484375,0.98291015625,0.16259765625,0.6331144571304321,0.7699382305145264,-2.527221738546359e-07,0.6014982461929321,0.695871114730835,-0.0023351942654699,0.5938498377799988,0.6025915145874023,-0.0021944069303572,0.5872278809547424,0.5325533151626587,-0.0078549906611442,0.5965920686721802,0.479145348072052,-0.0121425986289978,0.6521074771881104,0.5596538782119751,0.0338872149586677,0.6629995107650757,0.4938834607601166,0.0165449399501085,0.6508294939994812,0.4681501090526581,-0.001928751822561,0.6370962858200073,0.4688936173915863,-0.0120721757411956,0.6797987222671509,0.5652920603752136,0.0239771455526351,0.7011858224868774,0.4856622517108917,0.0043762633576989,0.6800782084465027,0.4619494676589966,-0.0147832864895462,0.6510812044143677,0.4718275666236877,-0.0228172466158866,0.7056973576545715,0.5822451710700989,0.0091377170756459,0.734904408454895,0.4972478151321411,-0.0086300028488039,0.7084961533546448,0.469719797372818,-0.0205836538225412,0.676511287689209,0.4760287702083587,-0.0234116092324256,0.7258668541908264,0.6076102256774902,-0.0068075293675065,0.7254112958908081,0.5359135270118713,-0.0211301278322935,0.700942873954773,0.5002937316894531,-0.0288898851722478,0.6749764084815979,0.4878457486629486,-0.0305962674319744
2023-08-01 16:24:49.527019,6,264,0.995181441307068,-0.0643305033445358,-0.0093969339504837,-0.07339658588171,-0.0888671875,0.94970703125,0.20458984375,0.6352705955505371,0.7713432312011719,-2.63803769939841e-07,0.6030493974685669,0.6972706913948059,-0.0012489547953009,0.5945769548416138,0.6023871302604675,-0.0006055120029486,0.5885582566261292,0.5315133333206177,-0.0059082936495542,0.5983529090881348,0.4786257147789001,-0.0100177144631743,0.6545302867889404,0.5541126728057861,0.0344207249581813,0.665409505367279,0.4877273142337799,0.0173889603465795,0.6536766886711121,0.4626142680644989,-0.0009019244462251,0.6402256488800049,0.463074266910553,-0.0109473941847682,0.6832461357116699,0.5607638955116272,0.0237332694232463,0.7040778994560242,0.4777451753616333,0.0033763267565518,0.6830838322639465,0.4557213187217712,-0.016292268410325,0.6546719074249268,0.4671984910964966,-0.0242509711533784,0.7094781994819641,0.5780805349349976,0.0083048790693283,0.7387563586235046,0.4915686845779419,-0.0097813578322529,0.7117794156074524,0.4641741514205932,-0.0223237201571464,0.6793245077133179,0.4698885083198547,-0.0253969375044107,0.7300082445144653,0.6043164134025574,-0.008069354109466,0.7293917536735535,0.5330111384391785,-0.0219321027398109,0.7055806517601013,0.4961169362068176,-0.0296889748424291,0.6801563501358032,0.481039434671402,-0.0314678288996219
2023-08-01 16:24:49.587827,7,265,0.9936048984527588,-0.0751856341958046,-0.0028933868743479,-0.0841902568936348,-0.14306640625,0.94189453125,0.26416015625,0.6322941184043884,0.7584624886512756,-1.772542219669049e-07,0.5990278720855713,0.6796433925628662,-0.0029465181287378,0.5911480784416199,0.5783610343933105,-0.001676968531683,0.5868569612503052,0.5040320754051208,-0.0059437467716634,0.5931534767150879,0.4422752261161804,-0.0087999245151877,0.6559492349624634,0.5320764780044556,0.0374559946358203,0.6666259169578552,0.4643448293209076,0.0223239175975322,0.6559951305389404,0.4334065914154053,0.0038764581549912,0.6407196521759033,0.4271117448806762,-0.0067003578878939,0.6863459348678589,0.5388898849487305,0.0272229630500078,0.7079992890357971,0.4561532139778137,0.010216811671853,0.689364492893219,0.4225748181343078,-0.0100993998348712,0.6581976413726807,0.4238648116588592,-0.0197281185537576,0.7125759720802307,0.5583568215370178,0.0118248211219906,0.7433212995529175,0.4720466732978821,-0.0052693272009491,0.7195199728012085,0.4375021755695343,-0.0190863404422998,0.6852061152458191,0.4371151030063629,-0.0234817992895841,0.7312959432601929,0.5876452922821045,-0.0046831192448735,0.7317409515380859,0.5147013068199158,-0.0199805367738008,0.7093572020530701,0.473777711391449,-0.0287458915263414,0.6819561719894409,0.4554371833801269,-0.0310517102479934
2023-08-01 16:24:49.650337,8,266,0.9915807843208312,-0.0868829563260078,0.0007850853726267,-0.0960118994116783,-0.11962890625,0.8759765625,0.32421875,0.6330388188362122,0.7598652839660645,-2.689135953914956e-07,0.5976352691650391,0.6793625950813293,-0.0003805341839324,0.58870530128479,0.5742095112800598,0.0025794329121708,0.5836060047149658,0.4973304867744446,-0.000704062054865,0.5898524522781372,0.4346239864826202,-0.0029318511951714,0.6529017686843872,0.5270691514015198,0.0421538464725017,0.6601296663284302,0.4585497975349426,0.0296891015022993,0.648277223110199,0.4284706711769104,0.0127624608576297,0.6346023678779602,0.419763445854187,0.0022764089517295,0.6842808127403259,0.534314751625061,0.0307874232530593,0.7022817730903625,0.4501760005950928,0.0156031101942062,0.6804376840591431,0.4205717444419861,-0.0040328316390514,0.6498420238494873,0.4213715195655823,-0.0140415644273161,0.712437093257904,0.5536056160926819,0.0143191087990999,0.7424362897872925,0.461686760187149,-0.0026942887343466,0.7145062685012817,0.4268009066581726,-0.0167071558535099,0.6793472170829773,0.4252963364124298,-0.0217940136790275,0.7339721322059631,0.5808442831039429,-0.002944644074887,0.7307261228561401,0.4993886649608612,-0.0187269132584333,0.7037007808685303,0.46095871925354,-0.0274814404547214,0.674964964389801,0.4462448954582214,-0.0302471723407506
2023-08-01 16:24:49.733381,9,267,0.9881972670555116,-0.1029380038380622,0.0081573696807026,-0.1131514534354209,-0.1591796875,0.8955078125,0.361328125,0.6316311955451965,0.7603325247764587,-2.760011170721555e-07,0.5958575010299683,0.6761707067489624,0.0013941684737801,0.5858111381530762,0.570968747138977,0.0050545488484203,0.5806891918182373,0.4940736293792724,0.001977429492399,0.5877560377120972,0.4311193823814392,-6.9673296820838e-05,0.6508025527000427,0.5211803317070007,0.0458233915269374,0.6584295630455017,0.450188934803009,0.0334063023328781,0.6456987261772156,0.4200622141361236,0.0158609747886657,0.629936158657074,0.4110050797462463,0.0049696406349539,0.6822530627250671,0.5282409191131592,0.0335848703980445,0.6998956799507141,0.4420632123947143,0.0187089778482913,0.6788197755813599,0.4113855063915252,-0.0018859632546082,0.6474568843841553,0.4108762741088867,-0.0127699291333556,0.7110558748245239,0.54767906665802,0.016178973019123,0.7402064204216003,0.4538949131965637,-0.0004309398354962,0.7136043310165405,0.4181559979915619,-0.0154521372169256,0.6779221296310425,0.4155451655387878,-0.0214843899011611,0.7339279055595398,0.5755711793899536,-0.0019122953526675,0.7279748916625977,0.4946807622909546,-0.0172876510769128,0.7010377049446106,0.4562114477157593,-0.0265179201960563,0.6721053123474121,0.4396772384643554,-0.0298333875834941
2023-08-01 16:24:49.806229,10,268,0.9856835603713988,-0.1154878884553909,0.0037408496718853,-0.1227865219116211,-0.18359375,0.8935546875,0.4267578125,0.618948221206665,0.7472817301750183,-2.3299556062283957e-07,0.5813327431678772,0.6623548269271851,-0.0002043995918938,0.5726364254951477,0.5537303686141968,0.0012513378169387,0.5661429166793823,0.4756520986557007,-0.003931782208383,0.5735247731208801,0.4082177877426147,-0.0075911367312073,0.6481824517250061,0.4968343675136566,0.0427568554878234,0.662918746471405,0.4189097583293915,0.0254347827285528,0.6435012817382812,0.3870235085487366,0.0043353047221899,0.6185651421546936,0.3822257220745086,-0.0074497414752841,0.6821156740188599,0.5069218873977661,0.0293708238750696,0.7099829912185669,0.4177233576774597,0.0123755792155861,0.6872494220733643,0.3820191621780395,-0.0086496919393539,0.6524254083633423,0.3820708394050598,-0.0190814416855573,0.7106613516807556,0.530530571937561,0.0101414201781153,0.7473617792129517,0.4317723512649536,-0.0079004140570759,0.7186445593833923,0.3909019231796264,-0.022614361718297,0.6804038286209106,0.3862543106079101,-0.0278383176773786,0.7293687462806702,0.5628464818000793,-0.0100132338702678,0.7296116948127747,0.4755826592445373,-0.0272643528878688,0.70145583152771,0.4293070435523987,-0.0366059094667434,0.6700429320335388,0.4078764021396637,-0.0393741801381111
2023-08-01 16:24:49.882797,11,269,0.9820805191993712,-0.1278920471668243,0.0052647194825112,-0.1383249461650848,-0.22412109375,0.8359375,0.43701171875,0.6163752675056458,0.7537410259246826,-3.531978052251361e-07,0.5780569314956665,0.6672689914703369,0.0015931983944028,0.5701121091842651,0.5500437617301941,0.005267642904073,0.5659575462341309,0.465865284204483,0.0017847599228844,0.5716437697410583,0.3981764614582062,-0.0001515050389571,0.6460325121879578,0.4941863119602203,0.0452915579080581,0.6602310538291931,0.4117100834846496,0.0291086882352828,0.6425528526306152,0.3782757520675659,0.0095980959013104,0.6204227209091187,0.3719850182533264,-0.001581241027452,0.6795098781585693,0.5041354298591614,0.0314788296818733,0.702048122882843,0.4076154828071594,0.0131275001913309,0.6751631498336792,0.3730050027370453,-0.0083420667797327,0.6381939649581909,0.3735113739967346,-0.0186111275106668,0.7095941305160522,0.5263783931732178,0.0121147083118557,0.7447101473808289,0.4224493503570556,-0.0066981306299567,0.7137961387634277,0.3817833065986633,-0.0218239966779947,0.6742546558380127,0.3779959082603454,-0.0271200090646743,0.7328140139579773,0.5568270683288574,-0.0080432016402482,0.7289556264877319,0.4680132865905761,-0.0252508372068405,0.699942409992218,0.4224341511726379,-0.0351995527744293,0.6692522764205933,0.4015057682991028,-0.0383330769836902
2023-08-01 16:24:49.955908,12,270,0.978360116481781,-0.1385266482830047,0.0059282793663442,-0.1535791903734207,-0.30078125,0.80029296875,0.43408203125,0.6081835627555847,0.7535644769668579,-3.255689193792932e-07,0.5647631883621216,0.6657959222793579,-0.0010019631590694,0.5541452169418335,0.5401769280433655,0.0008010459714569,0.548652172088623,0.4485822319984436,-0.0040006255730986,0.5556213855743408,0.3732643723487854,-0.0071860207244753,0.6355822086334229,0.4756449162960052,0.045343454927206,0.6521061062812805,0.3896188735961914,0.027158161625266,0.6320021152496338,0.3552019596099853,0.0052666715346276,0.6070339679718018,0.3544669151306152,-0.0071054673753678,0.6728151440620422,0.4875097572803497,0.031875055283308,0.6996589303016663,0.3890237212181091,0.012574796564877,0.6721627116203308,0.3511499762535095,-0.0113319419324398,0.6322383880615234,0.3546447157859802,-0.0232991054654121,0.7055779099464417,0.5138797163963318,0.0123326294124126,0.7442672848701477,0.4040353298187256,-0.0081714512780308,0.7116362452507019,0.3603489696979522,-0.0257050190120935,0.6694502830505371,0.3576337695121765,-0.0325359739363193,0.7300577163696289,0.5488640666007996,-0.007969950325787,0.7216607928276062,0.4521287679672241,-0.0285880044102668,0.6895380020141602,0.4041537046432495,-0.0408793725073337,0.6570357084274292,0.3829343318939209,-0.0451607070863246
2023-08-01 16:24:50.020770,13,271,0.9751242399215698,-0.1464655697345733,0.0054772458970546,-0.1662845164537429,-0.2744140625,0.83251953125,0.46484375,0.6069668531417847,0.7643900513648987,-3.312495095997292e-07,0.5637914538383484,0.6726909875869751,-0.0038967239670455,0.5524476766586304,0.5415831208229065,-0.0038344543427228,0.5469949245452881,0.4448154270648956,-0.0105861062183976,0.5569952130317688,0.366805225610733,-0.0152930635958909,0.6351247429847717,0.475035697221756,0.0445230416953563,0.647492527961731,0.3853441774845123,0.0250150393694639,0.6315085291862488,0.3466911017894745,0.0015527048381045,0.6090357303619385,0.3389543890953064,-0.0126781752333045,0.6751617789268494,0.486944168806076,0.0305788628756999,0.7008305191993713,0.384901762008667,0.0077734608203172,0.6716786623001099,0.3437060713768005,-0.0189402550458908,0.6268588304519653,0.3444424867630005,-0.0326850451529026,0.7089808583259583,0.5138428211212158,0.0101906703785061,0.7520316243171692,0.4009120166301727,-0.013380785472691,0.7192961573600769,0.3531846404075622,-0.0329351425170898,0.673244297504425,0.3496496081352234,-0.0408102758228778,0.7333340644836426,0.5489787459373474,-0.0113817509263753,0.731746256351471,0.4523224234580993,-0.034835398197174,0.6990396976470947,0.4011425375938415,-0.0491193607449531,0.6615965962409973,0.3799590468406677,-0.0545731633901596
2023-08-01 16:24:50.081310,14,272,0.973118245601654,-0.1516647040843963,0.0040936674922704,-0.1732681989669799,-0.31591796875,0.8349609375,0.47412109375,0.6066397428512573,0.7713543176651001,-3.505623453747831e-07,0.5655567049980164,0.6745870113372803,-0.0039111752994358,0.5523864030838013,0.5394487380981445,-0.0028536366298794,0.5454563498497009,0.4414496421813965,-0.009082430973649,0.5543793439865112,0.3619922399520874,-0.0131955435499548,0.6347109079360962,0.4709892570972442,0.0476501993834972,0.6472530364990234,0.3857816159725189,0.0287589449435472,0.6330263614654541,0.3461458086967468,0.005341675132513,0.6111156940460205,0.3312693834304809,-0.0089636845514178,0.675019383430481,0.4811731278896332,0.0335336066782474,0.6986657977104187,0.3777949213981628,0.0113111399114131,0.6689369082450867,0.3364315629005432,-0.0136789800599217,0.623225748538971,0.3340570330619812,-0.0257189869880676,0.7101105451583862,0.507034182548523,0.0126912808045744,0.7517282962799072,0.393748939037323,-0.0104031497612595,0.7204204797744751,0.3486337065696716,-0.0263180546462535,0.6746827363967896,0.3466752171516418,-0.0308949779719114,0.7363812327384949,0.5440582633018494,-0.0096807423979043,0.7391102910041809,0.4444595873355865,-0.0304711554199457,0.7083731889724731,0.3923190236091614,-0.0403869897127151,0.6707746386528015,0.3708647787570953,-0.04239397123456
2023-08-01 16:24:50.145202,15,273,0.9701871871948242,-0.1583742797374725,0.0056966422125697,-0.1833630502223968,-0.35107421875,0.80712890625,0.47705078125,0.6106066703796387,0.7748167514801025,-2.899145670198777e-07,0.5664224028587341,0.6783917546272278,-0.0112868631258606,0.5550257563591003,0.5361205339431763,-0.0160997379571199,0.5476439595222473,0.4294565916061401,-0.0270042680203914,0.5621160864830017,0.3442825675010681,-0.0357173755764961,0.6451260447502136,0.4580175280570984,0.0402130112051963,0.6599965691566467,0.3630390763282776,0.0156364366412162,0.6427111029624939,0.3204383850097656,-0.0126177724450826,0.6194537281990051,0.3092434406280517,-0.0299799442291259,0.688056468963623,0.4718385934829712,0.0271492134779691,0.7202577590942383,0.3599011898040771,-0.001310508698225,0.687423586845398,0.3150178790092468,-0.0327266193926334,0.6378636360168457,0.3160879611968994,-0.0487013161182403,0.7249710559844971,0.5030704140663147,0.0068723070435225,0.775771975517273,0.3834254145622253,-0.0208889227360487,0.7381494045257568,0.3320351243019104,-0.0419975072145462,0.6864614486694336,0.3272016644477844,-0.0497626774013042,0.752785861492157,0.5472099781036377,-0.0152156604453921,0.7583263516426086,0.4399754703044891,-0.040653146803379,0.7272081971168518,0.3847465515136719,-0.0545136779546737,0.6889593601226807,0.3627517223358154,-0.0589969269931316
2023-08-01 16:24:50.210194,16,274,0.9680506587028505,-0.1638804227113723,0.0029593363869935,-0.1897689402103424,-0.3603515625,0.83642578125,0.49658203125,0.6127179861068726,0.7944928407669067,-2.983219360430667e-07,0.5669244527816772,0.6854294538497925,-0.0095237670466303,0.5568698644638062,0.5389304161071777,-0.0128567116335034,0.5498384237289429,0.4289264380931854,-0.0237135421484708,0.5625876784324646,0.3395934700965881,-0.031820148229599,0.643716037273407,0.4646477401256561,0.0453430972993373,0.6575968265533447,0.3616282939910888,0.0169239118695259,0.641602098941803,0.317018449306488,-0.0133221745491027,0.6198012828826904,0.3104731440544128,-0.0308795403689146,0.6901029944419861,0.4772340953350067,0.030485164374113,0.7226927280426025,0.355270504951477,-0.0011621310841292,0.6914066076278687,0.3059733510017395,-0.0332073904573917,0.6428504586219788,0.3089004755020141,-0.048588890582323,0.7289727926254272,0.5086824893951416,0.0075971707701683,0.7806460857391357,0.3776872158050537,-0.0226436294615268,0.7424566149711609,0.3252217173576355,-0.0430734008550643,0.6898547410964966,0.323567271232605,-0.0494759976863861,0.7577403783798218,0.5519658923149109,-0.0173717066645622,0.7611830234527588,0.4427085816860199,-0.0444582141935825,0.7257246971130371,0.3849185705184936,-0.0592518933117389,0.6839606165885925,0.3615961074829101,-0.0637695491313934
2023-08-01 16:24:50.279705,17,275,0.966856837272644,-0.1661064475774765,0.0027099144645035,-0.193879634141922,-0.34130859375,0.83544921875,0.46923828125,0.616152822971344,0.8054933547973633,-3.2500963698112173e-07,0.5708979368209839,0.6910128593444824,-0.0096933031454682,0.5583459138870239,0.5428562164306641,-0.0129431327804923,0.5509229898452759,0.4308922588825226,-0.0235421992838382,0.5637248754501343,0.3400352597236633,-0.0317526012659072,0.6428841948509216,0.464251160621643,0.0450797118246555,0.6579201817512512,0.3626683950424194,0.0186877269297838,0.643523097038269,0.3185515403747558,-0.0108067048713564,0.6242833733558655,0.3051810562610626,-0.0290442630648612,0.6904255747795105,0.4765812158584595,0.0304928813129663,0.7238423228263855,0.3514741957187652,-0.0009913913672789,0.6930879354476929,0.3071127533912658,-0.033395417034626,0.6445806622505188,0.3095623254776001,-0.0493657849729061,0.7308924198150635,0.5080084800720215,0.0081565268337726,0.7846309542655945,0.3740459680557251,-0.0223998911678791,0.7458308935165405,0.3242076635360718,-0.0445902310311794,0.6910685896873474,0.3229503035545349,-0.0525731891393661,0.761097252368927,0.5530230402946472,-0.0161175727844238,0.7668465971946716,0.4433895349502563,-0.0426997020840644,0.7308733463287354,0.3865023851394653,-0.0581625960767269,0.6868113875389099,0.3629736304283142,-0.0639101192355156
2023-08-01 16:24:50.345518,18,276,0.9662389159202576,-0.1677308976650238,0.002785081975162,-0.1955530792474746,-0.34814453125,0.83203125,0.49951171875,0.6193913221359253,0.8254479169845581,-3.065680402869475e-07,0.5728694796562195,0.7127538919448853,-0.0096446527168154,0.5645365715026855,0.5556653141975403,-0.0110235828906297,0.5599259734153748,0.43951216340065,-0.0196736548095941,0.5712311267852783,0.3474342823028564,-0.0262571293860673,0.6509410738945007,0.4694917201995849,0.0449659191071987,0.669465184211731,0.3711603879928589,0.0191766768693923,0.6615028381347656,0.3213013410568237,-0.0102168023586273,0.6449691653251648,0.3022403717041015,-0.028665592893958,0.7028673887252808,0.4843668937683105,0.0290663093328475,0.7427698969841003,0.3594707250595093,-0.0031918007880449,0.7169054746627808,0.3105034828186035,-0.0357136689126491,0.666584312915802,0.3144583106040954,-0.0509210526943206,0.7459942102432251,0.5182980298995972,0.0054666376672685,0.803631067276001,0.3844186663627624,-0.0259103085845708,0.7686591148376465,0.3281707167625427,-0.0479828752577304,0.7131659984588623,0.3253457546234131,-0.0552453584969043,0.7781180143356323,0.5668101906776428,-0.0201837606728076,0.7847080826759338,0.4544998705387115,-0.0493509024381637,0.7487138509750366,0.3939691185951233,-0.065459668636322,0.7027455568313599,0.369793176651001,-0.0707998871803283
2023-08-01 16:24:50.408320,19,277,0.9662613272666932,-0.1680980324745178,0.0030821019317954,-0.1951221525669098,-0.32568359375,0.82568359375,0.50927734375,0.6239904165267944,0.8366329669952393,-2.726741286096513e-07,0.5784717798233032,0.7156651020050049,-0.0124292783439159,0.5658383965492249,0.5609362721443176,-0.0175441987812519,0.5585398077964783,0.4422691762447357,-0.0301752462983131,0.5749599933624268,0.3483264148235321,-0.0401407442986965,0.6527899503707886,0.4702532887458801,0.046891376376152,0.6687889099121094,0.3663857579231262,0.0183224193751811,0.6588093638420105,0.3177541494369507,-0.0147475358098745,0.6428707242012024,0.3006214797496795,-0.0357411280274391,0.7032759785652161,0.4834636747837066,0.0322804190218448,0.7396581768989563,0.3549842536449432,-0.0023056385107338,0.7119564414024353,0.3092759847640991,-0.0382805168628692,0.6627282500267029,0.3145470023155212,-0.056215763092041,0.7457066774368286,0.5171101689338684,0.0093668233603239,0.8027834892272949,0.381248414516449,-0.0220966897904872,0.7670861482620239,0.3296238780021667,-0.0466878041625022,0.7110700607299805,0.3317771553993225,-0.0563100054860115,0.777979850769043,0.566885769367218,-0.0160252172499895,0.7878756523132324,0.4554252624511719,-0.0427423194050788,0.7536901831626892,0.3955017328262329,-0.0592355094850063,0.7079246640205383,0.372154951095581,-0.0657365545630455
2023-08-01 16:24:50.474153,20,278,0.9667895436286926,-0.1661949902772903,0.0031071142293512,-0.194132849574089,-0.32861328125,0.82763671875,0.48681640625,0.6234205365180969,0.8424307107925415,-3.123655005765613e-07,0.5797555446624756,0.7171505689620972,-0.0087559046223759,0.5665181279182434,0.5616406798362732,-0.0116472337394952,0.5582993626594543,0.4443228244781494,-0.0227748192846775,0.5742179751396179,0.3510804176330566,-0.0316587872803211,0.6511552929878235,0.4721577167510986,0.0502945967018604,0.6678783893585205,0.3732271790504455,0.0230460800230503,0.6595773100852966,0.3244219422340393,-0.0090952962636947,0.6435822248458862,0.3045119643211365,-0.0293006729334592,0.7026256918907166,0.4859808087348938,0.034308485686779,0.7374217510223389,0.3594871163368225,0.0010848701931536,0.7099819183349609,0.3146063387393951,-0.0337380692362785,0.660240888595581,0.3204240798950195,-0.0507098250091075,0.7465922236442566,0.5187853574752808,0.0103507246822118,0.803725004196167,0.3833841383457184,-0.0205909460783004,0.768347978591919,0.3311317563056946,-0.0434584207832813,0.7126650214195251,0.3339051604270935,-0.0513370856642723,0.7797590494155884,0.5679298043251038,-0.0157566871494054,0.7905840873718262,0.4538807868957519,-0.0418742895126342,0.7566325068473816,0.393251359462738,-0.0564404614269733,0.7112232446670532,0.3705663681030273,-0.0609890967607498
2023-08-01 16:24:50.531688,21,279,0.9676124453544616,-0.1632249802350998,0.0028750183992087,-0.192549854516983,-0.3046875,0.81005859375,0.47412109375,0.6244180202484131,0.8420718908309937,-2.830613539117621e-07,0.5794863104820251,0.7196685075759888,-0.0119145968928933,0.5659512281417847,0.5644785761833191,-0.016905490309,0.5596445202827454,0.4457601904869079,-0.029166642576456,0.5756909847259521,0.3499156832695007,-0.0391252785921096,0.6499536037445068,0.4717217683792114,0.0446493960916996,0.6677126288414001,0.3716294467449188,0.0164811294525861,0.6614569425582886,0.3243182897567749,-0.0159567035734653,0.6468654274940491,0.3075457215309143,-0.036215603351593,0.7029939889907837,0.4876700341701507,0.0299634803086519,0.7412561178207397,0.3619523644447326,-0.0052307588048279,0.7151512503623962,0.320010781288147,-0.0410511828958988,0.6657934784889221,0.3308475315570831,-0.0582364499568939,0.7469470500946045,0.5219328999519348,0.007428778335452,0.8057724237442017,0.3874413967132568,-0.024065013974905,0.7712729573249817,0.3359692692756653,-0.0469758287072181,0.7163663506507874,0.3395865857601166,-0.0549861826002597,0.7798342704772949,0.5721430778503418,-0.0173907186836004,0.7896031141281128,0.4598937034606933,-0.0439969822764396,0.756298840045929,0.3991473317146301,-0.0588461086153984,0.7120907306671143,0.3757854104042053,-0.0636091977357864
2023-08-01 16:24:50.595265,22,280,0.9687013030052184,-0.1600904613733291,0.0033233335707336,-0.1896779984235763,-0.3115234375,0.810546875,0.47509765625,0.6226903796195984,0.8398617506027222,-2.900713411690959e-07,0.5794944167137146,0.7174922823905945,-0.0106077939271926,0.5674284100532532,0.5617260336875916,-0.0151923215016722,0.5604775547981262,0.4442737996578216,-0.0276084542274475,0.5786523818969727,0.3505977094173431,-0.0378636643290519,0.6523582935333252,0.4710695445537567,0.0456565134227275,0.6711177229881287,0.3703571259975433,0.0155916344374418,0.6621124148368835,0.3226999044418335,-0.0183476507663726,0.6439669728279114,0.3097241520881653,-0.0387844406068325,0.7043257355690002,0.4869764447212219,0.0301387682557106,0.7445809841156006,0.3604931831359863,-0.005537062883377,0.7160707712173462,0.3163267970085144,-0.0416684336960315,0.6642471551895142,0.3272663950920105,-0.0588623359799385,0.7474634647369385,0.5218287110328674,0.0066272332333028,0.8063427805900574,0.387808233499527,-0.0248479600995779,0.7693127393722534,0.3370218873023987,-0.0481006018817424,0.7129867672920227,0.342040866613388,-0.0562829971313476,0.7791572213172913,0.5720564723014832,-0.0191323161125183,0.789847731590271,0.4593439698219299,-0.0446620769798755,0.7538827657699585,0.399616926908493,-0.0590169690549373,0.7073850035667419,0.3779048025608063,-0.0636708959937095
2023-08-01 16:24:50.659997,23,281,0.9701367616653442,-0.1550971567630767,0.0029213489033281,-0.1864697933197021,-0.35693359375,0.8125,0.49755859375,0.6251190304756165,0.8417531251907349,-2.830736605119455e-07,0.5790920257568359,0.7184836864471436,-0.0079009365290403,0.5673142075538635,0.5626370310783386,-0.0095564825460314,0.5599943399429321,0.4464116096496582,-0.0192269627004861,0.5752320289611816,0.3556089103221893,-0.026773601770401,0.6518151760101318,0.4719379544258117,0.0493699759244918,0.6686760187149048,0.3743073344230652,0.0239641014486551,0.6625110507011414,0.3254494667053222,-0.0063469936139881,0.6482768654823303,0.3055602312088012,-0.025354141369462,0.7038070559501648,0.4864396452903747,0.0334911905229091,0.7407270669937134,0.3612197935581207,0.0019728981424123,0.7163262963294983,0.3155244290828705,-0.031126907095313,0.668492317199707,0.3217480182647705,-0.0468157827854156,0.7473596930503845,0.5203205347061157,0.0099887531250715,0.8058215379714966,0.387709379196167,-0.0189314503222703,0.7728855013847351,0.3355970382690429,-0.0403459705412387,0.7187504768371582,0.3378836512565613,-0.0475736074149608,0.7796639204025269,0.5702033042907715,-0.0156306512653827,0.7900526523590088,0.4594675302505493,-0.0404175482690334,0.7564465403556824,0.3984584510326385,-0.0542300455272197,0.7115777134895325,0.3739538192749023,-0.0583470650017261
2023-08-01 16:24:50.719000,24,282,0.9724470376968384,-0.1469330340623855,0.0018768905429169,-0.1809804737567901,-0.36083984375,0.8251953125,0.486328125,0.625735878944397,0.8375530242919922,-3.154059129428788e-07,0.583265483379364,0.7181465029716492,-0.0087038669735193,0.5717536807060242,0.5599414706230164,-0.0098444614559412,0.5654272437095642,0.445148229598999,-0.0186142604798078,0.5793775916099548,0.3558944463729858,-0.0250623691827058,0.6583350896835327,0.4727030098438263,0.0466838516294956,0.6766290068626404,0.3749725818634033,0.02173294685781,0.6684373617172241,0.327218234539032,-0.0075368788093328,0.6508749723434448,0.3066764771938324,-0.0256346967071294,0.7076784372329712,0.4867357909679413,0.0319030359387397,0.7435638904571533,0.3631811738014221,0.0011337166652083,0.7162900567054749,0.3182120323181152,-0.0302601959556341,0.6671909093856812,0.3222939372062683,-0.0448591597378253,0.748619556427002,0.5190055966377258,0.0096024982631206,0.8053131699562073,0.3901127576828003,-0.0182627625763416,0.7698687314987183,0.3401756286621094,-0.0374861694872379,0.7153568267822266,0.3410159945487976,-0.043298915028572,0.7782228589057922,0.5667264461517334,-0.0149923460558056,0.7915433645248413,0.4583749175071716,-0.0373838059604167,0.7585777640342712,0.3970943689346313,-0.0491664409637451,0.7143738865852356,0.3708688914775848,-0.0522345975041389
2023-08-01 16:24:50.773999,25,283,0.9756807684898376,-0.136717140674591,-0.000553949852474,-0.1713337302207946,-0.3310546875,0.8427734375,0.45556640625,0.6290217638015747,0.8307462930679321,-3.201616607384495e-07,0.5850358009338379,0.7124173045158386,-0.007230554241687,0.5729979872703552,0.558789074420929,-0.0080897426232695,0.5664709210395813,0.4465351104736328,-0.0168914515525102,0.5817679762840271,0.3621790707111358,-0.023433206602931,0.6564630270004272,0.4689831733703613,0.0477504879236221,0.6756187081336975,0.3738167881965637,0.0237069819122552,0.6685424447059631,0.3286669850349426,-0.004752573557198,0.653101921081543,0.3103194236755371,-0.022279892116785,0.7047660946846008,0.481505274772644,0.0330267362296581,0.7393527030944824,0.360079288482666,0.0037326973397284,0.7134164571762085,0.3199983239173889,-0.0261383950710296,0.6672992706298828,0.3269927501678467,-0.0397622510790824,0.7459895610809326,0.5120559930801392,0.0109600769355893,0.8000630140304565,0.3854364454746246,-0.0149685265496373,0.7675572037696838,0.3386233448982239,-0.0334036126732826,0.7168392539024353,0.3423348069190979,-0.0389486365020275,0.7767856121063232,0.5591270327568054,-0.0133392633870244,0.7917543649673462,0.4507325291633606,-0.0334064066410064,0.7616066336631775,0.3918456435203552,-0.0438466146588325,0.719982922077179,0.3693254590034485,-0.0462473668158054
2023-08-01 16:24:50.844129,26,284,0.9800852537155152,-0.1237978562712669,-0.0069027300924062,-0.1551108509302139,-0.2421875,0.8359375,0.45947265625,0.6242347359657288,0.8288794755935669,-3.0145324103614257e-07,0.5844309329986572,0.7087864875793457,-0.0083761662244796,0.5748791694641113,0.5554171800613403,-0.0098166856914758,0.5698869228363037,0.4426361322402954,-0.0187945328652858,0.5863224864006042,0.3547605872154236,-0.0256630238145589,0.6597957611083984,0.4748444259166717,0.0459858886897563,0.6777146458625793,0.3806018829345703,0.0220505036413669,0.6709817051887512,0.3322290182113647,-0.0063972515054047,0.6561727523803711,0.3102883398532867,-0.0244883671402931,0.7084128260612488,0.49009570479393,0.0310584492981433,0.7463115453720093,0.3706722259521484,-0.0001214397707371,0.7202195525169373,0.3247288465499878,-0.0321126580238342,0.672557532787323,0.3282430768013,-0.0472989492118358,0.7480054497718811,0.5222148895263672,0.0089099509641528,0.805336594581604,0.3953685462474823,-0.0191977769136428,0.7715025544166565,0.3425807356834411,-0.0387971252202987,0.7188085317611694,0.3418185710906982,-0.044929314404726,0.7762508392333984,0.5688610076904297,-0.0153917511925101,0.7899764180183411,0.4614787697792053,-0.0382703430950641,0.7591381669044495,0.3984808325767517,-0.0505933463573455,0.7166215181350708,0.3715587258338928,-0.0540745481848716
2023-08-01 16:24:50.902696,27,285,0.9836262464523317,-0.1128711253404617,-0.016651390120387,-0.1395071297883987,-0.21240234375,0.8671875,0.42919921875,0.6302341222763062,0.8219727277755737,-3.351122472849966e-07,0.5871104001998901,0.7063176035881042,-0.0074759600684046,0.5762171745300293,0.5550849437713623,-0.0080186668783426,0.5708026885986328,0.4454523622989654,-0.016755012795329,0.5835421085357666,0.3593974113464355,-0.0225984994322061,0.6592748165130615,0.4689719378948211,0.0507956556975841,0.6791853904724121,0.3748829066753387,0.0248537678271532,0.6688017845153809,0.3312224149703979,-0.0045733177103102,0.6491195559501648,0.317560076713562,-0.0212280880659818,0.7040100693702698,0.4786213338375091,0.0371489264070987,0.7362303733825684,0.3606319427490234,0.0064058462157845,0.7102792263031006,0.3240622878074646,-0.0235615596175193,0.6661524176597595,0.3353730142116546,-0.0357129611074924,0.743792712688446,0.5051493048667908,0.0157886892557144,0.7912874221801758,0.3820909857749939,-0.0098511418327689,0.7620430588722229,0.3392121195793152,-0.0257548093795776,0.7166644334793091,0.3468261361122131,-0.0280782673507928,0.7762723565101624,0.5481573939323425,-0.0080872578546404,0.7938541173934937,0.439576119184494,-0.0252310875803232,0.7711607813835144,0.3771374225616455,-0.0326952300965786,0.7366018891334534,0.3512189388275146,-0.0321809761226177
2023-08-01 16:24:50.961474,28,286,0.986880898475647,-0.0985672399401664,-0.0206350032240152,-0.1261936873197555,-0.255859375,0.869140625,0.33984375,0.6301383972167969,0.8116550445556641,-3.551651559519087e-07,0.5909594893455505,0.692988932132721,-0.0010177836520597,0.581328272819519,0.5472552180290222,0.0039570145308971,0.5778818130493164,0.4414871335029602,-0.0003928423975594,0.5865839719772339,0.3583273887634277,-0.0026158757973462,0.6583133339881897,0.4763894379138946,0.0610959231853485,0.67686927318573,0.3878284096717834,0.0420035906136035,0.6666567325592041,0.3467031717300415,0.0168360266834497,0.6475021839141846,0.334481418132782,0.0020296503789722,0.6989346742630005,0.4837178587913513,0.0465979054570198,0.7289427518844604,0.3701963424682617,0.0223097018897533,0.7056505680084229,0.3332998752593994,-0.0057053728960454,0.6637771725654602,0.3440955877304077,-0.0184809267520904,0.7347995042800903,0.5057758688926697,0.0247708465903997,0.7782553434371948,0.392926424741745,0.0050952997989952,0.7498894929885864,0.3527512848377228,-0.0110925119370222,0.7052741646766663,0.3591838777065277,-0.0159313380718231,0.7644928693771362,0.5429612398147583,0.0007256681565195,0.778914213180542,0.4478698372840881,-0.0104750916361808,0.7561286687850952,0.392987847328186,-0.0175155140459537,0.7212142944335938,0.3693358302116394,-0.0189900528639554
2023-08-01 16:24:51.025393,29,287,0.9905869364738464,-0.0823615193367004,-0.030799901112914,-0.1049068644642829,-0.1416015625,0.90380859375,0.3408203125,0.6327630281448364,0.8046276569366455,-3.432844266626489e-07,0.5939908027648926,0.6894655227661133,-0.001452914555557,0.5833996534347534,0.5502451062202454,0.0032889435533434,0.5797948241233826,0.4487560987472534,-0.0008930113399401,0.5893462300300598,0.3690855801105499,-0.0030400408431887,0.6581411361694336,0.4843235313892364,0.0607285946607589,0.6751540899276733,0.4023812115192413,0.0446220114827156,0.6652028560638428,0.3614259660243988,0.0215550400316715,0.6480048298835754,0.3427271246910095,0.0070519289001822,0.6975306272506714,0.4900863468647003,0.046791099011898,0.7269974946975708,0.3855493366718292,0.0242770574986934,0.7041387557983398,0.3517473638057709,-0.0023599897976964,0.6641100645065308,0.3604195713996887,-0.0143718468025326,0.7324785590171814,0.5096110701560974,0.0258034355938434,0.7750571966171265,0.3987336158752441,0.0066269026137888,0.7478098273277283,0.3563477396965027,-0.0085253389552235,0.7048700451850891,0.3594302833080292,-0.0126650324091315,0.7612196207046509,0.5431981682777405,0.002671301132068,0.7755463123321533,0.449187159538269,-0.0095845460891723,0.7537158131599426,0.3949251472949981,-0.016360905021429,0.72026127576828,0.371971070766449,-0.0173032283782959
2023-08-01 16:24:51.092769,30,288,0.9929692149162292,-0.0706053227186203,-0.0389206744730472,-0.0866724699735641,-0.056640625,0.90087890625,0.28955078125,0.6347630620002747,0.7949122190475464,-3.365881866557175e-07,0.5953914523124695,0.6803543567657471,0.0030475435778498,0.5863624215126038,0.5490590929985046,0.0103245666250586,0.5838996767997742,0.4516218602657318,0.0076854042708873,0.5926492810249329,0.3726177215576172,0.0067662764340639,0.6600785255432129,0.4888297617435455,0.068064384162426,0.6762297749519348,0.4108972549438476,0.0561394654214382,0.6663051843643188,0.3729777336120605,0.0356631278991699,0.6512922048568726,0.3539980351924896,0.022348353639245,0.6983334422111511,0.4950007498264313,0.0523462444543838,0.7276433110237122,0.3924395442008972,0.0336924046277999,0.7054305076599121,0.3608108758926391,0.0085741421207785,0.6684384346008301,0.3691522181034088,-0.0032020872458815,0.7320255041122437,0.5136391520500183,0.0297512784600257,0.7724651098251343,0.4046679735183716,0.0124224768951535,0.7441030144691467,0.3657947182655334,-0.0026999732945114,0.7030234336853027,0.3706069588661194,-0.0071899085305631,0.7605206966400146,0.5436005592346191,0.0054373838938772,0.7751469612121582,0.4469979107379913,-0.0058576590381562,0.7494597434997559,0.3955824375152588,-0.012150801718235,0.7135371565818787,0.3768702149391174,-0.0132654579356312
2023-08-01 16:24:51.147786,31,289,0.9947124719619752,-0.0602957941591739,-0.0454056784510612,-0.0696398094296455,-0.0390625,0.97412109375,0.13623046875,0.6415674090385437,0.7977672815322876,-3.366210137301096e-07,0.6041817665100098,0.685146689414978,0.0052623762749135,0.5941213965415955,0.565474271774292,0.013374675065279,0.592168927192688,0.4749266803264618,0.0114299375563859,0.6060497760772705,0.4059472382068634,0.0113906366750597,0.6607472896575928,0.5084701776504517,0.0706580355763435,0.6751033067703247,0.4299246668815613,0.0591041222214698,0.6648679971694946,0.3918203711509704,0.0389990769326686,0.6480434536933899,0.3770008087158203,0.0271593797951936,0.6927685737609863,0.5117756128311157,0.0563898868858814,0.715711236000061,0.4173028469085693,0.0404084548354148,0.6981405019760132,0.3868695497512817,0.0169191528111696,0.6662067770957947,0.3949609398841858,0.0061698034405708,0.7232274413108826,0.5254014730453491,0.0353614948689937,0.7510643601417542,0.4290591776371002,0.0220649261027574,0.7277739644050598,0.3954297602176666,0.0089592896401882,0.6925308108329773,0.4029259979724884,0.0055883135646581,0.7510892748832703,0.5487589836120605,0.0125917121767997,0.7653578519821167,0.4620471596717834,0.0076671671122312,0.7481628656387329,0.4157744646072387,0.0049611562862992,0.7199128866195679,0.4000803530216217,0.0059303096495568
2023-08-01 16:24:51.232424,32,290,0.9956327676773072,-0.0493910610675811,-0.0600505359470844,-0.051671028137207,-0.06298828125,0.9716796875,0.150390625,0.6420738697052002,0.7789636850357056,-2.7796698987003765e-07,0.6061151027679443,0.6745619177818298,0.0019371272064745,0.5970187187194824,0.5623948574066162,0.0065261274576187,0.5925928354263306,0.4776838421821594,0.0027064490132033,0.599511444568634,0.4103207886219024,0.0007717219414189,0.6637733578681946,0.5059651136398315,0.058172583580017,0.6761183738708496,0.4322956204414367,0.044564452022314,0.6638784408569336,0.399830162525177,0.0241947080940008,0.6461845636367798,0.3868297338485718,0.0116458758711814,0.6950936317443848,0.5093265175819397,0.0456095822155475,0.715027928352356,0.4161065816879272,0.0274731069803237,0.6950778961181641,0.3891767859458923,0.0036193230189383,0.6628679037094116,0.3980394005775451,-0.0077496729791164,0.7236956357955933,0.524390459060669,0.0270634330809116,0.7535429000854492,0.4297449588775635,0.0125854946672916,0.7300100326538086,0.3978634178638458,-0.0008054166100919,0.6942085027694702,0.4038378000259399,-0.0049564135260879,0.7493301033973694,0.5518059134483337,0.0068235779181122,0.7603847980499268,0.4722714126110077,-0.0009481841698288,0.7429453134536743,0.4259580373764038,-0.0062325745820999,0.7150353789329529,0.4056780040264129,-0.0070854187943041
2023-08-01 16:24:51.309437,33,291,0.9963245987892152,-0.037772849202156,-0.0707422643899917,-0.0300985760986804,0.052734375,0.98876953125,0.16650390625,0.6438088417053223,0.7701666355133057,-2.689259872568073e-07,0.6081756949424744,0.6743464469909668,-0.0028109031263738,0.5965083241462708,0.5638360977172852,-0.0007855266449041,0.5926772952079773,0.478813111782074,-0.00587670924142,0.6058222055435181,0.4142627716064453,-0.0093150567263364,0.6580941081047058,0.5134183764457703,0.0471041724085807,0.6726518869400024,0.445336639881134,0.0316460467875003,0.6651945114135742,0.4125689268112182,0.0114487027749419,0.6526824831962585,0.4003308415412903,-0.0007638888782821,0.6914770007133484,0.5179804563522339,0.0366693474352359,0.7139536142349243,0.4277806878089905,0.0156695786863565,0.6952359080314636,0.4021985828876495,-0.0075633120723068,0.6640287041664124,0.4133746922016144,-0.0178088564425706,0.7219210863113403,0.5322820544242859,0.0204843934625387,0.7522605061531067,0.4402807950973511,0.0035333759151399,0.7287755012512207,0.4114947915077209,-0.0097125079482793,0.6940537095069885,0.4204505085945129,-0.0130211245268583,0.7474435567855835,0.557742714881897,0.0024929707869887,0.7557879090309143,0.4795509576797485,-0.0069720530882477,0.7377328276634216,0.4369075298309326,-0.0124853635206818,0.7106597423553467,0.4212097525596618,-0.0131533704698085
2023-08-01 16:24:51.385146,34,292,0.997032105922699,-0.0247771404683589,-0.0724847242236137,-0.007683886680752,0.09033203125,0.95947265625,0.17822265625,0.6447226405143738,0.7621638178825378,-2.481208127846912e-07,0.6077930331230164,0.6695226430892944,-9.766947914613412e-05,0.59623122215271,0.5651541948318481,0.0039310846477746,0.5925471186637878,0.4846256077289581,0.0005709190736524,0.6014355421066284,0.4219566881656647,-0.001147297094576,0.6572169661521912,0.5151997804641724,0.0525266751646995,0.6688939929008484,0.4484664499759674,0.0394033379852771,0.6599066257476807,0.4187203645706177,0.020509323105216,0.646089494228363,0.4084734916687011,0.0092071602120995,0.6892074942588806,0.5178523659706116,0.0416630990803241,0.709629476070404,0.430138885974884,0.0236853137612342,0.692509651184082,0.4049069881439209,0.001364781986922,0.6625657081604004,0.4148973524570465,-0.0085641257464885,0.718574047088623,0.5309573411941528,0.0250481888651847,0.7473298907279968,0.4427424073219299,0.0101824728772044,0.7263731956481934,0.4131686091423034,-0.0033687697723507,0.6935335993766785,0.4193690419197082,-0.0072291204705834,0.7450053691864014,0.5550524592399597,0.006840931251645,0.7540562152862549,0.480258047580719,-0.0019607185386121,0.7368453741073608,0.4387277960777282,-0.0079695582389831,0.7106350064277649,0.4220424890518188,-0.0090751983225345
2023-08-01 16:24:51.457352,35,293,0.9971113204956056,-0.0110831893980503,-0.0739240422844886,0.0134677579626441,0.1484375,0.98193359375,0.10009765625,0.6461262702941895,0.7806081175804138,-2.458632479829248e-07,0.6095462441444397,0.6883697509765625,-0.0009893211536109,0.596962571144104,0.5871395468711853,0.0033277752809226,0.5900979042053223,0.5084309577941895,0.0002932128554675,0.6015738844871521,0.4533016979694366,-0.0009117433801293,0.6523371934890747,0.5418568253517151,0.0519036427140235,0.6614056825637817,0.4733438491821289,0.039100281894207,0.6544649004936218,0.4421077370643616,0.0207097586244344,0.6451166272163391,0.4350844323635101,0.0100904880091547,0.6810025572776794,0.5421552658081055,0.0422657839953899,0.6986822485923767,0.4596875607967376,0.0251613464206457,0.6833602786064148,0.4354943931102752,0.00400942703709,0.6582385897636414,0.4492308497428894,-0.00504064373672,0.7083132863044739,0.5514734387397766,0.0267745349556207,0.7305936217308044,0.4695496559143066,0.0131569346413016,0.7100826501846313,0.4448646008968353,0.001002628239803,0.6814954280853271,0.4594986736774444,-0.0017342887585982,0.7336271405220032,0.5713384747505188,0.0093974275514483,0.7446572184562683,0.5008489489555359,0.0028493471909314,0.728344738483429,0.4644190669059753,-0.0013983520912006,0.70346999168396,0.458141416311264,-0.0012697679921984
2023-08-01 16:24:51.521309,36,294,0.9970344305038452,-0.0019204213749617,-0.0726092308759689,0.025427458807826,0.19677734375,0.9765625,0.0126953125,0.6359350085258484,0.7882233262062073,-2.5462657049502013e-07,0.6004098653793335,0.7041366100311279,0.0013710858765989,0.5882590413093567,0.6077565550804138,0.0066270399838685,0.578794002532959,0.5347187519073486,0.004780787974596,0.5893670320510864,0.4843515157699585,0.0040302528068423,0.6402642130851746,0.5706427097320557,0.049877930432558,0.6473914980888367,0.5079836845397949,0.0399463362991809,0.6397127509117126,0.4784729480743408,0.0238685049116611,0.6289187669754028,0.4696739912033081,0.0143177900463342,0.6668798327445984,0.5699084401130676,0.0403514392673969,0.6817140579223633,0.4945258200168609,0.0276404414325952,0.667030930519104,0.4696502685546875,0.0083027193322777,0.642404317855835,0.47569739818573,-0.0014980286359786,0.6927717924118042,0.5765227675437927,0.0257040113210678,0.7140253186225891,0.4981998205184936,0.0143862459808588,0.6940351128578186,0.4718791246414184,0.0019854141864925,0.6649071574211121,0.4784694612026214,-0.0024096553679555,0.714527428150177,0.5911507606506348,0.0098121566697955,0.7192002534866333,0.5232835412025452,0.0044370521791279,0.7044063806533813,0.4859857559204101,0.0001673999358899,0.6825049519538879,0.4724679589271545,-0.0008598149288445
2023-08-01 16:24:51.587768,37,295,0.9969559907913208,0.0025208750739693,-0.0702867954969406,0.0336472578346729,0.19189453125,0.95849609375,0.06201171875,0.6338776350021362,0.7749508023262024,-1.7806915764140285e-07,0.5980406403541565,0.699013352394104,-0.0008031399920582,0.5849601030349731,0.608314573764801,0.0027241413481533,0.5777509808540344,0.5417261719703674,9.028249041875824e-05,0.5869929790496826,0.4912749528884887,-0.0012604044750332,0.6343494057655334,0.5667433738708496,0.0422342717647552,0.6411528587341309,0.5095916986465454,0.0323765836656093,0.6351000666618347,0.4848009943962097,0.0181396715342998,0.6281049847602844,0.4772219061851501,0.0095942476764321,0.661501944065094,0.565887451171875,0.033563558012247,0.6774234771728516,0.4922651946544647,0.0201036967337131,0.6625611186027527,0.472719669342041,0.0030994911212474,0.6402876973152161,0.4844311475753784,-0.0043634851463139,0.6867871880531311,0.5740756988525391,0.020113181322813,0.7088930606842041,0.4984112977981567,0.0088263861835002,0.6893832087516785,0.4740208089351654,-0.0012873475207015,0.6632289886474609,0.4818350076675415,-0.0039177010767161,0.7087650299072266,0.5912794470787048,0.0052541503682732,0.7151148915290833,0.5252624750137329,-0.0011327274842187,0.698101818561554,0.4911295175552368,-0.0050064017996191,0.6750354766845703,0.4809941053390503,-0.0052284426055848
2023-08-01 16:24:51.647838,38,296,0.99705708026886,0.0042362287640571,-0.0673290118575096,0.0364173389971256,0.2236328125,0.97900390625,0.04541015625,0.6315968632698059,0.7712687253952026,-1.6015712844819066e-07,0.5962978601455688,0.6976379156112671,-0.0017391358269378,0.5826324224472046,0.6100918650627136,0.001570492517203,0.575836718082428,0.543258786201477,-0.0010385621571913,0.5876966118812561,0.4934538602828979,-0.0025012462865561,0.6308103203773499,0.570132851600647,0.0432997047901153,0.6375356316566467,0.515555202960968,0.0340398848056793,0.6321496367454529,0.4882759749889374,0.0195644181221723,0.6248373985290527,0.4777825176715851,0.0103663885965943,0.6580086946487427,0.5695817470550537,0.0349694825708866,0.6742797493934631,0.4966375231742859,0.020358819514513,0.6604702472686768,0.4746252596378326,0.0013357272837311,0.6370241045951843,0.4845100045204162,-0.0073610502295196,0.6836556196212769,0.5779247283935547,0.0218359623104333,0.7050135731697083,0.5037645697593689,0.0086907101795077,0.6865105628967285,0.4776668548583984,-0.0044346093200147,0.6593112945556641,0.4836871027946472,-0.0087842429056763,0.7058215141296387,0.5945347547531128,0.0074475686997175,0.707680344581604,0.5314847826957703,-0.001592323416844,0.6900732517242432,0.4986400902271271,-0.0082401046529412,0.6668061017990112,0.4883788526058197,-0.0101998401805758
2023-08-01 16:24:51.707998,39,297,0.9973474144935608,0.0046967826783657,-0.0632224082946777,0.0357646085321903,0.13134765625,0.982421875,0.08642578125,0.6291161179542542,0.7706198692321777,-1.7640718397160526e-07,0.5928369164466858,0.7025970220565796,-0.000464131735498,0.577793538570404,0.6174700856208801,0.004127440508455,0.5690719485282898,0.5514474511146545,0.0028619144577533,0.5815091729164124,0.5097659230232239,0.0029788622632622,0.6263889074325562,0.5813883543014526,0.0444551482796669,0.6308010220527649,0.5254232883453369,0.0369768626987934,0.6240752935409546,0.4991705417633056,0.0238093975931406,0.6165266633033752,0.4914012253284454,0.0158143322914838,0.6504930257797241,0.5793859958648682,0.0373814441263675,0.6617876887321472,0.5096120238304138,0.0262416824698448,0.6479094624519348,0.4857287108898163,0.0090845441445708,0.6264861226081848,0.4922775626182556,0.0007937107584439,0.6748103499412537,0.5844070911407471,0.0256907511502504,0.6899181008338928,0.5142149329185486,0.0155135327950119,0.6715214252471924,0.4902217090129852,0.0030758793000131,0.6461485624313354,0.4973786175251007,-0.0013867591042071,0.6979221701622009,0.5957198739051819,0.0128363259136676,0.702659010887146,0.5336804389953613,0.0072202384471893,0.6863396167755127,0.5032116770744324,0.002005624352023,0.6635924577713013,0.4967265129089355,0.0004290466604288
2023-08-01 16:24:51.770929,40,298,0.9973649382591248,0.0048971273936331,-0.0629209503531456,0.0357795357704162,0.16064453125,0.970703125,0.11328125,0.6274958848953247,0.767207145690918,-1.4519032731641349e-07,0.592903196811676,0.7032497525215149,-0.0007196945953182,0.5776070952415466,0.6197646260261536,0.0030451277270913,0.5696297287940979,0.5550894141197205,0.0011541398707777,0.5808678865432739,0.5044171810150146,0.0006993467686697,0.6267147064208984,0.5801451206207275,0.0424691326916217,0.6326336860656738,0.5260264873504639,0.0345145426690578,0.6238893270492554,0.5002285242080688,0.0216604955494403,0.6133546233177185,0.4922010600566864,0.0139707047492265,0.6517138481140137,0.5801608562469482,0.0343884043395519,0.6671285033226013,0.5102816224098206,0.0239464063197374,0.6502273082733154,0.4851195812225342,0.0086516588926315,0.6253820061683655,0.4917952716350555,0.001649570534937,0.6754943132400513,0.5885705351829529,0.0215818509459495,0.6949253082275391,0.5169638395309448,0.0110496710985898,0.6736220121383667,0.4909141063690185,0.0011339829070493,0.6465551257133484,0.4970303773880005,-0.0014841859228909,0.696305513381958,0.6033812165260315,0.0075421552173793,0.6983929872512817,0.5417214632034302,-0.0007681830320507,0.6788100600242615,0.5094185471534729,-0.0059081837534904,0.6551741361618042,0.5007410049438477,-0.0067542842589318
2023-08-01 16:24:51.828725,41,299,0.997452437877655,0.005213042255491,-0.0617289431393146,0.0353702418506145,0.13525390625,0.9697265625,0.123046875,0.6264840960502625,0.7659028172492981,-1.6472401398459627e-07,0.5920164585113525,0.7048676013946533,-0.0021922679152339,0.5766091346740723,0.6199154257774353,0.0004001854395028,0.568683385848999,0.5542637705802917,-0.0020967999007552,0.5826140642166138,0.5052011013031006,-0.0031693121418356,0.6259655356407166,0.5815879106521606,0.038013894110918,0.6318421959877014,0.5272827744483948,0.0290455650538206,0.6234534382820129,0.5008600354194641,0.0159558020532131,0.6129745841026306,0.4920539259910583,0.008036645129323,0.6511763334274292,0.5820508003234863,0.0306522212922573,0.6656996607780457,0.5125941634178162,0.0186378005892038,0.6488762497901917,0.4869499802589416,0.0027426455635577,0.6233682632446289,0.4919490814208984,-0.0045405328273773,0.6751798391342163,0.5905426144599915,0.018810061737895,0.694567859172821,0.5182260870933533,0.0066101127304136,0.6739931702613831,0.4921605587005615,-0.0040287668816745,0.6468037962913513,0.4968008697032928,-0.0068932282738387,0.6956671476364136,0.6052436828613281,0.0058657452464103,0.6962629556655884,0.5439159870147705,-0.0042148525826632,0.677025318145752,0.5119389891624451,-0.0103306816890835,0.6538951992988586,0.5022719502449036,-0.0116397934034466
2023-08-01 16:24:51.895899,42,300,0.9975505471229552,0.0055726235732436,-0.059898555278778,0.0356949195265769,0.16748046875,0.9580078125,0.11474609375,0.6267740726470947,0.7637962102890015,-1.534418601067955e-07,0.5917955636978149,0.7047916650772095,-0.0032006420660763,0.5765026211738586,0.6197367310523987,-0.0012796148657798,0.5687689185142517,0.5539687871932983,-0.0040797707624733,0.5825586318969727,0.505221962928772,-0.0054616490378975,0.6263903379440308,0.5801264643669128,0.0355912484228611,0.6327729225158691,0.5256571173667908,0.0263050477951765,0.6247021555900574,0.4999880194664001,0.0133917853236198,0.6149367094039917,0.492587685585022,0.0055604935623705,0.6514362692832947,0.5807117819786072,0.028715232387185,0.6669582724571228,0.5112345218658447,0.0168545432388782,0.6508257389068604,0.4866714477539062,0.0016382257454097,0.6261176466941833,0.4930189847946167,-0.0052575040608644,0.6749318838119507,0.5902926325798035,0.0173549596220254,0.6953866481781006,0.5175622701644897,0.0053648664616048,0.6751073002815247,0.4903852343559265,-0.0051340633071959,0.6479731202125549,0.4941985309123993,-0.0082025788724422,0.6947299838066101,0.6067673563957214,0.0048451893962919,0.6950400471687317,0.5461283326148987,-0.0057417182251811,0.6763734817504883,0.5134946703910828,-0.0124531080946326,0.6540632843971252,0.5028396844863892,-0.0142389014363288
2023-08-01 16:24:51.951226,43,301,0.997613251209259,0.0058787069283425,-0.0590517669916152,0.035299252718687,0.12109375,0.97412109375,0.0849609375,0.6258593201637268,0.7605746388435364,-1.6267154023807961e-07,0.5917171239852905,0.7032282948493958,-0.0034057334996759,0.5765612721443176,0.6197831034660339,-0.0015406685415655,0.5689921975135803,0.5544583797454834,-0.0044331275857985,0.5816952586174011,0.5048149824142456,-0.0058152195997536,0.6262282729148865,0.5793724656105042,0.0348464697599411,0.6312944889068604,0.523194432258606,0.0247444491833448,0.6224814653396606,0.4978700578212738,0.0116028431802988,0.6123771071434021,0.4922772943973541,0.0040963250212371,0.6509756445884705,0.5792970657348633,0.0282201450318098,0.6644688844680786,0.5092434883117676,0.0161784924566745,0.6478860378265381,0.484601765871048,0.0012742787366732,0.6235167980194092,0.4912523925304413,-0.0052567236125469,0.6745254993438721,0.5881431102752686,0.0170278009027242,0.693915069103241,0.5151405930519104,0.0048344610258936,0.6734010577201843,0.4885957241058349,-0.00494130467996,0.6465092301368713,0.4931268095970154,-0.0072448123246431,0.6949964761734009,0.6039478778839111,0.0046224761754274,0.696550190448761,0.542704164981842,-0.0058874408714473,0.6781181693077087,0.510216474533081,-0.0119466921314597,0.6554684638977051,0.5003311634063721,-0.0130550796166062
2023-08-01 16:24:52.021970,44,302,0.9976713061332704,0.0055306595750153,-0.0584744811058044,0.0346718020737171,0.10791015625,0.97021484375,0.09716796875,0.626075804233551,0.7636536955833435,-1.5214010318231885e-07,0.5914525985717773,0.7032426595687866,-0.00393737712875,0.5763773918151855,0.6179959177970886,-0.0030802385881543,0.5676913857460022,0.551438570022583,-0.0069764922372996,0.582628071308136,0.5029775500297546,-0.0092320097610354,0.6260680556297302,0.5800421833992004,0.0350634194910526,0.6329460144042969,0.5244844555854797,0.0241813156753778,0.6235577464103699,0.4980131089687347,0.0101564060896635,0.6120337247848511,0.4913530051708221,0.0019245741423219,0.6509611010551453,0.5803145170211792,0.0283836163580417,0.6660099625587463,0.509964108467102,0.0155613515526056,0.6487335562705994,0.4840545058250427,2.731030235736398e-06,0.6228384971618652,0.4894331693649292,-0.0069945813156664,0.67475825548172,0.5893820524215698,0.0170056521892547,0.6954911947250366,0.514799177646637,0.0042753354646265,0.673863410949707,0.4885794818401336,-0.0061918222345411,0.6456402540206909,0.49392169713974,-0.0089320493862032,0.6952313780784607,0.604765772819519,0.004370211623609,0.6960124373435974,0.5436283349990845,-0.0065869526006281,0.6758957505226135,0.5121405124664307,-0.013353525660932,0.651915967464447,0.5032662153244019,-0.0149894831702113
2023-08-01 16:24:52.079993,45,303,0.9976224303245544,0.0044196946546435,-0.0594276972115039,0.0346162430942058,0.1748046875,0.96875,0.119140625,0.6241128444671631,0.7629687786102295,-1.7240202510038216e-07,0.5903605222702026,0.700433075428009,-0.0011219745501875,0.5766684412956238,0.6169835925102234,0.0017990180058404,0.5683998465538025,0.5536988973617554,-0.0005538953118957,0.5804880857467651,0.505842924118042,-0.0016693297075107,0.625054121017456,0.5802086591720581,0.0378899313509464,0.6310783624649048,0.5260006189346313,0.0290801990777254,0.62349933385849,0.4999397099018097,0.0163892023265361,0.6143717765808105,0.4925477206707001,0.0087916571646928,0.6504977345466614,0.5809131860733032,0.0299809984862804,0.6656637191772461,0.5119543075561523,0.018296318128705,0.6494191288948059,0.4878175556659698,0.0030437693931162,0.6246578693389893,0.4943873286247253,-0.0037576186005026,0.6748764514923096,0.5896593332290649,0.0177392624318599,0.6955299973487854,0.516151487827301,0.0059816073626279,0.6744639873504639,0.4898466169834137,-0.0036945019382983,0.6468267440795898,0.4940978288650512,-0.0060515534132719,0.6953039169311523,0.6049186587333679,0.0044776070863008,0.6942675113677979,0.5439294576644897,-0.0054164696484804,0.6744979619979858,0.5125089287757874,-0.0109757175669074,0.6513755917549133,0.5024659633636475,-0.0118559338152408
2023-08-01 16:24:52.144585,46,304,0.9977555871009828,0.003900317242369,-0.0579025745391845,0.0334060601890087,0.1748046875,0.99267578125,0.0859375,0.6250914335250854,0.7642865777015686,-1.6334530528183677e-07,0.5912657380104065,0.7040345072746277,-0.0032256171107292,0.5762789249420166,0.618029773235321,-0.0014527639141306,0.5676957368850708,0.5519789457321167,-0.0045195673592388,0.5826106667518616,0.5028408765792847,-0.006210112478584,0.6251167058944702,0.5794082880020142,0.0356432534754276,0.6306266188621521,0.5246968269348145,0.0261977296322584,0.6226052641868591,0.4979117512702942,0.0131425661966204,0.6129128932952881,0.488691121339798,0.0051140463910996,0.6505094766616821,0.5798519253730774,0.0286671705543994,0.6645148396492004,0.5102561116218567,0.0169654972851276,0.6481426954269409,0.4848380982875824,0.0017483599949628,0.6232865452766418,0.4885638356208801,-0.0053763096220791,0.6747947931289673,0.5896747708320618,0.0171914063394069,0.6958390474319458,0.5150517821311951,0.0046724178828299,0.6751449704170227,0.4890202581882477,-0.0055440994910895,0.647566556930542,0.4928317070007324,-0.0083304848521947,0.6951699256896973,0.6063847541809082,0.0046011721715331,0.6947337985038757,0.5445678234100342,-0.0065205208957195,0.67490553855896,0.5133692622184753,-0.0129872392863035,0.651655912399292,0.5038076639175415,-0.0144971348345279
2023-08-01 16:24:52.204839,47,305,0.997918426990509,0.0033510921057313,-0.0560530610382556,0.0317114442586898,0.1552734375,0.98583984375,0.05517578125,0.6244388818740845,0.7636809349060059,-1.7696923748644624e-07,0.5904458165168762,0.7021414637565613,-0.0030148033984005,0.5750982165336609,0.6185908913612366,-0.0015998032176867,0.566584587097168,0.5528495907783508,-0.0051138689741492,0.5810543298721313,0.5037246942520142,-0.0072744032368063,0.6238407492637634,0.5795462727546692,0.0358017459511756,0.6290455460548401,0.5243954658508301,0.0257532391697168,0.6204127669334412,0.4987642168998718,0.0121243810281157,0.6101118922233582,0.4910455346107483,0.0037963583599776,0.6491501927375793,0.5801507234573364,0.0286859832704067,0.6616013050079346,0.5107717514038086,0.0160194057971239,0.644878625869751,0.4861843585968017,-0.0001559618249302,0.6197144389152527,0.4908807277679443,-0.0078743137419223,0.6736122369766235,0.5894163250923157,0.0170885752886533,0.693278968334198,0.5157231688499451,0.0039500165730714,0.6730476021766663,0.4906836748123169,-0.0068733422085642,0.6454103589057922,0.4951440095901489,-0.0099702449515461,0.6946828961372375,0.6054088473320007,0.0044245971366763,0.6929332613945007,0.5448318719863892,-0.0069237546995282,0.6733188033103943,0.513875424861908,-0.0136626828461885,0.6498419046401978,0.5037147402763367,-0.0153386779129505
