Time,w,x,y,z,ax,ay,az
2023-07-29T21:35:17.866971,0.5530202388763428,-0.6630254983901978,-0.48286619782447815,-0.14630845189094543,0.189453125,-0.88232421875,-0.46875
2023-07-29T21:35:17.867981,1.0,-0.00019174421322531998,-0.00026635717949829996,-0.00019175389024894685,0.189453125,-0.88232421875,-0.46875
2023-07-29T21:35:17.873969,1.0,-0.00019174421322531998,-0.00026635717949829996,-0.00019175389024894685,0.1904296875,-0.88134765625,-0.47216796875
2023-07-29T21:35:17.876973,0.9999998807907104,-0.00019172597967553884,-0.0003980114997830242,-0.0003549016546458006,0.1904296875,-0.88134765625,-0.47216796875
2023-07-29T21:35:17.940868,0.9999998807907104,-0.00019172597967553884,-0.0003980114997830242,-0.0003549016546458006,0.1796875,-0.86279296875,-0.47412109375
2023-07-29T21:35:17.941866,0.9997685551643372,0.00014379907224792987,-0.00026278343284502625,-0.021512147039175034,0.1796875,-0.86279296875,-0.47412109375
2023-07-29T21:35:17.956856,0.9997685551643372,0.00014379907224792987,-0.00026278343284502625,-0.021512147039175034,0.18798828125,-0.8623046875,-0.50537109375
2023-07-29T21:35:17.956856,0.9992773532867432,7.866379019105807e-05,-0.0001828610838856548,-0.03800926357507706,0.18798828125,-0.8623046875,-0.50537109375
2023-07-29T21:35:17.964119,0.9992773532867432,7.866379019105807e-05,-0.0001828610838856548,-0.03800926357507706,0.169921875,-0.82861328125,-0.5078125
2023-07-29T21:35:17.965116,0.9992733001708984,-0.0003987804229836911,-0.0005492478376254439,-0.03810930997133255,0.169921875,-0.82861328125,-0.5078125
2023-07-29T21:35:17.971202,0.9992733001708984,-0.0003987804229836911,-0.0005492478376254439,-0.03810930997133255,0.15283203125,-0.84814453125,-0.4765625
2023-07-29T21:35:17.972199,0.9992671012878418,-0.0007055473979562521,-0.0012750797905027866,-0.03825117647647858,0.15283203125,-0.84814453125,-0.4765625
2023-07-29T21:35:17.985690,0.9992671012878418,-0.0007055473979562521,-0.0012750797905027866,-0.03825117647647858,0.15673828125,-0.87353515625,-0.46142578125
2023-07-29T21:35:17.987078,0.999260663986206,-0.0009538956801407039,-0.0017134388908743858,-0.03839842975139618,0.15673828125,-0.87353515625,-0.46142578125
2023-07-29T21:35:17.994365,0.999260663986206,-0.0009538956801407039,-0.0017134388908743858,-0.03839842975139618,0.17333984375,-0.876953125,-0.46337890625
2023-07-29T21:35:17.994365,0.9983807802200317,-0.0010412655537948012,-0.00176120619289577,-0.056846894323825836,0.17333984375,-0.876953125,-0.46337890625
2023-07-29T21:35:18.001872,0.9983807802200317,-0.0010412655537948012,-0.00176120619289577,-0.056846894323825836,0.18017578125,-0.87353515625,-0.46875
2023-07-29T21:35:18.001872,0.9983704686164856,-0.0008628859068267047,-0.001597592025063932,-0.057035963982343674,0.18017578125,-0.87353515625,-0.46875
2023-07-29T21:35:18.016662,0.9983704686164856,-0.0008628859068267047,-0.001597592025063932,-0.057035963982343674,0.1826171875,-0.8818359375,-0.47265625
2023-07-29T21:35:18.017890,0.9983596205711365,-0.0006457535782828927,-0.0013096664333716035,-0.057235587388277054,0.1826171875,-0.8818359375,-0.47265625
2023-07-29T21:35:18.023874,0.9983596205711365,-0.0006457535782828927,-0.0013096664333716035,-0.057235587388277054,0.18408203125,-0.8681640625,-0.4921875
2023-07-29T21:35:18.023874,0.9983492493629456,-0.0008869071025401354,-0.0011465902207419276,-0.05741681531071663,0.18408203125,-0.8681640625,-0.4921875
2023-07-29T21:35:18.030959,0.9983492493629456,-0.0008869071025401354,-0.0011465902207419276,-0.05741681531071663,0.1748046875,-0.84716796875,-0.4912109375
2023-07-29T21:35:18.030959,0.9972152709960938,-0.0013043626677244902,-0.0013078100746497512,-0.07455356419086456,0.1748046875,-0.84716796875,-0.4912109375
2023-07-29T21:35:18.050863,0.9972152709960938,-0.0013043626677244902,-0.0013078100746497512,-0.07455356419086456,0.17041015625,-0.8759765625,-0.46923828125
2023-07-29T21:35:18.051860,0.997195303440094,-0.00162494124379009,-0.0015058759599924088,-0.07481087744235992,0.17041015625,-0.8759765625,-0.46923828125
2023-07-29T21:35:18.053855,0.997195303440094,-0.00162494124379009,-0.0015058759599924088,-0.07481087744235992,0.1787109375,-0.89404296875,-0.45947265625
2023-07-29T21:35:18.054852,0.9971777200698853,-0.0018048817291855812,-0.0013766332995146513,-0.07504229247570038,0.1787109375,-0.89404296875,-0.45947265625
2023-07-29T21:35:18.060856,0.9971777200698853,-0.0018048817291855812,-0.0013766332995146513,-0.07504229247570038,0.18701171875,-0.88623046875,-0.4658203125
2023-07-29T21:35:18.061854,0.9971662163734436,-0.0016474740114063025,-0.0009717858047224581,-0.07520557940006256,0.18701171875,-0.88623046875,-0.4658203125
2023-07-29T21:35:18.076914,0.9971662163734436,-0.0016474740114063025,-0.0009717858047224581,-0.07520557940006256,0.19921875,-0.87646484375,-0.478515625
2023-07-29T21:35:18.076914,0.9958528280258179,-0.0012523141922429204,-0.00037907756632193923,-0.09096968919038773,0.19921875,-0.87646484375,-0.478515625
2023-07-29T21:35:18.083910,0.9958528280258179,-0.0012523141922429204,-0.00037907756632193923,-0.09096968919038773,0.205078125,-0.87158203125,-0.490234375
2023-07-29T21:35:18.083910,0.9958414435386658,-0.0008923475397750735,0.00015330789028666914,-0.09109886735677719,0.205078125,-0.87158203125,-0.490234375
2023-07-29T21:35:18.091530,0.9958414435386658,-0.0008923475397750735,0.00015330789028666914,-0.09109886735677719,0.205078125,-0.85498046875,-0.5126953125
2023-07-29T21:35:18.091530,0.9958337545394897,-0.0008170226938091218,0.00033351333695463836,-0.09118390828371048,0.205078125,-0.85498046875,-0.5126953125
2023-07-29T21:35:18.106690,0.9958337545394897,-0.0008170226938091218,0.00033351333695463836,-0.09118390828371048,0.1904296875,-0.83154296875,-0.515625
2023-07-29T21:35:18.106690,0.9958270192146301,-0.0012613715371116996,4.1113515180768445e-05,-0.09125161916017532,0.1904296875,-0.83154296875,-0.515625
2023-07-29T21:35:18.113759,0.9958270192146301,-0.0012613715371116996,4.1113515180768445e-05,-0.09125161916017532,0.189453125,-0.86328125,-0.4853515625
2023-07-29T21:35:18.114755,0.9945046305656433,-0.0015783136477693915,-0.0003957706212531775,-0.10467914491891861,0.189453125,-0.86328125,-0.4853515625
2023-07-29T21:35:18.121944,0.9945046305656433,-0.0015783136477693915,-0.0003957706212531775,-0.10467914491891861,0.19775390625,-0.890625,-0.46728515625
2023-07-29T21:35:18.121944,0.9944962859153748,-0.0016545928083360195,-0.00046728592133149505,-0.10475758463144302,0.19775390625,-0.890625,-0.46728515625
2023-07-29T21:35:18.128943,0.9944962859153748,-0.0016545928083360195,-0.00046728592133149505,-0.10475758463144302,0.1953125,-0.87109375,-0.47412109375
2023-07-29T21:35:18.135962,0.9944966435432434,-0.0014826511032879353,-0.00024196301819756627,-0.10475791990756989,0.1953125,-0.87109375,-0.47412109375
2023-07-29T21:35:18.143345,0.9944966435432434,-0.0014826511032879353,-0.00024196301819756627,-0.10475791990756989,0.19287109375,-0.85498046875,-0.4814453125
2023-07-29T21:35:18.144344,0.9944915175437927,-0.0011966289021074772,6.124326318968087e-05,-0.1048106998205185,0.19287109375,-0.85498046875,-0.4814453125
2023-07-29T21:35:18.151920,0.9944915175437927,-0.0011966289021074772,6.124326318968087e-05,-0.1048106998205185,0.20068359375,-0.86328125,-0.486328125
2023-07-29T21:35:18.152916,0.9931784868240356,-0.0010145094711333513,0.00035590477637015283,-0.11659915745258331,0.20068359375,-0.86328125,-0.486328125
2023-07-29T21:35:18.169588,0.9931784868240356,-0.0010145094711333513,0.00035590477637015283,-0.11659915745258331,0.20263671875,-0.8505859375,-0.50537109375
2023-07-29T21:35:18.170585,0.9931702017784119,-0.0012314211344346404,0.0003812970535364002,-0.11666785180568695,0.20263671875,-0.8505859375,-0.50537109375
2023-07-29T21:35:18.173579,0.9931702017784119,-0.0012314211344346404,0.0003812970535364002,-0.11666785180568695,0.1982421875,-0.84326171875,-0.5029296875
2023-07-29T21:35:18.174576,0.9931520819664001,-0.0014884965494275093,8.797895861789584e-05,-0.11681896448135376,0.1982421875,-0.84326171875,-0.5029296875
2023-07-29T21:35:18.181839,0.9931520819664001,-0.0014884965494275093,8.797895861789584e-05,-0.11681896448135376,0.2041015625,-0.87109375,-0.48681640625
2023-07-29T21:35:18.182836,0.9931341409683228,-0.001604120247066021,-0.0001742779859341681,-0.11697014421224594,0.2041015625,-0.87109375,-0.48681640625
2023-07-29T21:35:18.188915,0.9931341409683228,-0.001604120247066021,-0.0001742779859341681,-0.11697014421224594,0.2060546875,-0.880859375,-0.4833984375
2023-07-29T21:35:18.189913,0.9931162595748901,-0.0016040935879573226,-0.00017452285101171583,-0.11712174117565155,0.2060546875,-0.880859375,-0.4833984375
2023-07-29T21:35:18.204392,0.9931162595748901,-0.0016040935879573226,-0.00017452285101171583,-0.11712174117565155,0.2001953125,-0.8681640625,-0.48583984375
2023-07-29T21:35:18.204392,0.9917411804199219,-0.0014364720555022359,-7.815949356881902e-05,-0.12824741005897522,0.2001953125,-0.8681640625,-0.48583984375
2023-07-29T21:35:18.213954,0.9917411804199219,-0.0014364720555022359,-7.815949356881902e-05,-0.12824741005897522,0.19775390625,-0.86328125,-0.48876953125
2023-07-29T21:35:18.214951,0.9917124509811401,-0.0012116211000829935,-2.2671745682600886e-05,-0.1284719854593277,0.19775390625,-0.86328125,-0.48876953125
2023-07-29T21:35:18.238545,0.9917124509811401,-0.0012116211000829935,-2.2671745682600886e-05,-0.1284719854593277,0.19580078125,-0.86474609375,-0.4951171875
2023-07-29T21:35:18.239543,0.9916817545890808,-0.001399527071043849,1.3843471151631093e-06,-0.1287068873643875,0.19580078125,-0.86474609375,-0.4951171875
2023-07-29T21:35:18.240540,0.9916817545890808,-0.001399527071043849,1.3843471151631093e-06,-0.1287068873643875,0.20166015625,-0.85400390625,-0.49853515625
2023-07-29T21:35:18.240540,0.9916459321975708,-0.0018519802251830697,-0.00025720486883074045,-0.12897580862045288,0.20166015625,-0.85400390625,-0.49853515625
2023-07-29T21:35:18.241538,0.9916459321975708,-0.0018519802251830697,-0.00025720486883074045,-0.12897580862045288,0.19921875,-0.88232421875,-0.4794921875
2023-07-29T21:35:18.242535,0.9902734160423279,-0.002118680626153946,-0.000531479949131608,-0.13911829888820648,0.19921875,-0.88232421875,-0.4794921875
2023-07-29T21:35:18.249144,0.9902734160423279,-0.002118680626153946,-0.000531479949131608,-0.13911829888820648,0.19970703125,-0.8994140625,-0.4677734375
2023-07-29T21:35:18.249144,0.9902628064155579,-0.002261396264657378,-0.0006019739084877074,-0.1391911506652832,0.19970703125,-0.8994140625,-0.4677734375
2023-07-29T21:35:18.264768,0.9902628064155579,-0.002261396264657378,-0.0006019739084877074,-0.1391911506652832,0.19677734375,-0.87841796875,-0.47607421875
2023-07-29T21:35:18.270508,0.9902628064155579,-0.002261396264657378,-0.0006019739084877074,-0.1391911506652832,0.19677734375,-0.87841796875,-0.47607421875
2023-07-29T21:35:18.271504,0.9902628064155579,-0.002261396264657378,-0.0006019739084877074,-0.1391911506652832,0.20068359375,-0.8642578125,-0.48681640625
2023-07-29T21:35:18.272503,0.9902466535568237,-0.002254004357382655,-0.0005501434206962585,-0.1393059343099594,0.20068359375,-0.8642578125,-0.48681640625
2023-07-29T21:35:18.284488,0.9902466535568237,-0.002254004357382655,-0.0005501434206962585,-0.1393059343099594,0.21435546875,-0.87890625,-0.48974609375
2023-07-29T21:35:18.285997,0.9902251958847046,-0.002245019655674696,-0.00048722903011366725,-0.1394590437412262,0.21435546875,-0.87890625,-0.48974609375
2023-07-29T21:35:18.294475,0.9902251958847046,-0.002245019655674696,-0.00048722903011366725,-0.1394590437412262,0.21923828125,-0.8876953125,-0.48876953125
2023-07-29T21:35:18.294475,0.9902167320251465,-0.0021682449150830507,-0.0004981765523552895,-0.13952039182186127,0.21923828125,-0.8876953125,-0.48876953125
2023-07-29T21:35:18.305973,0.9902167320251465,-0.0021682449150830507,-0.0004981765523552895,-0.13952039182186127,0.20703125,-0.8720703125,-0.49609375
2023-07-29T21:35:18.311470,0.9902166724205017,-0.00217939680442214,-0.0005773243610747159,-0.13952021300792694,0.20703125,-0.8720703125,-0.49609375
2023-07-29T21:35:18.312468,0.9902166724205017,-0.00217939680442214,-0.0005773243610747159,-0.13952021300792694,0.2060546875,-0.8603515625,-0.49365234375
2023-07-29T21:35:18.315969,0.9902165532112122,-0.002204370452091098,-0.0007545690168626606,-0.1395198255777359,0.2060546875,-0.8603515625,-0.49365234375
2023-07-29T21:35:18.334306,0.9902165532112122,-0.002204370452091098,-0.0007545690168626606,-0.1395198255777359,0.20556640625,-0.875,-0.484375
2023-07-29T21:35:18.334306,0.9902240037918091,-0.0021513348910957575,-0.0008682759362272918,-0.13946741819381714,0.20556640625,-0.875,-0.484375
2023-07-29T21:35:18.335812,0.9902240037918091,-0.0021513348910957575,-0.0008682759362272918,-0.13946741819381714,0.203125,-0.87744140625,-0.4775390625
2023-07-29T21:35:18.337909,0.99024498462677,-0.001906480290926993,-0.0009024630999192595,-0.1393212527036667,0.203125,-0.87744140625,-0.4775390625
2023-07-29T21:35:18.339902,0.99024498462677,-0.001906480290926993,-0.0009024630999192595,-0.1393212527036667,0.19921875,-0.8701171875,-0.48291015625
2023-07-29T21:35:18.340899,0.9902646541595459,-0.0015990687534213066,-0.000945470470469445,-0.13918544352054596,0.19921875,-0.8701171875,-0.48291015625
2023-07-29T21:35:18.353885,0.9902646541595459,-0.0015990687534213066,-0.000945470470469445,-0.13918544352054596,0.2001953125,-0.86376953125,-0.4873046875
2023-07-29T21:35:18.354884,0.9902775287628174,-0.0013917854521423578,-0.0010390508687123656,-0.1390954554080963,0.2001953125,-0.86376953125,-0.4873046875
2023-07-29T21:35:18.427649,0.9902775287628174,-0.0013917854521423578,-0.0010390508687123656,-0.1390954554080963,0.20458984375,-0.87255859375,-0.48388671875
2023-07-29T21:35:18.437901,0.9902854561805725,-0.0012089309748262167,-0.0011481654364615679,-0.1390388160943985,0.20458984375,-0.87255859375,-0.48388671875
2023-07-29T21:35:18.439896,0.9902854561805725,-0.0012089309748262167,-0.0011481654364615679,-0.1390388160943985,0.20703125,-0.87744140625,-0.490234375
2023-07-29T21:35:18.440893,0.9903033375740051,-0.0009939265437424183,-0.001339613227173686,-0.13891175389289856,0.20703125,-0.87744140625,-0.490234375
2023-07-29T21:35:18.441891,0.9903033375740051,-0.0009939265437424183,-0.001339613227173686,-0.13891175389289856,0.21044921875,-0.875,-0.49853515625
2023-07-29T21:35:18.442888,0.9903234243392944,-0.0009836702374741435,-0.001643929979763925,-0.13876542448997498,0.21044921875,-0.875,-0.49853515625
2023-07-29T21:35:18.443885,0.9903234243392944,-0.0009836702374741435,-0.001643929979763925,-0.13876542448997498,0.2060546875,-0.8779296875,-0.4892578125
2023-07-29T21:35:18.443885,0.9903533458709717,-0.0009263209067285061,-0.002066405490040779,-0.13854587078094482,0.2060546875,-0.8779296875,-0.4892578125
2023-07-29T21:35:18.445880,0.9903533458709717,-0.0009263209067285061,-0.002066405490040779,-0.13854587078094482,0.193359375,-0.87255859375,-0.48193359375
2023-07-29T21:35:18.446887,0.9903854131698608,-0.0007966452394612134,-0.0025415082927793264,-0.1383104771375656,0.193359375,-0.87255859375,-0.48193359375
2023-07-29T21:35:18.447982,0.9903854131698608,-0.0007966452394612134,-0.0025415082927793264,-0.1383104771375656,0.1865234375,-0.8642578125,-0.48388671875
2023-07-29T21:35:18.448979,0.9904118180274963,-0.0006877275882288814,-0.0030137270223349333,-0.13811154663562775,0.1865234375,-0.8642578125,-0.48388671875
2023-07-29T21:35:18.449976,0.9904118180274963,-0.0006877275882288814,-0.0030137270223349333,-0.13811154663562775,0.18603515625,-0.865234375,-0.4755859375
2023-07-29T21:35:18.449976,0.9904288053512573,-0.00046840004506520927,-0.003496045945212245,-0.13798005878925323,0.18603515625,-0.865234375,-0.4755859375
2023-07-29T21:35:18.450973,0.9904288053512573,-0.00046840004506520927,-0.003496045945212245,-0.13798005878925323,0.19091796875,-0.87451171875,-0.4716796875
2023-07-29T21:35:18.451972,0.9904003739356995,0.00022403809998650104,-0.003985807299613953,-0.138170063495636,0.19091796875,-0.87451171875,-0.4716796875
2023-07-29T21:35:18.451972,0.9904003739356995,0.00022403809998650104,-0.003985807299613953,-0.138170063495636,0.1875,-0.87744140625,-0.48291015625
2023-07-29T21:35:18.454963,0.9904086589813232,0.0003808093024417758,-0.004325069487094879,-0.1381007581949234,0.1875,-0.87744140625,-0.48291015625
2023-07-29T21:35:18.461140,0.9904086589813232,0.0003808093024417758,-0.004325069487094879,-0.1381007581949234,0.189453125,-0.87060546875,-0.48681640625
2023-07-29T21:35:18.463135,0.9904071092605591,0.0005748241674154997,-0.004686969332396984,-0.13809983432292938,0.189453125,-0.87060546875,-0.48681640625
2023-07-29T21:35:18.524748,0.9904071092605591,0.0005748241674154997,-0.004686969332396984,-0.13809983432292938,0.1806640625,-0.86328125,-0.4853515625
2023-07-29T21:35:18.524748,0.9904044270515442,0.0006993862334638834,-0.005203932989388704,-0.13809917867183685,0.1806640625,-0.86328125,-0.4853515625
2023-07-29T21:35:18.525745,0.9904044270515442,0.0006993862334638834,-0.005203932989388704,-0.13809917867183685,0.18310546875,-0.86962890625,-0.4794921875
2023-07-29T21:35:18.525745,0.9904017448425293,0.0007078055059537292,-0.005715330597013235,-0.13809911906719208,0.18310546875,-0.86962890625,-0.4794921875
2023-07-29T21:35:18.526894,0.9904017448425293,0.0007078055059537292,-0.005715330597013235,-0.13809911906719208,0.18798828125,-0.880859375,-0.47998046875
2023-07-29T21:35:18.529124,0.9904106855392456,0.0006477134302258492,-0.0061428966000676155,-0.1380159854888916,0.18798828125,-0.880859375,-0.47998046875
2023-07-29T21:35:18.530121,0.9904106855392456,0.0006477134302258492,-0.0061428966000676155,-0.1380159854888916,0.1826171875,-0.87255859375,-0.4755859375
2023-07-29T21:35:18.531117,0.9904292821884155,0.0007854063296690583,-0.006635334808379412,-0.13785859942436218,0.1826171875,-0.87255859375,-0.4755859375
2023-07-29T21:35:18.532623,0.9904292821884155,0.0007854063296690583,-0.006635334808379412,-0.13785859942436218,0.16845703125,-0.865234375,-0.46728515625
2023-07-29T21:35:18.533632,0.9904428124427795,0.0009513683617115021,-0.007137295324355364,-0.13773608207702637,0.16845703125,-0.865234375,-0.46728515625
2023-07-29T21:35:18.534631,0.9904428124427795,0.0009513683617115021,-0.007137295324355364,-0.13773608207702637,0.15673828125,-0.85986328125,-0.46533203125
2023-07-29T21:35:18.537881,0.9904474020004272,0.0010550598381087184,-0.007497269194573164,-0.13768316805362701,0.15673828125,-0.85986328125,-0.46533203125
2023-07-29T21:35:18.538879,0.9904474020004272,0.0010550598381087184,-0.007497269194573164,-0.13768316805362701,0.16162109375,-0.8544921875,-0.47021484375
2023-07-29T21:35:18.556500,0.9904456734657288,0.0011094900546595454,-0.007717431057244539,-0.1376827508211136,0.16162109375,-0.8544921875,-0.47021484375
2023-07-29T21:35:18.557005,0.9904456734657288,0.0011094900546595454,-0.007717431057244539,-0.1376827508211136,0.17431640625,-0.857421875,-0.47998046875
2023-07-29T21:35:18.558011,0.990436315536499,0.0011813162127509713,-0.007892058230936527,-0.13773953914642334,0.17431640625,-0.857421875,-0.47998046875
2023-07-29T21:35:18.559010,0.990436315536499,0.0011813162127509713,-0.007892058230936527,-0.13773953914642334,0.177734375,-0.853515625,-0.48974609375
2023-07-29T21:35:18.562999,0.9904355406761169,0.0010774697875604033,-0.007989245466887951,-0.1377403736114502,0.177734375,-0.853515625,-0.48974609375
2023-07-29T21:35:18.569994,0.9904355406761169,0.0010774697875604033,-0.007989245466887951,-0.1377403736114502,0.177734375,-0.8486328125,-0.484375
2023-07-29T21:35:18.570992,0.9904227256774902,0.0010578378569334745,-0.008135159499943256,-0.1378239542245865,0.177734375,-0.8486328125,-0.484375
2023-07-29T21:35:18.577730,0.9904227256774902,0.0010578378569334745,-0.008135159499943256,-0.1378239542245865,0.17919921875,-0.853515625,-0.4833984375
2023-07-29T21:35:18.578729,0.9904022812843323,0.0009312063921242952,-0.008203297853469849,-0.13796743750572205,0.17919921875,-0.853515625,-0.4833984375
2023-07-29T21:35:18.579728,0.9904022812843323,0.0009312063921242952,-0.008203297853469849,-0.13796743750572205,0.18798828125,-0.85400390625,-0.49169921875
2023-07-29T21:35:18.580725,0.9903890490531921,0.0007692751241847873,-0.008302816189825535,-0.1380573809146881,0.18798828125,-0.85400390625,-0.49169921875
2023-07-29T21:35:18.580725,0.9903890490531921,0.0007692751241847873,-0.008302816189825535,-0.1380573809146881,0.1875,-0.8515625,-0.49072265625
2023-07-29T21:35:18.593754,0.9903769493103027,0.0007379084127023816,-0.008532165549695492,-0.1381305456161499,0.1875,-0.8515625,-0.49072265625
2023-07-29T21:35:18.594751,0.9903769493103027,0.0007379084127023816,-0.008532165549695492,-0.1381305456161499,0.17919921875,-0.85546875,-0.49072265625
2023-07-29T21:35:18.594751,0.990364670753479,0.0006462999735958874,-0.00877437088638544,-0.13820421695709229,0.17919921875,-0.85546875,-0.49072265625
2023-07-29T21:35:18.607039,0.990364670753479,0.0006462999735958874,-0.00877437088638544,-0.13820421695709229,0.1796875,-0.86181640625,-0.48193359375
2023-07-29T21:35:18.608042,0.9903627634048462,0.0005114933010190725,-0.008978797122836113,-0.13820528984069824,0.1796875,-0.86181640625,-0.48193359375
2023-07-29T21:35:18.609041,0.9903627634048462,0.0005114933010190725,-0.008978797122836113,-0.13820528984069824,0.17919921875,-0.85791015625,-0.47509765625
2023-07-29T21:35:18.610038,0.9903527498245239,0.0004916870384477079,-0.00912475772202015,-0.13826791942119598,0.17919921875,-0.85791015625,-0.47509765625
2023-07-29T21:35:18.616023,0.9903527498245239,0.0004916870384477079,-0.00912475772202015,-0.13826791942119598,0.18017578125,-0.8623046875,-0.47900390625
2023-07-29T21:35:18.617950,0.9903403520584106,0.0004925035173073411,-0.009124713949859142,-0.1383565366268158,0.18017578125,-0.8623046875,-0.47900390625
2023-07-29T21:35:18.631419,0.9903403520584106,0.0004925035173073411,-0.009124713949859142,-0.1383565366268158,0.19189453125,-0.8642578125,-0.48779296875
2023-07-29T21:35:18.631419,0.9903234243392944,0.0004936213954351842,-0.009124653413891792,-0.1384778618812561,0.19189453125,-0.8642578125,-0.48779296875
2023-07-29T21:35:18.657592,0.9903234243392944,0.0004936213954351842,-0.009124653413891792,-0.1384778618812561,0.193359375,-0.86376953125,-0.4931640625
2023-07-29T21:35:18.658590,0.9903125166893005,0.0004943418316543102,-0.009124614298343658,-0.13855604827404022,0.193359375,-0.86376953125,-0.4931640625
2023-07-29T21:35:18.659588,0.9903125166893005,0.0004943418316543102,-0.009124614298343658,-0.13855604827404022,0.18994140625,-0.86181640625,-0.4921875
2023-07-29T21:35:18.660585,0.990301251411438,0.0004804235650226474,-0.009228861890733242,-0.13862904906272888,0.18994140625,-0.86181640625,-0.4921875
2023-07-29T21:35:18.682582,0.990301251411438,0.0004804235650226474,-0.009228861890733242,-0.13862904906272888,0.19189453125,-0.87060546875,-0.48974609375
2023-07-29T21:35:18.683576,0.9902998805046082,0.0005441284156404436,-0.009381309151649475,-0.13862834870815277,0.19189453125,-0.87060546875,-0.48974609375
2023-07-29T21:35:18.684574,0.9902998805046082,0.0005441284156404436,-0.009381309151649475,-0.13862834870815277,0.1904296875,-0.865234375,-0.48583984375
2023-07-29T21:35:18.684574,0.9902989268302917,0.0007558699580840766,-0.00950133241713047,-0.13862626254558563,0.1904296875,-0.865234375,-0.48583984375
2023-07-29T21:35:18.684574,0.9902989268302917,0.0007558699580840766,-0.00950133241713047,-0.13862626254558563,0.18359375,-0.8583984375,-0.48486328125
2023-07-29T21:35:18.686079,0.9902980923652649,0.0010136901400983334,-0.009595916606485844,-0.13862374424934387,0.18359375,-0.8583984375,-0.48486328125
2023-07-29T21:35:18.704777,0.9902980923652649,0.0010136901400983334,-0.009595916606485844,-0.13862374424934387,0.17431640625,-0.85205078125,-0.486328125
2023-07-29T21:35:18.705774,0.9902967214584351,0.0011942611308768392,-0.00974877830594778,-0.1386219561100006,0.17431640625,-0.85205078125,-0.486328125
2023-07-29T21:35:18.706717,0.9902967214584351,0.0011942611308768392,-0.00974877830594778,-0.1386219561100006,0.1728515625,-0.8564453125,-0.48046875
2023-07-29T21:35:18.707880,0.9902949929237366,0.0014790833229199052,-0.009916231967508793,-0.13861910998821259,0.1728515625,-0.8564453125,-0.48046875
2023-07-29T21:35:18.708880,0.9902949929237366,0.0014790833229199052,-0.009916231967508793,-0.13861910998821259,0.1767578125,-0.8642578125,-0.4755859375
2023-07-29T21:35:18.708880,0.9902871251106262,0.0018013841472566128,-0.009961193427443504,-0.13866864144802094,0.1767578125,-0.8642578125,-0.4755859375
2023-07-29T21:35:18.715862,0.9902871251106262,0.0018013841472566128,-0.009961193427443504,-0.13866864144802094,0.17626953125,-0.86767578125,-0.4736328125
2023-07-29T21:35:18.721162,0.9902753233909607,0.002224965486675501,-0.009940547868609428,-0.13874773681163788,0.17626953125,-0.86767578125,-0.4736328125
2023-07-29T21:35:18.729651,0.9902753233909607,0.002224965486675501,-0.009940547868609428,-0.13874773681163788,0.18017578125,-0.86376953125,-0.47998046875
2023-07-29T21:35:18.730649,0.9902746677398682,0.002516872715204954,-0.009981446899473667,-0.1387448012828827,0.18017578125,-0.86376953125,-0.47998046875
2023-07-29T21:35:18.736698,0.9902746677398682,0.002516872715204954,-0.009981446899473667,-0.1387448012828827,0.18701171875,-0.8681640625,-0.48046875
2023-07-29T21:35:18.737924,0.99025559425354,0.0027998117730021477,-0.01009503286331892,-0.13886712491512299,0.18701171875,-0.8681640625,-0.48046875
2023-07-29T21:35:18.743929,0.99025559425354,0.0027998117730021477,-0.01009503286331892,-0.13886712491512299,0.1875,-0.88330078125,-0.4765625
2023-07-29T21:35:18.745923,0.9902535080909729,0.0030853215139359236,-0.010257345624268055,-0.13886438310146332,0.1875,-0.88330078125,-0.4765625
2023-07-29T21:35:18.759144,0.9902535080909729,0.0030853215139359236,-0.010257345624268055,-0.13886438310146332,0.1796875,-0.8818359375,-0.4658203125
2023-07-29T21:35:18.760139,0.9902513027191162,0.00341545301489532,-0.010404652915894985,-0.13886111974716187,0.1796875,-0.8818359375,-0.4658203125
2023-07-29T21:35:18.766628,0.9902513027191162,0.00341545301489532,-0.010404652915894985,-0.13886111974716187,0.16552734375,-0.86767578125,-0.46240234375
2023-07-29T21:35:18.767635,0.9902414083480835,0.00377448252402246,-0.010577015578746796,-0.138909712433815,0.16552734375,-0.86767578125,-0.46240234375
2023-07-29T21:35:18.831661,0.9902414083480835,0.00377448252402246,-0.010577015578746796,-0.138909712433815,0.158203125,-0.865234375,-0.46435546875
2023-07-29T21:35:18.834179,0.9902228713035583,0.004004997666925192,-0.010667901486158371,-0.13902871310710907,0.158203125,-0.865234375,-0.46435546875
2023-07-29T21:35:18.835686,0.9902228713035583,0.004004997666925192,-0.010667901486158371,-0.13902871310710907,0.166015625,-0.8779296875,-0.4619140625
2023-07-29T21:35:18.846763,0.9901976585388184,0.004241407848894596,-0.010700137354433537,-0.1391981691122055,0.166015625,-0.8779296875,-0.4619140625
2023-07-29T21:35:18.866045,0.9901976585388184,0.004241407848894596,-0.010700137354433537,-0.1391981691122055,0.173828125,-0.88232421875,-0.46435546875
2023-07-29T21:35:18.867052,0.9901733994483948,0.004493905697017908,-0.010580499656498432,-0.13937225937843323,0.173828125,-0.88232421875,-0.46435546875
2023-07-29T21:35:18.895843,0.9901733994483948,0.004493905697017908,-0.010580499656498432,-0.13937225937843323,0.1787109375,-0.875,-0.46923828125
2023-07-29T21:35:18.897347,0.9901479482650757,0.00477543193846941,-0.010406416840851307,-0.13955627381801605,0.1787109375,-0.875,-0.46923828125
2023-07-29T21:35:18.898065,0.9901479482650757,0.00477543193846941,-0.010406416840851307,-0.13955627381801605,0.185546875,-0.87646484375,-0.47216796875
2023-07-29T21:35:18.898347,0.9901208877563477,0.005156840663403273,-0.010278269648551941,-0.13974453508853912,0.185546875,-0.87646484375,-0.47216796875
2023-07-29T21:35:18.899345,0.9901208877563477,0.005156840663403273,-0.010278269648551941,-0.13974453508853912,0.18896484375,-0.87109375,-0.48486328125
2023-07-29T21:35:18.900342,0.9901074767112732,0.005426366347819567,-0.010182826779782772,-0.13983502984046936,0.18896484375,-0.87109375,-0.48486328125
2023-07-29T21:35:18.900342,0.9901074767112732,0.005426366347819567,-0.010182826779782772,-0.13983502984046936,0.1787109375,-0.85400390625,-0.48291015625
2023-07-29T21:35:18.901339,0.9900966882705688,0.005599910859018564,-0.010313247330486774,-0.1398962289094925,0.1787109375,-0.85400390625,-0.48291015625
2023-07-29T21:35:18.903335,0.9900966882705688,0.005599910859018564,-0.010313247330486774,-0.1398962289094925,0.17236328125,-0.861328125,-0.47119140625
2023-07-29T21:35:18.903335,0.9900844693183899,0.0057319593615829945,-0.010487441904842854,-0.1399640589952469,0.17236328125,-0.861328125,-0.47119140625
2023-07-29T21:35:18.904332,0.9900844693183899,0.0057319593615829945,-0.010487441904842854,-0.1399640589952469,0.17138671875,-0.8720703125,-0.46044921875
2023-07-29T21:35:18.905839,0.9900680780410767,0.005884259939193726,-0.010508175007998943,-0.14007189869880676,0.17138671875,-0.8720703125,-0.46044921875
2023-07-29T21:35:18.939969,0.9900680780410767,0.005884259939193726,-0.010508175007998943,-0.14007189869880676,0.1669921875,-0.86572265625,-0.45751953125
2023-07-29T21:35:18.941963,0.9900522232055664,0.006201643962413073,-0.010414088144898415,-0.14017736911773682,0.1669921875,-0.86572265625,-0.45751953125
2023-07-29T21:35:18.968649,0.9900522232055664,0.006201643962413073,-0.010414088144898415,-0.14017736911773682,0.1708984375,-0.8583984375,-0.4619140625
2023-07-29T21:35:18.968649,0.9900289177894592,0.006597660016268492,-0.010219057090580463,-0.14033880829811096,0.1708984375,-0.8583984375,-0.4619140625
2023-07-29T21:35:18.969653,0.9900289177894592,0.006597660016268492,-0.010219057090580463,-0.14033880829811096,0.18212890625,-0.85986328125,-0.47216796875
2023-07-29T21:35:18.970651,0.9899965524673462,0.007014384493231773,-0.00999455340206623,-0.14056234061717987,0.18212890625,-0.85986328125,-0.47216796875
2023-07-29T21:35:18.970651,0.9899965524673462,0.007014384493231773,-0.00999455340206623,-0.14056234061717987,0.17822265625,-0.8505859375,-0.48486328125
2023-07-29T21:35:18.971648,0.9899709224700928,0.007175435312092304,-0.009957466274499893,-0.1407375931739807,0.17822265625,-0.8505859375,-0.48486328125
2023-07-29T21:35:18.986994,0.9899709224700928,0.007175435312092304,-0.009957466274499893,-0.1407375931739807,0.17529296875,-0.85498046875,-0.47998046875
2023-07-29T21:35:18.986994,0.9899422526359558,0.0071541010402143,-0.010119588114321232,-0.14092861115932465,0.17529296875,-0.85498046875,-0.47998046875
2023-07-29T21:35:18.988218,0.9899422526359558,0.0071541010402143,-0.010119588114321232,-0.14092861115932465,0.181640625,-0.87548828125,-0.46337890625
2023-07-29T21:35:18.988218,0.9899205565452576,0.0071437181904911995,-0.010201935656368732,-0.14107508957386017,0.181640625,-0.87548828125,-0.46337890625
2023-07-29T21:35:18.988218,0.9899205565452576,0.0071437181904911995,-0.010201935656368732,-0.14107508957386017,0.1904296875,-0.87744140625,-0.4609375
2023-07-29T21:35:18.989433,0.989895224571228,0.0072981445118784904,-0.010062899440526962,-0.1412549912929535,0.1904296875,-0.87744140625,-0.4609375
2023-07-29T21:35:18.989433,0.989895224571228,0.0072981445118784904,-0.010062899440526962,-0.1412549912929535,0.19873046875,-0.8779296875,-0.47265625
2023-07-29T21:35:18.990429,0.9898644089698792,0.007539891637861729,-0.009853372350335121,-0.14147259294986725,0.19873046875,-0.8779296875,-0.47265625
2023-07-29T21:35:18.990429,0.9898644089698792,0.007539891637861729,-0.009853372350335121,-0.14147259294986725,0.205078125,-0.87939453125,-0.47998046875
2023-07-29T21:35:18.991428,0.9898334741592407,0.007811671122908592,-0.009645001031458378,-0.1416883021593094,0.205078125,-0.87939453125,-0.47998046875
2023-07-29T21:35:18.991428,0.9898334741592407,0.007811671122908592,-0.009645001031458378,-0.1416883021593094,0.2021484375,-0.86865234375,-0.4833984375
2023-07-29T21:35:18.992425,0.9898070693016052,0.007918483577668667,-0.00954161025583744,-0.14187408983707428,0.2021484375,-0.86865234375,-0.4833984375
2023-07-29T21:35:18.992425,0.9898070693016052,0.007918483577668667,-0.00954161025583744,-0.14187408983707428,0.19287109375,-0.8740234375,-0.47216796875
2023-07-29T21:35:18.993421,0.989783763885498,0.008011450059711933,-0.009643939323723316,-0.14202488958835602,0.19287109375,-0.8740234375,-0.47216796875
2023-07-29T21:35:18.993421,0.989783763885498,0.008011450059711933,-0.009643939323723316,-0.14202488958835602,0.18505859375,-0.884765625,-0.45458984375
2023-07-29T21:35:18.994419,0.9897660613059998,0.008093663491308689,-0.009707851335406303,-0.14213906228542328,0.18505859375,-0.884765625,-0.45458984375
2023-07-29T21:35:18.994419,0.9897660613059998,0.008093663491308689,-0.009707851335406303,-0.14213906228542328,0.18603515625,-0.8828125,-0.45166015625
2023-07-29T21:35:18.995925,0.9897513389587402,0.008297340013086796,-0.009607034735381603,-0.1422363817691803,0.18603515625,-0.8828125,-0.45166015625
2023-07-29T21:35:18.997426,0.9897513389587402,0.008297340013086796,-0.009607034735381603,-0.1422363817691803,0.19580078125,-0.88671875,-0.4560546875
2023-07-29T21:35:18.999423,0.9897308349609375,0.00858254637569189,-0.009370127692818642,-0.1423775851726532,0.19580078125,-0.88671875,-0.4560546875
2023-07-29T21:35:19.006914,0.9897308349609375,0.00858254637569189,-0.009370127692818642,-0.1423775851726532,0.2041015625,-0.89794921875,-0.45947265625
2023-07-29T21:35:19.007418,0.9897044897079468,0.008925525471568108,-0.009066668339073658,-0.14255937933921814,0.2041015625,-0.89794921875,-0.45947265625
2023-07-29T21:35:19.014402,0.9897044897079468,0.008925525471568108,-0.009066668339073658,-0.14255937933921814,0.20361328125,-0.900390625,-0.46728515625
2023-07-29T21:35:19.014402,0.9896801710128784,0.009156006388366222,-0.008768380619585514,-0.1427319049835205,0.20361328125,-0.900390625,-0.46728515625
2023-07-29T21:35:19.021985,0.9896801710128784,0.009156006388366222,-0.008768380619585514,-0.1427319049835205,0.19482421875,-0.88134765625,-0.474609375
2023-07-29T21:35:19.021985,0.9896621108055115,0.009055327624082565,-0.008699290454387665,-0.1428678333759308,0.19482421875,-0.88134765625,-0.474609375
2023-07-29T21:35:19.036688,0.9896621108055115,0.009055327624082565,-0.008699290454387665,-0.1428678333759308,0.19091796875,-0.8818359375,-0.46240234375
2023-07-29T21:35:19.036688,0.989640474319458,0.008963381871581078,-0.008828110061585903,-0.14301560819149017,0.19091796875,-0.8818359375,-0.46240234375
2023-07-29T21:35:19.043927,0.989640474319458,0.008963381871581078,-0.008828110061585903,-0.14301560819149017,0.19580078125,-0.8994140625,-0.45458984375
2023-07-29T21:35:19.044924,0.989639937877655,0.008955096825957298,-0.008885442279279232,-0.14301612973213196,0.19580078125,-0.8994140625,-0.45458984375
2023-07-29T21:35:19.050912,0.989639937877655,0.008955096825957298,-0.008885442279279232,-0.14301612973213196,0.19775390625,-0.88818359375,-0.46044921875
2023-07-29T21:35:19.051910,0.989641547203064,0.008980992250144482,-0.008706249296665192,-0.14301450550556183,0.19775390625,-0.88818359375,-0.46044921875
2023-07-29T21:35:19.066599,0.989641547203064,0.008980992250144482,-0.008706249296665192,-0.14301450550556183,0.197265625,-0.875,-0.46533203125
2023-07-29T21:35:19.066599,0.9896427989006042,0.009128027595579624,-0.008461634628474712,-0.1430111676454544,0.197265625,-0.875,-0.46533203125
2023-07-29T21:35:19.074735,0.9896427989006042,0.009128027595579624,-0.008461634628474712,-0.1430111676454544,0.19482421875,-0.86669921875,-0.47265625
2023-07-29T21:35:19.074735,0.9896456599235535,0.009176199324429035,-0.008128281682729721,-0.14300809800624847,0.19482421875,-0.86669921875,-0.47265625
2023-07-29T21:35:19.081007,0.9896456599235535,0.009176199324429035,-0.008128281682729721,-0.14300809800624847,0.19921875,-0.8525390625,-0.48095703125
2023-07-29T21:35:19.081995,0.9896479249000549,0.009120708331465721,-0.007923531346023083,-0.14300698041915894,0.19921875,-0.8525390625,-0.48095703125
2023-07-29T21:35:19.104062,0.9896479249000549,0.009120708331465721,-0.007923531346023083,-0.14300698041915894,0.205078125,-0.86181640625,-0.4775390625
2023-07-29T21:35:19.104931,0.9896381497383118,0.009121250361204147,-0.00792290735989809,-0.14307470619678497,0.205078125,-0.86181640625,-0.4775390625
2023-07-29T21:35:19.104931,0.9896381497383118,0.009121250361204147,-0.00792290735989809,-0.14307470619678497,0.208984375,-0.875,-0.46826171875
2023-07-29T21:35:19.105923,0.9896388649940491,0.009134048596024513,-0.007834384217858315,-0.1430738866329193,0.208984375,-0.875,-0.46826171875
2023-07-29T21:35:19.111210,0.9896388649940491,0.009134048596024513,-0.007834384217858315,-0.1430738866329193,0.21044921875,-0.876953125,-0.462890625
2023-07-29T21:35:19.112207,0.9896385669708252,0.009360617026686668,-0.007665088400244713,-0.14307048916816711,0.21044921875,-0.876953125,-0.462890625
2023-07-29T21:35:19.126764,0.9896385669708252,0.009360617026686668,-0.007665088400244713,-0.14307048916816711,0.20947265625,-0.86865234375,-0.47216796875
2023-07-29T21:35:19.126764,0.9896389245986938,0.009522886946797371,-0.007473321165889502,-0.14306746423244476,0.20947265625,-0.86865234375,-0.47216796875
2023-07-29T21:35:19.134259,0.9896389245986938,0.009522886946797371,-0.007473321165889502,-0.14306746423244476,0.20947265625,-0.8662109375,-0.478515625
2023-07-29T21:35:19.134259,0.9896394610404968,0.009533424861729145,-0.007400425150990486,-0.14306676387786865,0.20947265625,-0.8662109375,-0.478515625
2023-07-29T21:35:19.141257,0.9896394610404968,0.009533424861729145,-0.007400425150990486,-0.14306676387786865,0.2099609375,-0.8798828125,-0.4658203125
2023-07-29T21:35:19.142255,0.989629864692688,0.00959120225161314,-0.0074081080965697765,-0.14312884211540222,0.2099609375,-0.8798828125,-0.4658203125
2023-07-29T21:35:19.157004,0.989629864692688,0.00959120225161314,-0.0074081080965697765,-0.14312884211540222,0.21728515625,-0.900390625,-0.45947265625
2023-07-29T21:35:19.157004,0.9896208643913269,0.00971376895904541,-0.007372069172561169,-0.14318476617336273,0.21728515625,-0.900390625,-0.45947265625
2023-07-29T21:35:19.163180,0.9896208643913269,0.00971376895904541,-0.007372069172561169,-0.14318476617336273,0.22412109375,-0.89453125,-0.46435546875
2023-07-29T21:35:19.164178,0.9896200299263,0.009920894168317318,-0.0072638001292943954,-0.14318203926086426,0.22412109375,-0.89453125,-0.46435546875
2023-07-29T21:35:19.171735,0.9896200299263,0.009920894168317318,-0.0072638001292943954,-0.14318203926086426,0.22119140625,-0.88916015625,-0.46875
2023-07-29T21:35:19.171735,0.989619255065918,0.010130279697477818,-0.0071399034932255745,-0.14317914843559265,0.22119140625,-0.88916015625,-0.46875
2023-07-29T21:35:19.186716,0.989619255065918,0.010130279697477818,-0.0071399034932255745,-0.14317914843559265,0.216796875,-0.8896484375,-0.46923828125
2023-07-29T21:35:19.186716,0.9896197319030762,0.010141713544726372,-0.007060866337269545,-0.143178328871727,0.216796875,-0.8896484375,-0.46923828125
2023-07-29T21:35:19.193711,0.9896197319030762,0.010141713544726372,-0.007060866337269545,-0.143178328871727,0.212890625,-0.89306640625,-0.46240234375
2023-07-29T21:35:19.194709,0.9896272420883179,0.0101413419470191,-0.007061399985104799,-0.1431262344121933,0.212890625,-0.89306640625,-0.46240234375
2023-07-29T21:35:19.201707,0.9896272420883179,0.0101413419470191,-0.007061399985104799,-0.1431262344121933,0.212890625,-0.8994140625,-0.45947265625
2023-07-29T21:35:19.201707,0.9896272420883179,0.0101413419470191,-0.007061399985104799,-0.1431262344121933,0.212890625,-0.8994140625,-0.45947265625
2023-07-29T21:35:19.216777,0.9896272420883179,0.0101413419470191,-0.007061399985104799,-0.1431262344121933,0.21875,-0.8916015625,-0.46630859375
2023-07-29T21:35:19.216777,0.9896263480186462,0.010230963118374348,-0.00707436166703701,-0.14312559366226196,0.21875,-0.8916015625,-0.46630859375
2023-07-29T21:35:19.223924,0.9896263480186462,0.010230963118374348,-0.00707436166703701,-0.14312559366226196,0.21923828125,-0.8876953125,-0.4697265625
2023-07-29T21:35:19.223924,0.9896254539489746,0.010317886248230934,-0.007086933124810457,-0.14312496781349182,0.21923828125,-0.8876953125,-0.4697265625
2023-07-29T21:35:19.230922,0.9896254539489746,0.010317886248230934,-0.007086933124810457,-0.14312496781349182,0.2138671875,-0.89013671875,-0.47216796875
2023-07-29T21:35:19.231919,0.9896262884140015,0.010183833539485931,-0.007131393998861313,-0.14312651753425598,0.2138671875,-0.89013671875,-0.47216796875
2023-07-29T21:35:19.245913,0.9896262884140015,0.010183833539485931,-0.007131393998861313,-0.14312651753425598,0.20556640625,-0.88427734375,-0.46484375
2023-07-29T21:35:19.246912,0.9896344542503357,0.01016529742628336,-0.007257085759192705,-0.14306528866291046,0.20556640625,-0.88427734375,-0.46484375
2023-07-29T21:35:19.254421,0.9896344542503357,0.01016529742628336,-0.007257085759192705,-0.14306528866291046,0.20166015625,-0.8798828125,-0.46240234375
2023-07-29T21:35:19.254421,0.9896444082260132,0.010090838186442852,-0.007401400711387396,-0.14299429953098297,0.20166015625,-0.8798828125,-0.46240234375
2023-07-29T21:35:19.261422,0.9896444082260132,0.010090838186442852,-0.007401400711387396,-0.14299429953098297,0.20263671875,-0.8759765625,-0.4658203125
2023-07-29T21:35:19.261422,0.9896437525749207,0.010078647173941135,-0.007485773880034685,-0.14299516379833221,0.20263671875,-0.8759765625,-0.4658203125
2023-07-29T21:35:19.269018,0.9896437525749207,0.010078647173941135,-0.007485773880034685,-0.14299516379833221,0.1982421875,-0.87109375,-0.46533203125
2023-07-29T21:35:19.276688,0.9896517992019653,0.010182956233620644,-0.007570774294435978,-0.14292725920677185,0.1982421875,-0.87109375,-0.46533203125
2023-07-29T21:35:19.283964,0.9896517992019653,0.010182956233620644,-0.007570774294435978,-0.14292725920677185,0.1904296875,-0.869140625,-0.4619140625
2023-07-29T21:35:19.283964,0.9896624088287354,0.010322975926101208,-0.007591946050524712,-0.1428428441286087,0.1904296875,-0.869140625,-0.4619140625
2023-07-29T21:35:19.291073,0.9896624088287354,0.010322975926101208,-0.007591946050524712,-0.1428428441286087,0.17626953125,-0.8642578125,-0.46337890625
2023-07-29T21:35:19.292072,0.9896776676177979,0.0102260522544384,-0.007669592741876841,-0.14274021983146667,0.17626953125,-0.8642578125,-0.46337890625
2023-07-29T21:35:19.298070,0.9896776676177979,0.0102260522544384,-0.007669592741876841,-0.14274021983146667,0.1787109375,-0.86767578125,-0.4560546875
2023-07-29T21:35:19.306634,0.9896844029426575,0.010211369022727013,-0.0077691394835710526,-0.14268915355205536,0.1787109375,-0.86767578125,-0.4560546875
2023-07-29T21:35:19.313945,0.9896844029426575,0.010211369022727013,-0.0077691394835710526,-0.14268915355205536,0.18115234375,-0.876953125,-0.45703125
2023-07-29T21:35:19.313945,0.9896921515464783,0.010263022035360336,-0.007777242921292782,-0.1426314413547516,0.18115234375,-0.876953125,-0.45703125
2023-07-29T21:35:19.320940,0.9896921515464783,0.010263022035360336,-0.007777242921292782,-0.1426314413547516,0.1826171875,-0.8779296875,-0.4580078125
2023-07-29T21:35:19.321938,0.9897034168243408,0.010262408293783665,-0.007778053171932697,-0.14255329966545105,0.1826171875,-0.8779296875,-0.4580078125
2023-07-29T21:35:19.328933,0.9897034168243408,0.010262408293783665,-0.007778053171932697,-0.14255329966545105,0.17919921875,-0.87646484375,-0.45556640625
2023-07-29T21:35:19.328933,0.989715576171875,0.010261745192110538,-0.007778927683830261,-0.14246895909309387,0.17919921875,-0.87646484375,-0.45556640625
2023-07-29T21:35:19.343416,0.989715576171875,0.010261745192110538,-0.007778927683830261,-0.14246895909309387,0.181640625,-0.8720703125,-0.4619140625
2023-07-29T21:35:19.344414,0.9897274971008301,0.010198626667261124,-0.0077707404270768166,-0.14239130914211273,0.181640625,-0.8720703125,-0.4619140625
2023-07-29T21:35:19.350922,0.9897274971008301,0.010198626667261124,-0.0077707404270768166,-0.14239130914211273,0.1904296875,-0.8798828125,-0.45947265625
2023-07-29T21:35:19.351920,0.9897274971008301,0.010198626667261124,-0.0077707404270768166,-0.14239130914211273,0.1904296875,-0.8798828125,-0.45947265625
2023-07-29T21:35:19.359056,0.9897274971008301,0.010198626667261124,-0.0077707404270768166,-0.14239130914211273,0.197265625,-0.8876953125,-0.45703125
2023-07-29T21:35:19.359056,0.9897274971008301,0.010198626667261124,-0.0077707404270768166,-0.14239130914211273,0.197265625,-0.8876953125,-0.45703125
2023-07-29T21:35:19.373160,0.9897274971008301,0.010198626667261124,-0.0077707404270768166,-0.14239130914211273,0.19873046875,-0.88916015625,-0.4580078125
2023-07-29T21:35:19.374158,0.9897279143333435,0.010208364576101303,-0.007703046780079603,-0.14239059388637543,0.19873046875,-0.88916015625,-0.4580078125
2023-07-29T21:35:19.381648,0.9897279143333435,0.010208364576101303,-0.007703046780079603,-0.14239059388637543,0.19482421875,-0.87841796875,-0.46630859375
2023-07-29T21:35:19.381648,0.9897291660308838,0.01008855365216732,-0.00768580986186862,-0.14239153265953064,0.19482421875,-0.87841796875,-0.46630859375
2023-07-29T21:35:19.389395,0.9897291660308838,0.01008855365216732,-0.00768580986186862,-0.14239153265953064,0.19287109375,-0.8720703125,-0.46337890625
2023-07-29T21:35:19.389395,0.989729642868042,0.009985792450606823,-0.007734866812825203,-0.14239290356636047,0.19287109375,-0.8720703125,-0.46337890625
2023-07-29T21:35:19.403950,0.989729642868042,0.009985792450606823,-0.007734866812825203,-0.14239290356636047,0.197265625,-0.88134765625,-0.46044921875
2023-07-29T21:35:19.403950,0.9897292256355286,0.009978203102946281,-0.007787616923451424,-0.14239344000816345,0.197265625,-0.88134765625,-0.46044921875
2023-07-29T21:35:19.411673,0.9897292256355286,0.009978203102946281,-0.007787616923451424,-0.14239344000816345,0.201171875,-0.88427734375,-0.462890625
2023-07-29T21:35:19.411673,0.9897298216819763,0.009920907206833363,-0.007779373787343502,-0.14239388704299927,0.201171875,-0.88427734375,-0.462890625
2023-07-29T21:35:19.418759,0.9897298216819763,0.009920907206833363,-0.007779373787343502,-0.14239388704299927,0.20166015625,-0.88134765625,-0.46533203125
2023-07-29T21:35:19.419729,0.9897302389144897,0.009928397834300995,-0.007727309595793486,-0.14239336550235748,0.20166015625,-0.88134765625,-0.46533203125
2023-07-29T21:35:19.434308,0.9897302389144897,0.009928397834300995,-0.007727309595793486,-0.14239336550235748,0.2001953125,-0.87158203125,-0.47412109375
2023-07-29T21:35:19.434308,0.9897313117980957,0.009819005616009235,-0.007711571175605059,-0.14239421486854553,0.2001953125,-0.87158203125,-0.47412109375
2023-07-29T21:35:19.441308,0.9897313117980957,0.009819005616009235,-0.007711571175605059,-0.14239421486854553,0.1982421875,-0.86474609375,-0.4794921875
2023-07-29T21:35:19.442306,0.9897320866584778,0.009605268947780132,-0.007829740643501282,-0.14239716529846191,0.1982421875,-0.86474609375,-0.4794921875
2023-07-29T21:35:19.449307,0.9897320866584778,0.009605268947780132,-0.007829740643501282,-0.14239716529846191,0.197265625,-0.87255859375,-0.47021484375
2023-07-29T21:35:19.449307,0.9897314310073853,0.009446514770388603,-0.008046217262744904,-0.14240042865276337,0.197265625,-0.87255859375,-0.47021484375
2023-07-29T21:35:19.464003,0.9897314310073853,0.009446514770388603,-0.008046217262744904,-0.14240042865276337,0.197265625,-0.8759765625,-0.4677734375
2023-07-29T21:35:19.464003,0.9897311925888062,0.009352634660899639,-0.008144407533109188,-0.14240209758281708,0.197265625,-0.8759765625,-0.4677734375
2023-07-29T21:35:19.470949,0.9897311925888062,0.009352634660899639,-0.008144407533109188,-0.14240209758281708,0.197265625,-0.87158203125,-0.4677734375
2023-07-29T21:35:19.471945,0.9897311925888062,0.009352634660899639,-0.008144407533109188,-0.14240209758281708,0.197265625,-0.87158203125,-0.4677734375
2023-07-29T21:35:19.478985,0.9897311925888062,0.009352634660899639,-0.008144407533109188,-0.14240209758281708,0.19189453125,-0.86865234375,-0.4677734375
2023-07-29T21:35:19.479983,0.9897304773330688,0.009430788457393646,-0.008155652321875095,-0.14240145683288574,0.19189453125,-0.86865234375,-0.4677734375
2023-07-29T21:35:19.494225,0.9897304773330688,0.009430788457393646,-0.008155652321875095,-0.14240145683288574,0.18603515625,-0.8701171875,-0.46630859375
2023-07-29T21:35:19.494225,0.9897302389144897,0.009506911039352417,-0.008112828247249126,-0.14240038394927979,0.18603515625,-0.8701171875,-0.46630859375
2023-07-29T21:35:19.501539,0.9897302389144897,0.009506911039352417,-0.008112828247249126,-0.14240038394927979,0.17919921875,-0.8662109375,-0.45849609375
2023-07-29T21:35:19.501539,0.9897297620773315,0.009612892754375935,-0.00806548073887825,-0.14239899814128876,0.17919921875,-0.8662109375,-0.45849609375
2023-07-29T21:35:19.509544,0.9897297620773315,0.009612892754375935,-0.00806548073887825,-0.14239899814128876,0.18017578125,-0.86669921875,-0.45703125
2023-07-29T21:35:19.510541,0.9897292852401733,0.009726833552122116,-0.008012779988348484,-0.14239749312400818,0.18017578125,-0.86669921875,-0.45703125
2023-07-29T21:35:19.524042,0.9897292852401733,0.009726833552122116,-0.008012779988348484,-0.14239749312400818,0.19287109375,-0.86669921875,-0.46435546875
2023-07-29T21:35:19.525040,0.9897147417068481,0.009896266274154186,-0.008036172017455101,-0.14248573780059814,0.19287109375,-0.86669921875,-0.46435546875
2023-07-29T21:35:19.531044,0.9897147417068481,0.009896266274154186,-0.008036172017455101,-0.14248573780059814,0.20068359375,-0.86767578125,-0.4736328125
2023-07-29T21:35:19.532042,0.9897010922431946,0.00998555589467287,-0.008048037998378277,-0.14257358014583588,0.20068359375,-0.86767578125,-0.4736328125
2023-07-29T21:35:19.538855,0.9897010922431946,0.00998555589467287,-0.008048037998378277,-0.14257358014583588,0.19482421875,-0.873046875,-0.46923828125
2023-07-29T21:35:19.538855,0.9896875023841858,0.009971261955797672,-0.00815136544406414,-0.14266319572925568,0.19482421875,-0.873046875,-0.46923828125
2023-07-29T21:35:19.553827,0.9896875023841858,0.009971261955797672,-0.00815136544406414,-0.14266319572925568,0.18896484375,-0.88427734375,-0.45654296875
2023-07-29T21:35:19.553827,0.9896768927574158,0.010072167031466961,-0.008229050785303116,-0.14272543787956238,0.18896484375,-0.88427734375,-0.45654296875
2023-07-29T21:35:19.561852,0.9896768927574158,0.010072167031466961,-0.008229050785303116,-0.14272543787956238,0.18994140625,-0.8828125,-0.45458984375
2023-07-29T21:35:19.562851,0.9896659851074219,0.010249200277030468,-0.008184713311493397,-0.14279109239578247,0.18994140625,-0.8828125,-0.45458984375
2023-07-29T21:35:19.568462,0.9896659851074219,0.010249200277030468,-0.008184713311493397,-0.14279109239578247,0.1953125,-0.873046875,-0.46630859375
2023-07-29T21:35:19.569464,0.9896547198295593,0.010496257804334164,-0.008097302168607712,-0.1428556740283966,0.1953125,-0.873046875,-0.46630859375
2023-07-29T21:35:19.575957,0.9896547198295593,0.010496257804334164,-0.008097302168607712,-0.1428556740283966,0.2001953125,-0.87109375,-0.46875
2023-07-29T21:35:19.583975,0.9896414875984192,0.010814880020916462,-0.007993509992957115,-0.1429298371076584,0.2001953125,-0.87109375,-0.46875
2023-07-29T21:35:19.591162,0.9896414875984192,0.010814880020916462,-0.007993509992957115,-0.1429298371076584,0.1904296875,-0.8798828125,-0.46044921875
2023-07-29T21:35:19.592159,0.9896389245986938,0.011225995607674122,-0.007834888994693756,-0.14292441308498383,0.1904296875,-0.8798828125,-0.46044921875
2023-07-29T21:35:19.598867,0.9896389245986938,0.011225995607674122,-0.007834888994693756,-0.14292441308498383,0.18701171875,-0.8720703125,-0.45458984375
2023-07-29T21:35:19.598867,0.9896478056907654,0.011992951855063438,-0.007661793846637011,-0.14281001687049866,0.18701171875,-0.8720703125,-0.45458984375
2023-07-29T21:35:19.606350,0.9896478056907654,0.011992951855063438,-0.007661793846637011,-0.14281001687049866,0.1904296875,-0.869140625,-0.45556640625
2023-07-29T21:35:19.606853,0.9896684885025024,0.012908056378364563,-0.007392356637865305,-0.14260053634643555,0.1904296875,-0.869140625,-0.45556640625
2023-07-29T21:35:19.621861,0.9896684885025024,0.012908056378364563,-0.007392356637865305,-0.14260053634643555,0.193359375,-0.841796875,-0.47412109375
2023-07-29T21:35:19.621861,0.9896684288978577,0.013095909729599953,-0.0071589029394090176,-0.1425960808992386,0.193359375,-0.841796875,-0.47412109375
2023-07-29T21:35:19.629110,0.9896684288978577,0.013095909729599953,-0.0071589029394090176,-0.1425960808992386,0.1953125,-0.8798828125,-0.466796875
2023-07-29T21:35:19.629110,0.9896597862243652,0.013858187943696976,-0.007072021719068289,-0.14258816838264465,0.1953125,-0.8798828125,-0.466796875
2023-07-29T21:35:19.636031,0.9896597862243652,0.013858187943696976,-0.007072021719068289,-0.14258816838264465,0.185546875,-0.87158203125,-0.45703125
2023-07-29T21:35:19.637030,0.9896721243858337,0.01466585136950016,-0.006775779649615288,-0.1424364149570465,0.185546875,-0.87158203125,-0.45703125
2023-07-29T21:35:19.651266,0.9896721243858337,0.01466585136950016,-0.006775779649615288,-0.1424364149570465,0.18359375,-0.85302734375,-0.4658203125
2023-07-29T21:35:19.651266,0.989677369594574,0.015379192307591438,-0.006582195870578289,-0.14233367145061493,0.18359375,-0.85302734375,-0.4658203125
2023-07-29T21:35:19.658263,0.989677369594574,0.015379192307591438,-0.006582195870578289,-0.14233367145061493,0.17919921875,-0.8486328125,-0.46630859375
2023-07-29T21:35:19.659260,0.989661693572998,0.015864288434386253,-0.006464779376983643,-0.1423955112695694,0.17919921875,-0.8486328125,-0.46630859375
2023-07-29T21:35:19.666754,0.989661693572998,0.015864288434386253,-0.006464779376983643,-0.1423955112695694,0.17822265625,-0.86376953125,-0.45166015625
2023-07-29T21:35:19.667257,0.9896539449691772,0.01645643077790737,-0.0063132657669484615,-0.14238810539245605,0.17822265625,-0.86376953125,-0.45166015625
2023-07-29T21:35:19.681240,0.9896539449691772,0.01645643077790737,-0.0063132657669484615,-0.14238810539245605,0.173828125,-0.86767578125,-0.451171875
2023-07-29T21:35:19.681240,0.9896567463874817,0.016998017206788063,-0.006131873000413179,-0.1423128992319107,0.173828125,-0.86767578125,-0.451171875
2023-07-29T21:35:19.688985,0.9896567463874817,0.016998017206788063,-0.006131873000413179,-0.1423128992319107,0.1689453125,-0.8544921875,-0.45361328125
2023-07-29T21:35:19.688985,0.9896509051322937,0.017401481047272682,-0.00606231763958931,-0.14230836927890778,0.1689453125,-0.8544921875,-0.45361328125
2023-07-29T21:35:19.696469,0.9896509051322937,0.017401481047272682,-0.00606231763958931,-0.14230836927890778,0.17529296875,-0.857421875,-0.44677734375
2023-07-29T21:35:19.696973,0.9896283149719238,0.0178204532712698,-0.006035505328327417,-0.14241378009319305,0.17529296875,-0.857421875,-0.44677734375
2023-07-29T21:35:19.711171,0.9896283149719238,0.0178204532712698,-0.006035505328327417,-0.14241378009319305,0.18505859375,-0.880859375,-0.4423828125
2023-07-29T21:35:19.712169,0.9895985126495361,0.01827557198703289,-0.0059065730310976505,-0.14256927371025085,0.18505859375,-0.880859375,-0.4423828125
2023-07-29T21:35:19.718864,0.9895985126495361,0.01827557198703289,-0.0059065730310976505,-0.14256927371025085,0.1865234375,-0.884765625,-0.4453125
2023-07-29T21:35:19.718864,0.9895705580711365,0.01883103884756565,-0.005744746420532465,-0.14269724488258362,0.1865234375,-0.884765625,-0.4453125
2023-07-29T21:35:19.725846,0.9895705580711365,0.01883103884756565,-0.005744746420532465,-0.14269724488258362,0.1865234375,-0.87548828125,-0.43994140625
2023-07-29T21:35:19.726932,0.9895233511924744,0.01944664679467678,-0.005647698882967234,-0.14294566214084625,0.1865234375,-0.87548828125,-0.43994140625
2023-07-29T21:35:19.741073,0.9895233511924744,0.01944664679467678,-0.005647698882967234,-0.14294566214084625,0.189453125,-0.89501953125,-0.43896484375
2023-07-29T21:35:19.742070,0.989486038684845,0.019821003079414368,-0.005489960312843323,-0.1431584507226944,0.189453125,-0.89501953125,-0.43896484375
2023-07-29T21:35:19.749457,0.989486038684845,0.019821003079414368,-0.005489960312843323,-0.1431584507226944,0.189453125,-0.8994140625,-0.43798828125
2023-07-29T21:35:19.749457,0.9894535541534424,0.020112304016947746,-0.005339746363461018,-0.1433483064174652,0.189453125,-0.8994140625,-0.43798828125
2023-07-29T21:35:19.755950,0.9894535541534424,0.020112304016947746,-0.005339746363461018,-0.1433483064174652,0.18212890625,-0.896484375,-0.43212890625
2023-07-29T21:35:19.758456,0.9894223213195801,0.020367125049233437,-0.0053090378642082214,-0.14352796971797943,0.18212890625,-0.896484375,-0.43212890625
2023-07-29T21:35:19.771443,0.9894223213195801,0.020367125049233437,-0.0053090378642082214,-0.14352796971797943,0.18359375,-0.90087890625,-0.42919921875
2023-07-29T21:35:19.771443,0.9893844723701477,0.020549388602375984,-0.0052065663039684296,-0.14376702904701233,0.18359375,-0.90087890625,-0.42919921875
2023-07-29T21:35:19.779440,0.9893844723701477,0.020549388602375984,-0.0052065663039684296,-0.14376702904701233,0.1904296875,-0.90673828125,-0.42578125
2023-07-29T21:35:19.779440,0.9893421530723572,0.02075570449233055,-0.005048069637268782,-0.1440332531929016,0.1904296875,-0.90673828125,-0.42578125
2023-07-29T21:35:19.785932,0.9893421530723572,0.02075570449233055,-0.005048069637268782,-0.1440332531929016,0.1962890625,-0.9052734375,-0.43017578125
2023-07-29T21:35:19.787437,0.9892985820770264,0.020981764420866966,-0.004814326297491789,-0.1443081647157669,0.1962890625,-0.9052734375,-0.43017578125
2023-07-29T21:35:19.801422,0.9892985820770264,0.020981764420866966,-0.004814326297491789,-0.1443081647157669,0.2021484375,-0.90185546875,-0.4326171875
2023-07-29T21:35:19.801422,0.9892566204071045,0.02120363712310791,-0.004587896633893251,-0.14457076787948608,0.2021484375,-0.90185546875,-0.4326171875
2023-07-29T21:35:19.809420,0.9892566204071045,0.02120363712310791,-0.004587896633893251,-0.14457076787948608,0.203125,-0.90185546875,-0.43408203125
2023-07-29T21:35:19.810417,0.9892226457595825,0.02138025127351284,-0.004364261869341135,-0.14478367567062378,0.203125,-0.90185546875,-0.43408203125
2023-07-29T21:35:19.815914,0.9892226457595825,0.02138025127351284,-0.004364261869341135,-0.14478367567062378,0.20263671875,-0.8974609375,-0.43359375
2023-07-29T21:35:19.816913,0.9891890287399292,0.021598344668745995,-0.004184158984571695,-0.14498673379421234,0.20263671875,-0.8974609375,-0.43359375
2023-07-29T21:35:19.839404,0.9891890287399292,0.021598344668745995,-0.004184158984571695,-0.14498673379421234,0.203125,-0.89501953125,-0.43115234375
2023-07-29T21:35:19.839404,0.9891621470451355,0.02183322235941887,-0.004034277983009815,-0.14513817429542542,0.203125,-0.89501953125,-0.43115234375
2023-07-29T21:35:19.845897,0.9891621470451355,0.02183322235941887,-0.004034277983009815,-0.14513817429542542,0.20166015625,-0.8984375,-0.42919921875
2023-07-29T21:35:19.847400,0.9891387820243835,0.022052396088838577,-0.00388256530277431,-0.14526885747909546,0.20166015625,-0.8984375,-0.42919921875
2023-07-29T21:35:19.848589,0.9891387820243835,0.022052396088838577,-0.00388256530277431,-0.14526885747909546,0.20654296875,-0.900390625,-0.4306640625
2023-07-29T21:35:19.854385,0.9891188740730286,0.022310499101877213,-0.003646745579317212,-0.14537140727043152,0.20654296875,-0.900390625,-0.4306640625
2023-07-29T21:35:19.854385,0.9891188740730286,0.022310499101877213,-0.003646745579317212,-0.14537140727043152,0.20849609375,-0.8955078125,-0.4365234375
2023-07-29T21:35:19.855892,0.9890986680984497,0.0225569736212492,-0.0033452704083174467,-0.14547781646251678,0.20849609375,-0.8955078125,-0.4365234375
2023-07-29T21:35:19.869383,0.9890986680984497,0.0225569736212492,-0.0033452704083174467,-0.14547781646251678,0.20458984375,-0.888671875,-0.43408203125
2023-07-29T21:35:19.869383,0.9890724420547485,0.022869857028126717,-0.003026240039616823,-0.1456146389245987,0.20458984375,-0.888671875,-0.43408203125
2023-07-29T21:35:19.875876,0.9890724420547485,0.022869857028126717,-0.003026240039616823,-0.1456146389245987,0.201171875,-0.88671875,-0.43408203125
2023-07-29T21:35:19.876876,0.9890463948249817,0.02321881614625454,-0.0027030277997255325,-0.145742267370224,0.201171875,-0.88671875,-0.43408203125
2023-07-29T21:35:19.884364,0.9890463948249817,0.02321881614625454,-0.0027030277997255325,-0.145742267370224,0.2041015625,-0.88916015625,-0.43359375
2023-07-29T21:35:19.891365,0.989017903804779,0.02349102310836315,-0.0023349474649876356,-0.1458989977836609,0.2041015625,-0.88916015625,-0.43359375
2023-07-29T21:35:19.898365,0.989017903804779,0.02349102310836315,-0.0023349474649876356,-0.1458989977836609,0.20458984375,-0.8916015625,-0.43505859375
2023-07-29T21:35:19.899362,0.9889971017837524,0.02377272956073284,-0.001974967774003744,-0.1459985077381134,0.20458984375,-0.8916015625,-0.43505859375
2023-07-29T21:35:19.906854,0.9889971017837524,0.02377272956073284,-0.001974967774003744,-0.1459985077381134,0.20458984375,-0.88818359375,-0.431640625
2023-07-29T21:35:19.907358,0.9889886975288391,0.024216532707214355,-0.0015990243991836905,-0.1459873467683792,0.20458984375,-0.88818359375,-0.431640625
2023-07-29T21:35:19.914342,0.9889886975288391,0.024216532707214355,-0.0015990243991836905,-0.1459873467683792,0.2080078125,-0.89697265625,-0.43212890625
2023-07-29T21:35:19.914342,0.9889712929725647,0.02463807351887226,-0.0012288886355236173,-0.14603890478610992,0.2080078125,-0.89697265625,-0.43212890625
2023-07-29T21:35:19.929341,0.9889712929725647,0.02463807351887226,-0.0012288886355236173,-0.14603890478610992,0.2138671875,-0.89599609375,-0.43798828125
2023-07-29T21:35:19.929341,0.988953709602356,0.025118563324213028,-0.0008198480936698616,-0.14607875049114227,0.2138671875,-0.89599609375,-0.43798828125
2023-07-29T21:35:19.935833,0.988953709602356,0.025118563324213028,-0.0008198480936698616,-0.14607875049114227,0.21484375,-0.88671875,-0.4384765625
2023-07-29T21:35:19.938335,0.9889418482780457,0.025663001462817192,-0.0004109453584533185,-0.14606617391109467,0.21484375,-0.88671875,-0.4384765625
2023-07-29T21:35:19.944320,0.9889418482780457,0.025663001462817192,-0.0004109453584533185,-0.14606617391109467,0.21826171875,-0.89111328125,-0.4384765625
2023-07-29T21:35:19.944320,0.9889249205589294,0.02638188563287258,1.0327140444132965e-05,-0.14605243504047394,0.21826171875,-0.89111328125,-0.4384765625
2023-07-29T21:35:19.959884,0.9889249205589294,0.02638188563287258,1.0327140444132965e-05,-0.14605243504047394,0.2197265625,-0.89306640625,-0.43603515625
2023-07-29T21:35:19.959884,0.9889127612113953,0.026919491589069366,0.0005532059003598988,-0.14603616297245026,0.2197265625,-0.89306640625,-0.43603515625
2023-07-29T21:35:19.966875,0.9889127612113953,0.026919491589069366,0.0005532059003598988,-0.14603616297245026,0.2158203125,-0.8857421875,-0.43798828125
2023-07-29T21:35:19.966875,0.988904595375061,0.027623683214187622,0.001069786143489182,-0.14595742523670197,0.2158203125,-0.8857421875,-0.43798828125
2023-07-29T21:35:19.973870,0.988904595375061,0.027623683214187622,0.001069786143489182,-0.14595742523670197,0.22216796875,-0.87158203125,-0.4521484375
2023-07-29T21:35:19.973870,0.9888906478881836,0.0281682088971138,0.0015159277245402336,-0.14594349265098572,0.22216796875,-0.87158203125,-0.4521484375
2023-07-29T21:35:20.003702,0.9888906478881836,0.0281682088971138,0.0015159277245402336,-0.14594349265098572,0.2236328125,-0.86669921875,-0.45751953125
2023-07-29T21:35:20.003702,0.9888655543327332,0.02848249487578869,0.0017759050242602825,-0.14604997634887695,0.2236328125,-0.86669921875,-0.45751953125
2023-07-29T21:35:20.005697,0.9888655543327332,0.02848249487578869,0.0017759050242602825,-0.14604997634887695,0.22509765625,-0.8984375,-0.43603515625
2023-07-29T21:35:20.006200,0.9888488054275513,0.028755463659763336,0.0019341257866472006,-0.14610731601715088,0.22509765625,-0.8984375,-0.43603515625
2023-07-29T21:35:20.006703,0.9888488054275513,0.028755463659763336,0.0019341257866472006,-0.14610731601715088,0.22509765625,-0.9150390625,-0.41845703125
2023-07-29T21:35:20.007919,0.9888362288475037,0.029212208464741707,0.002217632718384266,-0.14609810709953308,0.22509765625,-0.9150390625,-0.41845703125
2023-07-29T21:35:20.018907,0.9888362288475037,0.029212208464741707,0.002217632718384266,-0.14609810709953308,0.21435546875,-0.89453125,-0.423828125
2023-07-29T21:35:20.021899,0.9888260364532471,0.029575098305940628,0.0025245766155421734,-0.1460883468389511,0.21435546875,-0.89453125,-0.423828125
2023-07-29T21:35:20.026897,0.9888260364532471,0.029575098305940628,0.0025245766155421734,-0.1460883468389511,0.2177734375,-0.88037109375,-0.43017578125
2023-07-29T21:35:20.026897,0.9887961149215698,0.02986803650856018,0.002714262343943119,-0.14622806012630463,0.2177734375,-0.88037109375,-0.43017578125
2023-07-29T21:35:20.034007,0.9887961149215698,0.02986803650856018,0.002714262343943119,-0.14622806012630463,0.23193359375,-0.90234375,-0.43212890625
2023-07-29T21:35:20.034985,0.9887661337852478,0.03010794334113598,0.0028695520013570786,-0.1463792771100998,0.23193359375,-0.90234375,-0.43212890625
2023-07-29T21:35:20.051222,0.9887661337852478,0.03010794334113598,0.0028695520013570786,-0.1463792771100998,0.23828125,-0.9130859375,-0.4296875
2023-07-29T21:35:20.051222,0.9887452125549316,0.030270682647824287,0.0030401763506233692,-0.14648324251174927,0.23828125,-0.9130859375,-0.4296875
2023-07-29T21:35:20.057233,0.9887452125549316,0.030270682647824287,0.0030401763506233692,-0.14648324251174927,0.234375,-0.90625,-0.42822265625
2023-07-29T21:35:20.057233,0.988726019859314,0.03047492913901806,0.0031667936127632856,-0.14656765758991241,0.234375,-0.90625,-0.42822265625
2023-07-29T21:35:20.065042,0.988726019859314,0.03047492913901806,0.0031667936127632856,-0.14656765758991241,0.2353515625,-0.90771484375,-0.42626953125
2023-07-29T21:35:20.066039,0.9886981844902039,0.030607623979449272,0.0033168657682836056,-0.14672435820102692,0.2353515625,-0.90771484375,-0.42626953125
2023-07-29T21:35:20.081646,0.9886981844902039,0.030607623979449272,0.0033168657682836056,-0.14672435820102692,0.234375,-0.91357421875,-0.42724609375
2023-07-29T21:35:20.082643,0.9886761903762817,0.030743811279535294,0.0035156034864485264,-0.14683932065963745,0.234375,-0.91357421875,-0.42724609375
2023-07-29T21:35:20.086653,0.9886761903762817,0.030743811279535294,0.0035156034864485264,-0.14683932065963745,0.2294921875,-0.90869140625,-0.42578125
2023-07-29T21:35:20.086653,0.9886623024940491,0.03085542470216751,0.0036734517198055983,-0.14690589904785156,0.2294921875,-0.90869140625,-0.42578125
2023-07-29T21:35:20.093826,0.9886623024940491,0.03085542470216751,0.0036734517198055983,-0.14690589904785156,0.2265625,-0.908203125,-0.41943359375
2023-07-29T21:35:20.093826,0.9886592626571655,0.030956687405705452,0.003817938733845949,-0.14690130949020386,0.2265625,-0.908203125,-0.41943359375
2023-07-29T21:35:20.108826,0.9886592626571655,0.030956687405705452,0.003817938733845949,-0.14690130949020386,0.23046875,-0.90380859375,-0.419921875
2023-07-29T21:35:20.109824,0.9886553883552551,0.031083758920431137,0.0039213583804667,-0.14689798653125763,0.23046875,-0.90380859375,-0.419921875
2023-07-29T21:35:20.116310,0.9886553883552551,0.031083758920431137,0.0039213583804667,-0.14689798653125763,0.232421875,-0.90087890625,-0.42822265625
2023-07-29T21:35:20.116813,0.9886514544487,0.03121005743741989,0.004019574262201786,-0.14689482748508453,0.232421875,-0.90087890625,-0.42822265625
2023-07-29T21:35:20.123926,0.9886514544487,0.03121005743741989,0.004019574262201786,-0.14689482748508453,0.2333984375,-0.89453125,-0.43603515625
2023-07-29T21:35:20.124924,0.9886514544487,0.03121005743741989,0.004019574262201786,-0.14689482748508453,0.2333984375,-0.89453125,-0.43603515625
2023-07-29T21:35:20.163907,0.9886514544487,0.03121005743741989,0.004019574262201786,-0.14689482748508453,0.23046875,-0.89404296875,-0.43212890625
2023-07-29T21:35:20.163907,0.9886514544487,0.03121005743741989,0.004019574262201786,-0.14689482748508453,0.23046875,-0.89404296875,-0.43212890625
2023-07-29T21:35:20.164906,0.9886514544487,0.03121005743741989,0.004019574262201786,-0.14689482748508453,0.22412109375,-0.89892578125,-0.42431640625
2023-07-29T21:35:20.165903,0.9886517524719238,0.03119845502078533,0.00394148426130414,-0.14689728617668152,0.22412109375,-0.89892578125,-0.42431640625
2023-07-29T21:35:20.165903,0.9886517524719238,0.03119845502078533,0.00394148426130414,-0.14689728617668152,0.22265625,-0.89892578125,-0.4228515625
2023-07-29T21:35:20.166995,0.9886517524719238,0.03119845502078533,0.00394148426130414,-0.14689728617668152,0.22265625,-0.89892578125,-0.4228515625
2023-07-29T21:35:20.169108,0.9886517524719238,0.03119845502078533,0.00394148426130414,-0.14689728617668152,0.22509765625,-0.89892578125,-0.42236328125
2023-07-29T21:35:20.169108,0.9886517524719238,0.03119845502078533,0.00394148426130414,-0.14689728617668152,0.22509765625,-0.89892578125,-0.42236328125
2023-07-29T21:35:20.176591,0.9886517524719238,0.03119845502078533,0.00394148426130414,-0.14689728617668152,0.2265625,-0.90185546875,-0.41796875
2023-07-29T21:35:20.177706,0.988656222820282,0.031304921954870224,0.004046353977173567,-0.1468418389558792,0.2265625,-0.90185546875,-0.41796875
2023-07-29T21:35:20.184580,0.988656222820282,0.031304921954870224,0.004046353977173567,-0.1468418389558792,0.22119140625,-0.9013671875,-0.4189453125
2023-07-29T21:35:20.184580,0.9886663556098938,0.03133149445056915,0.004220949485898018,-0.1467633843421936,0.22119140625,-0.9013671875,-0.4189453125
2023-07-29T21:35:20.190841,0.9886663556098938,0.03133149445056915,0.004220949485898018,-0.1467633843421936,0.2216796875,-0.89794921875,-0.42236328125
2023-07-29T21:35:20.191838,0.9886767268180847,0.03134724870324135,0.004322689026594162,-0.14668723940849304,0.2216796875,-0.89794921875,-0.42236328125
2023-07-29T21:35:20.207739,0.9886767268180847,0.03134724870324135,0.004322689026594162,-0.14668723940849304,0.2197265625,-0.892578125,-0.42578125
2023-07-29T21:35:20.207739,0.9886890649795532,0.0313476137816906,0.004320049192756414,-0.14660397171974182,0.2197265625,-0.892578125,-0.42578125
2023-07-29T21:35:20.213723,0.9886890649795532,0.0313476137816906,0.004320049192756414,-0.14660397171974182,0.21923828125,-0.890625,-0.42138671875
2023-07-29T21:35:20.214720,0.9886990785598755,0.031347908079624176,0.004317904356867075,-0.14653632044792175,0.21923828125,-0.890625,-0.42138671875
2023-07-29T21:35:20.221723,0.9886990785598755,0.031347908079624176,0.004317904356867075,-0.14653632044792175,0.21875,-0.89697265625,-0.42236328125
2023-07-29T21:35:20.223719,0.9887121915817261,0.031253423541784286,0.0043297819793224335,-0.1464674472808838,0.21875,-0.89697265625,-0.42236328125
2023-07-29T21:35:20.238037,0.9887121915817261,0.031253423541784286,0.0043297819793224335,-0.1464674472808838,0.21728515625,-0.89697265625,-0.42333984375
2023-07-29T21:35:20.239034,0.988722026348114,0.031186005100607872,0.004338157828897238,-0.146415114402771,0.21728515625,-0.89697265625,-0.42333984375
2023-07-29T21:35:20.244022,0.988722026348114,0.031186005100607872,0.004338157828897238,-0.146415114402771,0.216796875,-0.900390625,-0.419921875
2023-07-29T21:35:20.244022,0.9887244701385498,0.03110795095562935,0.0043497164733707905,-0.14641477167606354,0.216796875,-0.900390625,-0.419921875
2023-07-29T21:35:20.251179,0.9887244701385498,0.03110795095562935,0.0043497164733707905,-0.14641477167606354,0.2216796875,-0.904296875,-0.41943359375
2023-07-29T21:35:20.252176,0.9887270331382751,0.031026609241962433,0.0044468240812420845,-0.14641173183918,0.2216796875,-0.904296875,-0.41943359375
2023-07-29T21:35:20.265737,0.9887270331382751,0.031026609241962433,0.0044468240812420845,-0.14641173183918,0.2197265625,-0.9013671875,-0.421875
2023-07-29T21:35:20.266909,0.9887294769287109,0.03094855323433876,0.004458382725715637,-0.14641137421131134,0.2197265625,-0.9013671875,-0.421875
2023-07-29T21:35:20.273979,0.9887294769287109,0.03094855323433876,0.004458382725715637,-0.14641137421131134,0.21533203125,-0.8994140625,-0.42431640625
2023-07-29T21:35:20.273979,0.9887314438819885,0.03088611178100109,0.004467629361897707,-0.14641109108924866,0.21533203125,-0.8994140625,-0.42431640625
2023-07-29T21:35:20.282057,0.9887314438819885,0.03088611178100109,0.004467629361897707,-0.14641109108924866,0.216796875,-0.900390625,-0.423828125
2023-07-29T21:35:20.282057,0.9887309074401855,0.030904043465852737,0.004588726442307234,-0.14640730619430542,0.216796875,-0.900390625,-0.423828125
2023-07-29T21:35:20.300058,0.9887309074401855,0.030904043465852737,0.004588726442307234,-0.14640730619430542,0.21484375,-0.89599609375,-0.43212890625
2023-07-29T21:35:20.301055,0.9887349009513855,0.0307752825319767,0.004724766593426466,-0.14640305936336517,0.21484375,-0.89599609375,-0.43212890625
2023-07-29T21:35:20.311053,0.9887349009513855,0.0307752825319767,0.004724766593426466,-0.14640305936336517,0.212890625,-0.88818359375,-0.43017578125
2023-07-29T21:35:20.312050,0.9887387752532959,0.030650388449430466,0.0047432598657906055,-0.14640246331691742,0.212890625,-0.88818359375,-0.43017578125
2023-07-29T21:35:20.316543,0.9887387752532959,0.030650388449430466,0.0047432598657906055,-0.14640246331691742,0.20849609375,-0.89453125,-0.4189453125
2023-07-29T21:35:20.318424,0.9887434244155884,0.030499471351504326,0.004765606019645929,-0.14640173316001892,0.20849609375,-0.89453125,-0.4189453125
2023-07-29T21:35:20.327049,0.9887434244155884,0.030499471351504326,0.004765606019645929,-0.14640173316001892,0.2080078125,-0.896484375,-0.41455078125
2023-07-29T21:35:20.328057,0.9887474179267883,0.03036937117576599,0.004784869961440563,-0.14640110731124878,0.2080078125,-0.896484375,-0.41455078125
2023-07-29T21:35:20.334044,0.9887474179267883,0.03036937117576599,0.004784869961440563,-0.14640110731124878,0.212890625,-0.890625,-0.41552734375
2023-07-29T21:35:20.337065,0.9887495040893555,0.03030172362923622,0.004794886335730553,-0.14640077948570251,0.212890625,-0.890625,-0.41552734375
2023-07-29T21:35:20.343062,0.9887495040893555,0.03030172362923622,0.004794886335730553,-0.14640077948570251,0.21728515625,-0.89404296875,-0.42041015625
2023-07-29T21:35:20.344059,0.9887528419494629,0.030192440375685692,0.004811067599803209,-0.14640024304389954,0.21728515625,-0.89404296875,-0.42041015625
2023-07-29T21:35:20.357009,0.9887528419494629,0.030192440375685692,0.004811067599803209,-0.14640024304389954,0.21923828125,-0.90478515625,-0.41796875
2023-07-29T21:35:20.357009,0.9887555837631226,0.030102917924523354,0.004824322648346424,-0.14639981091022491,0.21923828125,-0.90478515625,-0.41796875
2023-07-29T21:35:20.365001,0.9887555837631226,0.030102917924523354,0.004824322648346424,-0.14639981091022491,0.2138671875,-0.9111328125,-0.41357421875
2023-07-29T21:35:20.365001,0.9887593984603882,0.02997802011668682,0.004842815455049276,-0.14639919996261597,0.2138671875,-0.9111328125,-0.41357421875
2023-07-29T21:35:20.371263,0.9887593984603882,0.02997802011668682,0.004842815455049276,-0.14639919996261597,0.2060546875,-0.90234375,-0.41162109375
2023-07-29T21:35:20.372260,0.9887628555297852,0.02986353076994419,0.00485976692289114,-0.1463986337184906,0.2060546875,-0.90234375,-0.41162109375
2023-07-29T21:35:20.388268,0.9887628555297852,0.02986353076994419,0.00485976692289114,-0.1463986337184906,0.2109375,-0.8994140625,-0.4140625
2023-07-29T21:35:20.389266,0.9887551069259644,0.029757844284176826,0.0048775882460176945,-0.14647184312343597,0.2109375,-0.8994140625,-0.4140625
2023-07-29T21:35:20.394252,0.9887551069259644,0.029757844284176826,0.0048775882460176945,-0.14647184312343597,0.220703125,-0.90478515625,-0.4189453125
2023-07-29T21:35:20.394252,0.9887455105781555,0.02972230687737465,0.004994544666260481,-0.1465398669242859,0.220703125,-0.90478515625,-0.4189453125
2023-07-29T21:35:20.401778,0.9887455105781555,0.02972230687737465,0.004994544666260481,-0.1465398669242859,0.2255859375,-0.9033203125,-0.42431640625
2023-07-29T21:35:20.404770,0.9887465834617615,0.029684150591492653,0.005095904227346182,-0.14653678238391876,0.2255859375,-0.9033203125,-0.42431640625
2023-07-29T21:35:20.417008,0.9887465834617615,0.029684150591492653,0.005095904227346182,-0.14653678238391876,0.2216796875,-0.896484375,-0.42626953125
2023-07-29T21:35:20.417008,0.9887459874153137,0.02970188669860363,0.0052155740559101105,-0.14653319120407104,0.2216796875,-0.896484375,-0.42626953125
2023-07-29T21:35:20.424413,0.9887459874153137,0.02970188669860363,0.0052155740559101105,-0.14653319120407104,0.216796875,-0.890625,-0.43212890625
2023-07-29T21:35:20.424413,0.9887554049491882,0.029644828289747238,0.0053354837000370026,-0.14647682011127472,0.216796875,-0.890625,-0.43212890625
2023-07-29T21:35:20.432412,0.9887554049491882,0.029644828289747238,0.0053354837000370026,-0.14647682011127472,0.2177734375,-0.8779296875,-0.43798828125
2023-07-29T21:35:20.433410,0.9887610077857971,0.02945747785270214,0.005363238509744406,-0.14647580683231354,0.2177734375,-0.8779296875,-0.43798828125
2023-07-29T21:35:20.438999,0.9887610077857971,0.02945747785270214,0.005363238509744406,-0.14647580683231354,0.22265625,-0.8779296875,-0.44140625
2023-07-29T21:35:20.446991,0.9887658357620239,0.029296528548002243,0.00531790591776371,-0.14647699892520905,0.22265625,-0.8779296875,-0.44140625
2023-07-29T21:35:20.454141,0.9887658357620239,0.029296528548002243,0.00531790591776371,-0.14647699892520905,0.228515625,-0.8857421875,-0.43896484375
2023-07-29T21:35:20.456135,0.9887690544128418,0.029187243431806564,0.005334095563739538,-0.14647641777992249,0.228515625,-0.8857421875,-0.43896484375
2023-07-29T21:35:20.462632,0.9887690544128418,0.029187243431806564,0.005334095563739538,-0.14647641777992249,0.2236328125,-0.8857421875,-0.435546875
2023-07-29T21:35:20.463628,0.9887806177139282,0.02918766438961029,0.005331791006028652,-0.14639835059642792,0.2236328125,-0.8857421875,-0.435546875
2023-07-29T21:35:20.468954,0.9887806177139282,0.02918766438961029,0.005331791006028652,-0.14639835059642792,0.2177734375,-0.876953125,-0.43408203125
2023-07-29T21:35:20.469950,0.9887906312942505,0.02918802946805954,0.005329793784767389,-0.14633068442344666,0.2177734375,-0.876953125,-0.43408203125
2023-07-29T21:35:20.483931,0.9887906312942505,0.02918802946805954,0.005329793784767389,-0.14633068442344666,0.21337890625,-0.87548828125,-0.4306640625
2023-07-29T21:35:20.483931,0.9887966513633728,0.02927355468273163,0.005256955511868,-0.1462756246328354,0.21337890625,-0.87548828125,-0.4306640625
2023-07-29T21:35:20.491972,0.9887966513633728,0.02927355468273163,0.005256955511868,-0.1462756246328354,0.21142578125,-0.8798828125,-0.43505859375
2023-07-29T21:35:20.492969,0.9888060092926025,0.02927388995885849,0.0052550844848155975,-0.14621242880821228,0.21142578125,-0.8798828125,-0.43505859375
2023-07-29T21:35:20.502958,0.9888060092926025,0.02927388995885849,0.0052550844848155975,-0.14621242880821228,0.2099609375,-0.87255859375,-0.43408203125
2023-07-29T21:35:20.503956,0.9888060092926025,0.02927388995885849,0.0052550844848155975,-0.14621242880821228,0.2099609375,-0.87255859375,-0.43408203125
2023-07-29T21:35:20.514950,0.9888060092926025,0.02927388995885849,0.0052550844848155975,-0.14621242880821228,0.21923828125,-0.87451171875,-0.4345703125
2023-07-29T21:35:20.515947,0.9888035655021667,0.029357174411416054,0.00524276914075017,-0.1462128758430481,0.21923828125,-0.87451171875,-0.4345703125
2023-07-29T21:35:20.521623,0.9888035655021667,0.029357174411416054,0.00524276914075017,-0.1462128758430481,0.22509765625,-0.87890625,-0.43505859375
2023-07-29T21:35:20.521623,0.9888003468513489,0.029466481879353523,0.005226606037467718,-0.14621345698833466,0.22509765625,-0.87890625,-0.43505859375
2023-07-29T21:35:20.543620,0.9888003468513489,0.029466481879353523,0.005226606037467718,-0.14621345698833466,0.22314453125,-0.87939453125,-0.43798828125
2023-07-29T21:35:20.544617,0.9887964725494385,0.029596608132123947,0.005207364447414875,-0.14621414244174957,0.22314453125,-0.87939453125,-0.43798828125
2023-07-29T21:35:20.546636,0.9887964725494385,0.029596608132123947,0.005207364447414875,-0.14621414244174957,0.2177734375,-0.8798828125,-0.43798828125
2023-07-29T21:35:20.548785,0.9887924790382385,0.029726730659604073,0.005188121926039457,-0.1462148129940033,0.2177734375,-0.8798828125,-0.43798828125
2023-07-29T21:35:20.551779,0.9887924790382385,0.029726730659604073,0.005188121926039457,-0.1462148129940033,0.21533203125,-0.88330078125,-0.4365234375
2023-07-29T21:35:20.552775,0.9887887239456177,0.029851652681827545,0.005169649608433247,-0.14621546864509583,0.21533203125,-0.88330078125,-0.4365234375
2023-07-29T21:35:20.560060,0.9887887239456177,0.029851652681827545,0.005169649608433247,-0.14621546864509583,0.2099609375,-0.8828125,-0.43310546875
2023-07-29T21:35:20.560060,0.9887785315513611,0.02990402653813362,0.005163609050214291,-0.146273672580719,0.2099609375,-0.8828125,-0.43310546875
2023-07-29T21:35:20.574042,0.9887785315513611,0.02990402653813362,0.005163609050214291,-0.146273672580719,0.21484375,-0.88525390625,-0.42578125
2023-07-29T21:35:20.574042,0.9887652397155762,0.030012978240847588,0.00514948507770896,-0.14634190499782562,0.21484375,-0.88525390625,-0.42578125
2023-07-29T21:35:20.582043,0.9887652397155762,0.030012978240847588,0.00514948507770896,-0.14634190499782562,0.2138671875,-0.8974609375,-0.4169921875
2023-07-29T21:35:20.585036,0.9887454509735107,0.030229154974222183,0.0053221783600747585,-0.14642535150051117,0.2138671875,-0.8974609375,-0.4169921875
2023-07-29T21:35:20.589650,0.9887454509735107,0.030229154974222183,0.0053221783600747585,-0.14642535150051117,0.21240234375,-0.8955078125,-0.41552734375
2023-07-29T21:35:20.590645,0.9887209534645081,0.030491087585687637,0.00558976735919714,-0.1465267390012741,0.21240234375,-0.8955078125,-0.41552734375
2023-07-29T21:35:20.604884,0.9887209534645081,0.030491087585687637,0.00558976735919714,-0.1465267390012741,0.2119140625,-0.88720703125,-0.42138671875
2023-07-29T21:35:20.605881,0.9886837005615234,0.030801942571997643,0.005905473604798317,-0.14669957756996155,0.2119140625,-0.88720703125,-0.42138671875
2023-07-29T21:35:20.612115,0.9886837005615234,0.030801942571997643,0.005905473604798317,-0.14669957756996155,0.2255859375,-0.892578125,-0.427734375
2023-07-29T21:35:20.612115,0.9886369109153748,0.03113696165382862,0.006352292373776436,-0.14692561328411102,0.2255859375,-0.892578125,-0.427734375
2023-07-29T21:35:20.619191,0.9886369109153748,0.03113696165382862,0.006352292373776436,-0.14692561328411102,0.2265625,-0.89404296875,-0.42236328125
2023-07-29T21:35:20.620187,0.9885822534561157,0.03154299035668373,0.007028849329799414,-0.1471756398677826,0.2265625,-0.89404296875,-0.42236328125
2023-07-29T21:35:20.633798,0.9885822534561157,0.03154299035668373,0.007028849329799414,-0.1471756398677826,0.21728515625,-0.89404296875,-0.4169921875
2023-07-29T21:35:20.634795,0.988516628742218,0.03215111047029495,0.007991391234099865,-0.14743584394454956,0.21728515625,-0.89404296875,-0.4169921875
2023-07-29T21:35:20.647936,0.988516628742218,0.03215111047029495,0.007991391234099865,-0.14743584394454956,0.21630859375,-0.89111328125,-0.40966796875
2023-07-29T21:35:20.648936,0.9884321689605713,0.03302788361907005,0.009244107641279697,-0.14773450791835785,0.21630859375,-0.89111328125,-0.40966796875
2023-07-29T21:35:20.649934,0.9884321689605713,0.03302788361907005,0.009244107641279697,-0.14773450791835785,0.212890625,-0.8935546875,-0.40625
2023-07-29T21:35:20.649934,0.9883220195770264,0.03401016443967819,0.010771415196359158,-0.14814481139183044,0.212890625,-0.8935546875,-0.40625
2023-07-29T21:35:20.664546,0.9883220195770264,0.03401016443967819,0.010771415196359158,-0.14814481139183044,0.21728515625,-0.89453125,-0.408203125
2023-07-29T21:35:20.664546,0.9881810545921326,0.03508668765425682,0.01252448558807373,-0.14869487285614014,0.21728515625,-0.89453125,-0.408203125
2023-07-29T21:35:20.671546,0.9881810545921326,0.03508668765425682,0.01252448558807373,-0.14869487285614014,0.2314453125,-0.89208984375,-0.41552734375
2023-07-29T21:35:20.674539,0.9880362749099731,0.035998035222291946,0.014527974650263786,-0.14925654232501984,0.2314453125,-0.89208984375,-0.41552734375
2023-07-29T21:35:20.679543,0.9880362749099731,0.035998035222291946,0.014527974650263786,-0.14925654232501984,0.2080078125,-0.89453125,-0.400390625
2023-07-29T21:35:20.682536,0.9878633618354797,0.037052445113658905,0.016362564638257027,-0.14995156228542328,0.2080078125,-0.89453125,-0.400390625
2023-07-29T21:35:20.693272,0.9878633618354797,0.037052445113658905,0.016362564638257027,-0.14995156228542328,0.20068359375,-0.8857421875,-0.39404296875
2023-07-29T21:35:20.694270,0.9876335859298706,0.03862853720784187,0.017918206751346588,-0.1508861780166626,0.20068359375,-0.8857421875,-0.39404296875
2023-07-29T21:35:20.701271,0.9876335859298706,0.03862853720784187,0.017918206751346588,-0.1508861780166626,0.2119140625,-0.896484375,-0.39990234375
2023-07-29T21:35:20.701271,0.987431526184082,0.03952217474579811,0.019720962271094322,-0.15175020694732666,0.2119140625,-0.896484375,-0.39990234375
2023-07-29T21:35:20.708410,0.987431526184082,0.03952217474579811,0.019720962271094322,-0.15175020694732666,0.22900390625,-0.904296875,-0.39599609375
2023-07-29T21:35:20.709423,0.9872232675552368,0.040285252034664154,0.02176663465797901,-0.15262174606323242,0.22900390625,-0.904296875,-0.39599609375
2023-07-29T21:35:20.715918,0.9872232675552368,0.040285252034664154,0.02176663465797901,-0.15262174606323242,0.22998046875,-0.8935546875,-0.39453125
2023-07-29T21:35:20.723409,0.9870223999023438,0.04106638580560684,0.02354121394455433,-0.1534472405910492,0.22998046875,-0.8935546875,-0.39453125
2023-07-29T21:35:20.731409,0.9870223999023438,0.04106638580560684,0.02354121394455433,-0.1534472405910492,0.23193359375,-0.89599609375,-0.40576171875
2023-07-29T21:35:20.731409,0.9868234395980835,0.04161350429058075,0.02518867887556553,-0.15431541204452515,0.23193359375,-0.89599609375,-0.40576171875
2023-07-29T21:35:20.738414,0.9868234395980835,0.04161350429058075,0.02518867887556553,-0.15431541204452515,0.236328125,-0.8955078125,-0.392578125
2023-07-29T21:35:20.739410,0.9866365194320679,0.042212385684251785,0.02687126025557518,-0.15506261587142944,0.236328125,-0.8955078125,-0.392578125
2023-07-29T21:35:20.745902,0.9866365194320679,0.042212385684251785,0.02687126025557518,-0.15506261587142944,0.2353515625,-0.89990234375,-0.3828125
2023-07-29T21:35:20.747408,0.9864476919174194,0.042867034673690796,0.028729191049933434,-0.15575015544891357,0.2353515625,-0.89990234375,-0.3828125
2023-07-29T21:35:20.761668,0.9864476919174194,0.042867034673690796,0.028729191049933434,-0.15575015544891357,0.24658203125,-0.9033203125,-0.38037109375
2023-07-29T21:35:20.761668,0.9862065315246582,0.04394473135471344,0.030675407499074936,-0.15660333633422852,0.24658203125,-0.9033203125,-0.38037109375
2023-07-29T21:35:20.768763,0.9862065315246582,0.04394473135471344,0.030675407499074936,-0.15660333633422852,0.25146484375,-0.90673828125,-0.3818359375
2023-07-29T21:35:20.768763,0.9859524369239807,0.04500596225261688,0.032639987766742706,-0.15750223398208618,0.25146484375,-0.90673828125,-0.3818359375
2023-07-29T21:35:20.775745,0.9859524369239807,0.04500596225261688,0.032639987766742706,-0.15750223398208618,0.2548828125,-0.8994140625,-0.38671875
2023-07-29T21:35:20.776964,0.9857156872749329,0.04576623812317848,0.03447228670120239,-0.15837223827838898,0.2548828125,-0.8994140625,-0.38671875
2023-07-29T21:35:20.791242,0.9857156872749329,0.04576623812317848,0.03447228670120239,-0.15837223827838898,0.25439453125,-0.8984375,-0.38671875
2023-07-29T21:35:20.792239,0.9854799509048462,0.046448882669210434,0.036094389855861664,-0.15927614271640778,0.25439453125,-0.8984375,-0.38671875
2023-07-29T21:35:20.798392,0.9854799509048462,0.046448882669210434,0.036094389855861664,-0.15927614271640778,0.25830078125,-0.90869140625,-0.3818359375
2023-07-29T21:35:20.799392,0.9852493405342102,0.046963464468717575,0.03751080483198166,-0.16022181510925293,0.25830078125,-0.90869140625,-0.3818359375
2023-07-29T21:35:20.805884,0.9852493405342102,0.046963464468717575,0.03751080483198166,-0.16022181510925293,0.26220703125,-0.90283203125,-0.38134765625
2023-07-29T21:35:20.806884,0.9850503206253052,0.04747460409998894,0.03863375261425972,-0.16102617979049683,0.26220703125,-0.90283203125,-0.38134765625
2023-07-29T21:35:20.821371,0.9850503206253052,0.04747460409998894,0.03863375261425972,-0.16102617979049683,0.27294921875,-0.9013671875,-0.38330078125
2023-07-29T21:35:20.822369,0.9848774671554565,0.04796984791755676,0.03958854824304581,-0.16170339286327362,0.27294921875,-0.9013671875,-0.38330078125
2023-07-29T21:35:20.829373,0.9848774671554565,0.04796984791755676,0.03958854824304581,-0.16170339286327362,0.2841796875,-0.89794921875,-0.3896484375
2023-07-29T21:35:20.830370,0.9847320914268494,0.048328883945941925,0.040427956730127335,-0.16227301955223083,0.2841796875,-0.89794921875,-0.3896484375
2023-07-29T21:35:20.835866,0.9847320914268494,0.048328883945941925,0.040427956730127335,-0.16227301955223083,0.28173828125,-0.8896484375,-0.38720703125
2023-07-29T21:35:20.836888,0.9846082925796509,0.04863972216844559,0.04112554341554642,-0.1627558469772339,0.28173828125,-0.8896484375,-0.38720703125
2023-07-29T21:35:20.851609,0.9846082925796509,0.04863972216844559,0.04112554341554642,-0.1627558469772339,0.27685546875,-0.8916015625,-0.3837890625
2023-07-29T21:35:20.851609,0.9844985008239746,0.048818621784448624,0.04164949432015419,-0.16323250532150269,0.27685546875,-0.8916015625,-0.3837890625
2023-07-29T21:35:20.858703,0.9844985008239746,0.048818621784448624,0.04164949432015419,-0.16323250532150269,0.28857421875,-0.8974609375,-0.39013671875
2023-07-29T21:35:20.859701,0.9844067096710205,0.048747774213552475,0.04210767149925232,-0.1636888086795807,0.28857421875,-0.8974609375,-0.39013671875
2023-07-29T21:35:20.866744,0.9844067096710205,0.048747774213552475,0.04210767149925232,-0.1636888086795807,0.3037109375,-0.90478515625,-0.384765625
2023-07-29T21:35:20.866744,0.9843140244483948,0.048792872577905655,0.042518824338912964,-0.1641255021095276,0.3037109375,-0.90478515625,-0.384765625
2023-07-29T21:35:20.880884,0.9843140244483948,0.048792872577905655,0.042518824338912964,-0.1641255021095276,0.3037109375,-0.91748046875,-0.37744140625
2023-07-29T21:35:20.881882,0.9842326641082764,0.048920582979917526,0.04291757196187973,-0.16447201371192932,0.3037109375,-0.91748046875,-0.37744140625
2023-07-29T21:35:20.888883,0.9842326641082764,0.048920582979917526,0.04291757196187973,-0.16447201371192932,0.3076171875,-0.91064453125,-0.37841796875
2023-07-29T21:35:20.888883,0.9841583371162415,0.04897427186369896,0.04334354028105736,-0.1647883653640747,0.3076171875,-0.91064453125,-0.37841796875
2023-07-29T21:35:20.895888,0.9841583371162415,0.04897427186369896,0.04334354028105736,-0.1647883653640747,0.3037109375,-0.90478515625,-0.3798828125
2023-07-29T21:35:20.896888,0.9841004610061646,0.049021195620298386,0.04370321333408356,-0.16502490639686584,0.3037109375,-0.90478515625,-0.3798828125
2023-07-29T21:35:20.910919,0.9841004610061646,0.049021195620298386,0.04370321333408356,-0.16502490639686584,0.29638671875,-0.90625,-0.3779296875
2023-07-29T21:35:20.911915,0.9840480089187622,0.049139998853206635,0.04402604699134827,-0.16521640121936798,0.29638671875,-0.90625,-0.3779296875
2023-07-29T21:35:20.918920,0.9840480089187622,0.049139998853206635,0.04402604699134827,-0.16521640121936798,0.291015625,-0.90380859375,-0.37548828125
2023-07-29T21:35:20.918920,0.984000027179718,0.04926089942455292,0.04432762414216995,-0.165385901927948,0.291015625,-0.90380859375,-0.37548828125
2023-07-29T21:35:20.926592,0.984000027179718,0.04926089942455292,0.04432762414216995,-0.165385901927948,0.29541015625,-0.8955078125,-0.3798828125
2023-07-29T21:35:20.926592,0.9839603900909424,0.04929694905877113,0.04459485784173012,-0.16553866863250732,0.29541015625,-0.8955078125,-0.3798828125
2023-07-29T21:35:20.940983,0.9839603900909424,0.04929694905877113,0.04459485784173012,-0.16553866863250732,0.29736328125,-0.8935546875,-0.38134765625
2023-07-29T21:35:20.941980,0.9839159846305847,0.04932847619056702,0.04484589025378227,-0.16572575271129608,0.29736328125,-0.8935546875,-0.38134765625
2023-07-29T21:35:20.948766,0.9839159846305847,0.04932847619056702,0.04484589025378227,-0.16572575271129608,0.294921875,-0.89990234375,-0.3779296875
2023-07-29T21:35:20.949784,0.9838820695877075,0.04935514181852341,0.045051489025354385,-0.16586321592330933,0.294921875,-0.89990234375,-0.3779296875
2023-07-29T21:35:20.955747,0.9838820695877075,0.04935514181852341,0.045051489025354385,-0.16586321592330933,0.29736328125,-0.8984375,-0.37890625
2023-07-29T21:35:20.956772,0.983839750289917,0.04946795850992203,0.04526849091053009,-0.16602155566215515,0.29736328125,-0.8984375,-0.37890625
2023-07-29T21:35:20.971000,0.983839750289917,0.04946795850992203,0.04526849091053009,-0.16602155566215515,0.30419921875,-0.89306640625,-0.3837890625
2023-07-29T21:35:20.971998,0.9838219881057739,0.04949447512626648,0.04544428735971451,-0.16607049107551575,0.30419921875,-0.89306640625,-0.3837890625
2023-07-29T21:35:20.978994,0.9838219881057739,0.04949447512626648,0.04544428735971451,-0.16607049107551575,0.30224609375,-0.89453125,-0.3896484375
2023-07-29T21:35:20.978994,0.9838052988052368,0.04957601800560951,0.045533884316682816,-0.16612043976783752,0.30224609375,-0.89453125,-0.3896484375
2023-07-29T21:35:20.985976,0.9838052988052368,0.04957601800560951,0.045533884316682816,-0.16612043976783752,0.291015625,-0.888671875,-0.390625
2023-07-29T21:35:20.987006,0.9838084578514099,0.049513887614011765,0.045544374734163284,-0.1661175638437271,0.291015625,-0.888671875,-0.390625
2023-07-29T21:35:20.993998,0.9838084578514099,0.049513887614011765,0.045544374734163284,-0.1661175638437271,0.29150390625,-0.88330078125,-0.38232421875
2023-07-29T21:35:21.001996,0.9838084578514099,0.049513887614011765,0.045544374734163284,-0.1661175638437271,0.29150390625,-0.88330078125,-0.38232421875
2023-07-29T21:35:21.008949,0.9838084578514099,0.049513887614011765,0.045544374734163284,-0.1661175638437271,0.29345703125,-0.89306640625,-0.3740234375
2023-07-29T21:35:21.008949,0.9838084578514099,0.049513887614011765,0.045544374734163284,-0.1661175638437271,0.29345703125,-0.89306640625,-0.3740234375
2023-07-29T21:35:21.016741,0.9838084578514099,0.049513887614011765,0.045544374734163284,-0.1661175638437271,0.3037109375,-0.896484375,-0.3740234375
2023-07-29T21:35:21.016741,0.9837873578071594,0.04953254014253616,0.04568341001868248,-0.16619881987571716,0.3037109375,-0.896484375,-0.3740234375
2023-07-29T21:35:21.023892,0.9837873578071594,0.04953254014253616,0.04568341001868248,-0.16619881987571716,0.3095703125,-0.90185546875,-0.376953125
2023-07-29T21:35:21.023892,0.9837655425071716,0.04956701770424843,0.04590943083167076,-0.166254922747612,0.3095703125,-0.90185546875,-0.376953125
2023-07-29T21:35:21.038885,0.9837655425071716,0.04956701770424843,0.04590943083167076,-0.166254922747612,0.3076171875,-0.904296875,-0.38037109375
2023-07-29T21:35:21.038885,0.983763575553894,0.04947249963879585,0.04610645771026611,-0.16624026000499725,0.3076171875,-0.904296875,-0.38037109375
2023-07-29T21:35:21.046369,0.983763575553894,0.04947249963879585,0.04610645771026611,-0.16624026000499725,0.30712890625,-0.90869140625,-0.37890625
2023-07-29T21:35:21.046872,0.9837579131126404,0.049492862075567245,0.04622694477438927,-0.16623419523239136,0.30712890625,-0.90869140625,-0.37890625
2023-07-29T21:35:21.053874,0.9837579131126404,0.049492862075567245,0.04622694477438927,-0.16623419523239136,0.3076171875,-0.90576171875,-0.38037109375
2023-07-29T21:35:21.053874,0.9837518334388733,0.049514733254909515,0.04635636880993843,-0.16622768342494965,0.3076171875,-0.90576171875,-0.38037109375
2023-07-29T21:35:21.068647,0.9837518334388733,0.049514733254909515,0.04635636880993843,-0.16622768342494965,0.3115234375,-0.8974609375,-0.38134765625
2023-07-29T21:35:21.069644,0.9837531447410583,0.04942087084054947,0.046462737023830414,-0.1662181317806244,0.3115234375,-0.8974609375,-0.38134765625
2023-07-29T21:35:21.076647,0.9837531447410583,0.04942087084054947,0.046462737023830414,-0.1662181317806244,0.30908203125,-0.9013671875,-0.3798828125
2023-07-29T21:35:21.076647,0.9837507009506226,0.04942961409687996,0.04651448503136635,-0.16621553897857666,0.30908203125,-0.9013671875,-0.3798828125
2023-07-29T21:35:21.083772,0.9837507009506226,0.04942961409687996,0.04651448503136635,-0.16621553897857666,0.3076171875,-0.908203125,-0.373046875
2023-07-29T21:35:21.084770,0.9837451577186584,0.049491897225379944,0.04656783863902092,-0.16621486842632294,0.3076171875,-0.908203125,-0.373046875
2023-07-29T21:35:21.099196,0.9837451577186584,0.049491897225379944,0.04656783863902092,-0.16621486842632294,0.3037109375,-0.9091796875,-0.37744140625
2023-07-29T21:35:21.099196,0.9837564826011658,0.04945524409413338,0.04667190462350845,-0.16612955927848816,0.3037109375,-0.9091796875,-0.37744140625
2023-07-29T21:35:21.114265,0.9837564826011658,0.04945524409413338,0.04667190462350845,-0.16612955927848816,0.29931640625,-0.89697265625,-0.3818359375
2023-07-29T21:35:21.114265,0.9837737679481506,0.04930148646235466,0.04674825444817543,-0.16605177521705627,0.29931640625,-0.89697265625,-0.3818359375
2023-07-29T21:35:21.114265,0.9837737679481506,0.04930148646235466,0.04674825444817543,-0.16605177521705627,0.29736328125,-0.90283203125,-0.37353515625
2023-07-29T21:35:21.121265,0.9837974309921265,0.04919232428073883,0.04670878127217293,-0.1659550964832306,0.29736328125,-0.90283203125,-0.37353515625
2023-07-29T21:35:21.136754,0.9837974309921265,0.04919232428073883,0.04670878127217293,-0.1659550964832306,0.29833984375,-0.9130859375,-0.36767578125
2023-07-29T21:35:21.137258,0.9838226437568665,0.04912080988287926,0.04665744677186012,-0.16584083437919617,0.29833984375,-0.9130859375,-0.36767578125
2023-07-29T21:35:21.138258,0.9838226437568665,0.04912080988287926,0.04665744677186012,-0.16584083437919617,0.296875,-0.90771484375,-0.36767578125
2023-07-29T21:35:21.144241,0.9838507175445557,0.04905519634485245,0.046662427484989166,-0.16569238901138306,0.296875,-0.90771484375,-0.36767578125
2023-07-29T21:35:21.144241,0.9838507175445557,0.04905519634485245,0.046662427484989166,-0.16569238901138306,0.3076171875,-0.90576171875,-0.3759765625
2023-07-29T21:35:21.145747,0.9838643074035645,0.04915068671107292,0.04683174192905426,-0.16553561389446259,0.3076171875,-0.90576171875,-0.3759765625
2023-07-29T21:35:21.158808,0.9838643074035645,0.04915068671107292,0.04683174192905426,-0.16553561389446259,0.30810546875,-0.900390625,-0.37939453125
2023-07-29T21:35:21.158808,0.9838805794715881,0.04914700612425804,0.04707632213830948,-0.16537080705165863,0.30810546875,-0.900390625,-0.37939453125
2023-07-29T21:35:21.165790,0.9838805794715881,0.04914700612425804,0.04707632213830948,-0.16537080705165863,0.29638671875,-0.8984375,-0.3759765625
2023-07-29T21:35:21.166819,0.9838951230049133,0.049185026437044144,0.0472557432949543,-0.1652216613292694,0.29638671875,-0.8984375,-0.3759765625
2023-07-29T21:35:21.173981,0.9838951230049133,0.049185026437044144,0.0472557432949543,-0.1652216613292694,0.28857421875,-0.89892578125,-0.37255859375
2023-07-29T21:35:21.174978,0.9839116334915161,0.04918975383043289,0.04725082591176033,-0.16512326896190643,0.28857421875,-0.89892578125,-0.37255859375
2023-07-29T21:35:21.189076,0.9839116334915161,0.04918975383043289,0.04725082591176033,-0.16512326896190643,0.2900390625,-0.9033203125,-0.37109375
2023-07-29T21:35:21.189076,0.9839273691177368,0.04912515729665756,0.047258589416742325,-0.16504661738872528,0.2900390625,-0.9033203125,-0.37109375
2023-07-29T21:35:21.203772,0.9839273691177368,0.04912515729665756,0.047258589416742325,-0.16504661738872528,0.29541015625,-0.90234375,-0.37353515625
2023-07-29T21:35:21.203772,0.9839445352554321,0.04899349436163902,0.04727807268500328,-0.1649779975414276,0.29541015625,-0.90234375,-0.37353515625
2023-07-29T21:35:21.204770,0.9839445352554321,0.04899349436163902,0.04727807268500328,-0.1649779975414276,0.29931640625,-0.9033203125,-0.37646484375
2023-07-29T21:35:21.211767,0.9839507341384888,0.04886920377612114,0.04729891195893288,-0.16497202217578888,0.29931640625,-0.9033203125,-0.37646484375
2023-07-29T21:35:21.218898,0.9839507341384888,0.04886920377612114,0.04729891195893288,-0.16497202217578888,0.30517578125,-0.9091796875,-0.3798828125
2023-07-29T21:35:21.218898,0.9839572906494141,0.04873454570770264,0.04732147976756096,-0.16496554017066956,0.30517578125,-0.9091796875,-0.3798828125
2023-07-29T21:35:21.226382,0.9839572906494141,0.04873454570770264,0.04732147976756096,-0.16496554017066956,0.29833984375,-0.90087890625,-0.384765625
2023-07-29T21:35:21.226885,0.983982264995575,0.04850698634982109,0.04727714881300926,-0.16489677131175995,0.29833984375,-0.90087890625,-0.384765625
2023-07-29T21:35:21.233875,0.983982264995575,0.04850698634982109,0.04727714881300926,-0.16489677131175995,0.294921875,-0.89453125,-0.38916015625
2023-07-29T21:35:21.234873,0.9840022921562195,0.048273716121912,0.047092556953430176,-0.16489802300930023,0.294921875,-0.89453125,-0.38916015625
2023-07-29T21:35:21.248870,0.9840022921562195,0.048273716121912,0.047092556953430176,-0.16489802300930023,0.29345703125,-0.89599609375,-0.38427734375
2023-07-29T21:35:21.248870,0.9840242862701416,0.04807078093290329,0.046814002096652985,-0.16490566730499268,0.29345703125,-0.89599609375,-0.38427734375
2023-07-29T21:35:21.256598,0.9840242862701416,0.04807078093290329,0.046814002096652985,-0.16490566730499268,0.294921875,-0.88818359375,-0.384765625
2023-07-29T21:35:21.256598,0.9840548634529114,0.04788496717810631,0.0466025210916996,-0.16483739018440247,0.294921875,-0.88818359375,-0.384765625
2023-07-29T21:35:21.263589,0.9840548634529114,0.04788496717810631,0.0466025210916996,-0.16483739018440247,0.2900390625,-0.88427734375,-0.3857421875
2023-07-29T21:35:21.264588,0.9840790033340454,0.04778923839330673,0.046450283378362656,-0.16476407647132874,0.2900390625,-0.88427734375,-0.3857421875
2023-07-29T21:35:21.271225,0.9840790033340454,0.04778923839330673,0.046450283378362656,-0.16476407647132874,0.28955078125,-0.88720703125,-0.384765625
2023-07-29T21:35:21.278770,0.9840914607048035,0.04778151586651802,0.046385325491428375,-0.1647101193666458,0.28955078125,-0.88720703125,-0.384765625
2023-07-29T21:35:21.286596,0.9840914607048035,0.04778151586651802,0.046385325491428375,-0.1647101193666458,0.28857421875,-0.888671875,-0.38427734375
2023-07-29T21:35:21.286596,0.9841071367263794,0.047838449478149414,0.04637137055397034,-0.16460378468036652,0.28857421875,-0.888671875,-0.38427734375
2023-07-29T21:35:21.293764,0.9841071367263794,0.047838449478149414,0.04637137055397034,-0.16460378468036652,0.28271484375,-0.88037109375,-0.3935546875
2023-07-29T21:35:21.294762,0.9841310381889343,0.047771889716386795,0.04631946608424187,-0.1644948422908783,0.28271484375,-0.88037109375,-0.3935546875
2023-07-29T21:35:21.300764,0.9841310381889343,0.047771889716386795,0.04631946608424187,-0.1644948422908783,0.27587890625,-0.8759765625,-0.396484375
2023-07-29T21:35:21.308895,0.9841633439064026,0.04760954529047012,0.04611380770802498,-0.16440632939338684,0.27587890625,-0.8759765625,-0.396484375
2023-07-29T21:35:21.316881,0.9841633439064026,0.04760954529047012,0.04611380770802498,-0.16440632939338684,0.28271484375,-0.888671875,-0.3828125
2023-07-29T21:35:21.317888,0.9841774702072144,0.04751620814204216,0.04587377607822418,-0.16441592574119568,0.28271484375,-0.888671875,-0.3828125
2023-07-29T21:35:21.323874,0.9841774702072144,0.04751620814204216,0.04587377607822418,-0.16441592574119568,0.2958984375,-0.8955078125,-0.3818359375
2023-07-29T21:35:21.323874,0.9841851592063904,0.0474366657435894,0.04578465223312378,-0.1644178032875061,0.2958984375,-0.8955078125,-0.3818359375
2023-07-29T21:35:21.330878,0.9841851592063904,0.0474366657435894,0.04578465223312378,-0.1644178032875061,0.29052734375,-0.89208984375,-0.380859375
2023-07-29T21:35:21.331876,0.9841851592063904,0.0474366657435894,0.04578465223312378,-0.1644178032875061,0.29052734375,-0.89208984375,-0.380859375
2023-07-29T21:35:21.346861,0.9841851592063904,0.0474366657435894,0.04578465223312378,-0.1644178032875061,0.28076171875,-0.892578125,-0.38037109375
2023-07-29T21:35:21.349867,0.9841851592063904,0.0474366657435894,0.04578465223312378,-0.1644178032875061,0.28076171875,-0.892578125,-0.38037109375
2023-07-29T21:35:21.353856,0.9841851592063904,0.0474366657435894,0.04578465223312378,-0.1644178032875061,0.27978515625,-0.8876953125,-0.384765625
2023-07-29T21:35:21.354854,0.9841897487640381,0.0472743846476078,0.04589692875742912,-0.16440561413764954,0.27978515625,-0.8876953125,-0.384765625
2023-07-29T21:35:21.369866,0.9841897487640381,0.0472743846476078,0.04589692875742912,-0.16440561413764954,0.27734375,-0.88916015625,-0.3828125
2023-07-29T21:35:21.370864,0.9841850996017456,0.0471312440931797,0.045833829790353775,-0.16449211537837982,0.27734375,-0.88916015625,-0.3828125
2023-07-29T21:35:21.378875,0.9841850996017456,0.0471312440931797,0.045833829790353775,-0.16449211537837982,0.283203125,-0.90185546875,-0.37841796875
2023-07-29T21:35:21.378875,0.9841789603233337,0.04709312692284584,0.04563622921705246,-0.16459503769874573,0.283203125,-0.90185546875,-0.37841796875
2023-07-29T21:35:21.383861,0.9841789603233337,0.04709312692284584,0.04563622921705246,-0.16459503769874573,0.29248046875,-0.904296875,-0.37548828125
2023-07-29T21:35:21.384859,0.984175443649292,0.04706510528922081,0.045488934963941574,-0.1646643877029419,0.29248046875,-0.904296875,-0.37548828125
2023-07-29T21:35:21.390977,0.984175443649292,0.04706510528922081,0.045488934963941574,-0.1646643877029419,0.2939453125,-0.9013671875,-0.37890625
2023-07-29T21:35:21.391975,0.9841805100440979,0.04704668000340462,0.04537881538271904,-0.16466964781284332,0.2939453125,-0.9013671875,-0.37890625
2023-07-29T21:35:21.407003,0.9841805100440979,0.04704668000340462,0.04537881538271904,-0.16466964781284332,0.28662109375,-0.8935546875,-0.3837890625
2023-07-29T21:35:21.408471,0.9841883778572083,0.04701806977391243,0.045207832008600235,-0.16467782855033875,0.28662109375,-0.8935546875,-0.3837890625
2023-07-29T21:35:21.413991,0.9841883778572083,0.04701806977391243,0.045207832008600235,-0.16467782855033875,0.28466796875,-0.8974609375,-0.37890625
2023-07-29T21:35:21.414988,0.9841960072517395,0.046990327537059784,0.04504202678799629,-0.16468575596809387,0.28466796875,-0.8974609375,-0.37890625
2023-07-29T21:35:21.421995,0.9841960072517395,0.046990327537059784,0.04504202678799629,-0.16468575596809387,0.29150390625,-0.896484375,-0.3798828125
2023-07-29T21:35:21.421995,0.9841960072517395,0.046990327537059784,0.04504202678799629,-0.16468575596809387,0.29150390625,-0.896484375,-0.3798828125
2023-07-29T21:35:21.436678,0.9841960072517395,0.046990327537059784,0.04504202678799629,-0.16468575596809387,0.29345703125,-0.89306640625,-0.3828125
2023-07-29T21:35:21.437683,0.9841954112052917,0.04693685472011566,0.04513614997267723,-0.16467872262001038,0.29345703125,-0.89306640625,-0.3828125
2023-07-29T21:35:21.443672,0.9841954112052917,0.04693685472011566,0.04513614997267723,-0.16467872262001038,0.28125,-0.89013671875,-0.37646484375
2023-07-29T21:35:21.444668,0.9841892123222351,0.04695938527584076,0.04527081176638603,-0.16467230021953583,0.28125,-0.89013671875,-0.37646484375
2023-07-29T21:35:21.451674,0.9841892123222351,0.04695938527584076,0.04527081176638603,-0.16467230021953583,0.2802734375,-0.89208984375,-0.37646484375
2023-07-29T21:35:21.451674,0.9841817617416382,0.046986572444438934,0.04543329030275345,-0.16466455161571503,0.2802734375,-0.89208984375,-0.37646484375
2023-07-29T21:35:21.466676,0.9841817617416382,0.046986572444438934,0.04543329030275345,-0.16466455161571503,0.28857421875,-0.89306640625,-0.38330078125
2023-07-29T21:35:21.466676,0.9841769933700562,0.04700390249490738,0.045536868274211884,-0.16465960443019867,0.28857421875,-0.89306640625,-0.38330078125
2023-07-29T21:35:21.473960,0.9841769933700562,0.04700390249490738,0.045536868274211884,-0.16465960443019867,0.29150390625,-0.890625,-0.388671875
2023-07-29T21:35:21.473960,0.9841805696487427,0.04699089750647545,0.04545913264155388,-0.16466331481933594,0.29150390625,-0.890625,-0.388671875
2023-07-29T21:35:21.480906,0.9841805696487427,0.04699089750647545,0.04545913264155388,-0.16466331481933594,0.29541015625,-0.89697265625,-0.38916015625
2023-07-29T21:35:21.481904,0.9841884970664978,0.04696229100227356,0.045288149267435074,-0.16467148065567017,0.29541015625,-0.89697265625,-0.38916015625
2023-07-29T21:35:21.503817,0.9841884970664978,0.04696229100227356,0.045288149267435074,-0.16467148065567017,0.2978515625,-0.890625,-0.39599609375
2023-07-29T21:35:21.504815,0.9841974377632141,0.04687309265136719,0.04517369717359543,-0.16467434167861938,0.2978515625,-0.890625,-0.39599609375
2023-07-29T21:35:21.504815,0.9841974377632141,0.04687309265136719,0.04517369717359543,-0.16467434167861938,0.29296875,-0.8818359375,-0.3955078125
2023-07-29T21:35:21.511813,0.9842023253440857,0.046855222433805466,0.04506688937544823,-0.1646794229745865,0.29296875,-0.8818359375,-0.3955078125
2023-07-29T21:35:21.511813,0.9842023253440857,0.046855222433805466,0.04506688937544823,-0.1646794229745865,0.287109375,-0.88427734375,-0.39111328125
2023-07-29T21:35:21.511813,0.9842115044593811,0.04675326868891716,0.04496675729751587,-0.16468104720115662,0.287109375,-0.88427734375,-0.39111328125
2023-07-29T21:35:21.525729,0.9842115044593811,0.04675326868891716,0.04496675729751587,-0.16468104720115662,0.28271484375,-0.88427734375,-0.38427734375
2023-07-29T21:35:21.526705,0.984216034412384,0.04673659801483154,0.04486712068319321,-0.16468578577041626,0.28271484375,-0.88427734375,-0.38427734375
2023-07-29T21:35:21.533695,0.984216034412384,0.04673659801483154,0.04486712068319321,-0.16468578577041626,0.27978515625,-0.884765625,-0.3798828125
2023-07-29T21:35:21.534691,0.984216034412384,0.04673659801483154,0.04486712068319321,-0.16468578577041626,0.27978515625,-0.884765625,-0.3798828125
2023-07-29T21:35:21.540780,0.984216034412384,0.04673659801483154,0.04486712068319321,-0.16468578577041626,0.2822265625,-0.88525390625,-0.3818359375
2023-07-29T21:35:21.541778,0.9842130541801453,0.04679877310991287,0.0448567159473896,-0.1646886169910431,0.2822265625,-0.88525390625,-0.3818359375
2023-07-29T21:35:21.556805,0.9842130541801453,0.04679877310991287,0.0448567159473896,-0.1646886169910431,0.2861328125,-0.88330078125,-0.3876953125
2023-07-29T21:35:21.557309,0.9842045903205872,0.04691970348358154,0.04491100832819939,-0.16469013690948486,0.2861328125,-0.88330078125,-0.3876953125
2023-07-29T21:35:21.564294,0.9842045903205872,0.04691970348358154,0.04491100832819939,-0.16469013690948486,0.2890625,-0.88330078125,-0.392578125
2023-07-29T21:35:21.564294,0.9841975569725037,0.047018177807331085,0.04495840519666672,-0.16469119489192963,0.2890625,-0.88330078125,-0.392578125
2023-07-29T21:35:21.571406,0.9841975569725037,0.047018177807331085,0.04495840519666672,-0.16469119489192963,0.29150390625,-0.88623046875,-0.39501953125
2023-07-29T21:35:21.571406,0.9841974377632141,0.04708719626069069,0.04486161470413208,-0.16469894349575043,0.29150390625,-0.88623046875,-0.39501953125
2023-07-29T21:35:21.578406,0.9841974377632141,0.04708719626069069,0.04486161470413208,-0.16469894349575043,0.28564453125,-0.8857421875,-0.38623046875
2023-07-29T21:35:21.585897,0.9841982126235962,0.047199323773384094,0.044672396034002304,-0.16471323370933533,0.28564453125,-0.8857421875,-0.38623046875
2023-07-29T21:35:21.593251,0.9841982126235962,0.047199323773384094,0.044672396034002304,-0.16471323370933533,0.279296875,-0.88671875,-0.37939453125
2023-07-29T21:35:21.594247,0.984196662902832,0.04732156917452812,0.044533342123031616,-0.1647251844406128,0.279296875,-0.88671875,-0.37939453125
2023-07-29T21:35:21.600757,0.984196662902832,0.04732156917452812,0.044533342123031616,-0.1647251844406128,0.2724609375,-0.8896484375,-0.375
2023-07-29T21:35:21.601756,0.9841892123222351,0.04747699201107025,0.04450732842087746,-0.1647322177886963,0.2724609375,-0.8896484375,-0.375
2023-07-29T21:35:21.609082,0.9841892123222351,0.04747699201107025,0.04450732842087746,-0.1647322177886963,0.27197265625,-0.88818359375,-0.37646484375
2023-07-29T21:35:21.609082,0.9841839671134949,0.04758578911423683,0.044489119201898575,-0.16473713517189026,0.27197265625,-0.88818359375,-0.37646484375
2023-07-29T21:35:21.623545,0.9841839671134949,0.04758578911423683,0.044489119201898575,-0.16473713517189026,0.27392578125,-0.88818359375,-0.37451171875
2023-07-29T21:35:21.624543,0.9841614961624146,0.04771159961819649,0.0445353165268898,-0.16482238471508026,0.27392578125,-0.88818359375,-0.37451171875
2023-07-29T21:35:21.631140,0.9841614961624146,0.04771159961819649,0.0445353165268898,-0.16482238471508026,0.27685546875,-0.89404296875,-0.373046875
2023-07-29T21:35:21.632138,0.9841309189796448,0.04785874858498573,0.044653553515672684,-0.16493049263954163,0.27685546875,-0.89404296875,-0.373046875
2023-07-29T21:35:21.639130,0.9841309189796448,0.04785874858498573,0.044653553515672684,-0.16493049263954163,0.28271484375,-0.89990234375,-0.37353515625
2023-07-29T21:35:21.639130,0.9840932488441467,0.04803210869431496,0.04477931559085846,-0.1650703400373459,0.28271484375,-0.89990234375,-0.37353515625
2023-07-29T21:35:21.653634,0.9840932488441467,0.04803210869431496,0.04477931559085846,-0.1650703400373459,0.2919921875,-0.90771484375,-0.37451171875
2023-07-29T21:35:21.654631,0.9840559363365173,0.04815329983830452,0.04485631734132767,-0.16523699462413788,0.2919921875,-0.90771484375,-0.37451171875
2023-07-29T21:35:21.661776,0.9840559363365173,0.04815329983830452,0.04485631734132767,-0.16523699462413788,0.28955078125,-0.90576171875,-0.376953125
2023-07-29T21:35:21.661776,0.9840294122695923,0.04814612492918968,0.04486401006579399,-0.16539423167705536,0.28955078125,-0.90576171875,-0.376953125
2023-07-29T21:35:21.668779,0.9840294122695923,0.04814612492918968,0.04486401006579399,-0.16539423167705536,0.28173828125,-0.904296875,-0.37158203125
2023-07-29T21:35:21.669776,0.9840113520622253,0.04813000559806824,0.044807907193899155,-0.16552157700061798,0.28173828125,-0.904296875,-0.37158203125
2023-07-29T21:35:21.683762,0.9840113520622253,0.04813000559806824,0.044807907193899155,-0.16552157700061798,0.27490234375,-0.90625,-0.36669921875
2023-07-29T21:35:21.684759,0.9839920401573181,0.04810795187950134,0.04472148418426514,-0.16566598415374756,0.27490234375,-0.90625,-0.36669921875
2023-07-29T21:35:21.691763,0.9839920401573181,0.04810795187950134,0.04472148418426514,-0.16566598415374756,0.2763671875,-0.90283203125,-0.36669921875
2023-07-29T21:35:21.691763,0.9839693903923035,0.04810183122754097,0.04472806677222252,-0.16580064594745636,0.2763671875,-0.90283203125,-0.36669921875
2023-07-29T21:35:21.698993,0.9839693903923035,0.04810183122754097,0.04472806677222252,-0.16580064594745636,0.2841796875,-0.900390625,-0.36669921875
2023-07-29T21:35:21.698993,0.9839367270469666,0.048111747950315475,0.04483972489833832,-0.16596131026744843,0.2841796875,-0.900390625,-0.36669921875
2023-07-29T21:35:21.714045,0.9839367270469666,0.048111747950315475,0.04483972489833832,-0.16596131026744843,0.28515625,-0.9013671875,-0.3681640625
2023-07-29T21:35:21.715043,0.9839004278182983,0.04812817648053169,0.0449933186173439,-0.16613030433654785,0.28515625,-0.9013671875,-0.3681640625
2023-07-29T21:35:21.721053,0.9839004278182983,0.04812817648053169,0.0449933186173439,-0.16613030433654785,0.2841796875,-0.89599609375,-0.3720703125
2023-07-29T21:35:21.723049,0.9838678240776062,0.04814467579126358,0.045140717178583145,-0.16627883911132812,0.2841796875,-0.89599609375,-0.3720703125
2023-07-29T21:35:21.728820,0.9838678240776062,0.04814467579126358,0.045140717178583145,-0.16627883911132812,0.28662109375,-0.896484375,-0.37451171875
2023-07-29T21:35:21.729817,0.9838377833366394,0.04815363883972168,0.04524245113134384,-0.16642619669437408,0.28662109375,-0.896484375,-0.37451171875
2023-07-29T21:35:21.744082,0.9838377833366394,0.04815363883972168,0.04524245113134384,-0.16642619669437408,0.298828125,-0.90478515625,-0.37451171875
2023-07-29T21:35:21.744082,0.983812153339386,0.048274748027324677,0.04532697796821594,-0.16651961207389832,0.298828125,-0.90478515625,-0.37451171875
2023-07-29T21:35:21.751777,0.983812153339386,0.048274748027324677,0.04532697796821594,-0.16651961207389832,0.3037109375,-0.90576171875,-0.3798828125
2023-07-29T21:35:21.751777,0.9838017225265503,0.048359762877225876,0.04548301175236702,-0.1665140986442566,0.3037109375,-0.90576171875,-0.3798828125
2023-07-29T21:35:21.759018,0.9838017225265503,0.048359762877225876,0.04548301175236702,-0.1665140986442566,0.28955078125,-0.8916015625,-0.380859375
2023-07-29T21:35:21.760015,0.9837942719459534,0.04843767732381821,0.04556566849350929,-0.1665123850107193,0.28955078125,-0.8916015625,-0.380859375
2023-07-29T21:35:21.773997,0.9837942719459534,0.04843767732381821,0.04556566849350929,-0.1665123850107193,0.28515625,-0.888671875,-0.3798828125
2023-07-29T21:35:21.773997,0.9837722778320312,0.048444993793964386,0.04564441740512848,-0.16661882400512695,0.28515625,-0.888671875,-0.3798828125
2023-07-29T21:35:21.780996,0.9837722778320312,0.048444993793964386,0.04564441740512848,-0.16661882400512695,0.28857421875,-0.89306640625,-0.37548828125
2023-07-29T21:35:21.781993,0.9837478399276733,0.04846327751874924,0.045786865055561066,-0.16671879589557648,0.28857421875,-0.89306640625,-0.37548828125
2023-07-29T21:35:21.788993,0.9837478399276733,0.04846327751874924,0.045786865055561066,-0.16671879589557648,0.2861328125,-0.8974609375,-0.36962890625
2023-07-29T21:35:21.788993,0.9837247729301453,0.048495639115571976,0.046002961695194244,-0.16678600013256073,0.2861328125,-0.8974609375,-0.36962890625
2023-07-29T21:35:21.804138,0.9837247729301453,0.048495639115571976,0.046002961695194244,-0.16678600013256073,0.28125,-0.89111328125,-0.3701171875
2023-07-29T21:35:21.804138,0.9836969375610352,0.048533856868743896,0.046259086579084396,-0.16686789691448212,0.28125,-0.89111328125,-0.3701171875
2023-07-29T21:35:21.810844,0.9836969375610352,0.048533856868743896,0.046259086579084396,-0.16686789691448212,0.27880859375,-0.88916015625,-0.37158203125
2023-07-29T21:35:21.811842,0.9836674332618713,0.04857202246785164,0.04651787877082825,-0.16695894300937653,0.27880859375,-0.88916015625,-0.37158203125
2023-07-29T21:35:21.818836,0.9836674332618713,0.04857202246785164,0.04651787877082825,-0.16695894300937653,0.28125,-0.890625,-0.37109375
2023-07-29T21:35:21.818836,0.9836313724517822,0.04861310496926308,0.04680408909916878,-0.16707976162433624,0.28125,-0.890625,-0.37109375
2023-07-29T21:35:21.834195,0.9836313724517822,0.04861310496926308,0.04680408909916878,-0.16707976162433624,0.29541015625,-0.89208984375,-0.37744140625
2023-07-29T21:35:21.834195,0.9835888743400574,0.048702090978622437,0.04706723615527153,-0.16722965240478516,0.29541015625,-0.89208984375,-0.37744140625
2023-07-29T21:35:21.841701,0.9835888743400574,0.048702090978622437,0.04706723615527153,-0.16722965240478516,0.314453125,-0.89111328125,-0.390625
2023-07-29T21:35:21.841701,0.9835487008094788,0.04874017462134361,0.04734436795115471,-0.1673768311738968,0.314453125,-0.89111328125,-0.390625
2023-07-29T21:35:21.848419,0.9835487008094788,0.04874017462134361,0.04734436795115471,-0.1673768311738968,0.31591796875,-0.88916015625,-0.39697265625
2023-07-29T21:35:21.849420,0.9835144281387329,0.04875999689102173,0.047512512654066086,-0.16752417385578156,0.31591796875,-0.88916015625,-0.39697265625
2023-07-29T21:35:21.855913,0.9835144281387329,0.04875999689102173,0.047512512654066086,-0.16752417385578156,0.3037109375,-0.890625,-0.388671875
2023-07-29T21:35:21.863404,0.9834877848625183,0.048780061304569244,0.04766825959086418,-0.1676306277513504,0.3037109375,-0.890625,-0.388671875
2023-07-29T21:35:21.871399,0.9834877848625183,0.048780061304569244,0.04766825959086418,-0.1676306277513504,0.28857421875,-0.8896484375,-0.3818359375
2023-07-29T21:35:21.872396,0.9834581017494202,0.04880635812878609,0.047862790524959564,-0.16774176061153412,0.28857421875,-0.8896484375,-0.3818359375
2023-07-29T21:35:21.878398,0.9834581017494202,0.04880635812878609,0.047862790524959564,-0.16774176061153412,0.28759765625,-0.8857421875,-0.376953125
2023-07-29T21:35:21.879395,0.9834232926368713,0.04890480265021324,0.04813278838992119,-0.16783960163593292,0.28759765625,-0.8857421875,-0.376953125
