Time,w,x,y,z,ax,ay,az
2023-07-29T20:34:42.672294,0.018240513280034065,0.498553991317749,0.866556704044342,0.01380635891109705,-0.62841796875,-0.126953125,0.47412109375
2023-07-29T20:34:42.678640,0.018240513280034065,0.498553991317749,0.866556704044342,0.01380635891109705,-0.6455078125,0.00048828125,0.421875
2023-07-29T20:34:42.678640,0.9999793171882629,-0.0006338335224427283,0.005741805769503117,0.0028389643412083387,-0.6455078125,0.00048828125,0.421875
2023-07-29T20:34:42.686169,0.9999793171882629,-0.0006338335224427283,0.005741805769503117,0.0028389643412083387,-0.6748046875,0.11279296875,0.5537109375
2023-07-29T20:34:42.687166,0.9999343156814575,0.0030206101946532726,0.01016379427164793,0.004357303027063608,-0.6748046875,0.11279296875,0.5537109375
2023-07-29T20:34:42.746165,0.9999343156814575,0.0030206101946532726,0.01016379427164793,0.004357303027063608,-0.751953125,-0.02685546875,0.6279296875
2023-07-29T20:34:42.747162,0.9998601675033569,0.00725536560639739,0.015050417743623257,0.0007118679932318628,-0.751953125,-0.02685546875,0.6279296875
2023-07-29T20:34:42.764041,0.9998601675033569,0.00725536560639739,0.015050417743623257,0.0007118679932318628,-0.76025390625,-0.31103515625,0.4521484375
2023-07-29T20:34:42.766035,0.9997642040252686,0.009743555448949337,0.019365938380360603,-0.0012579247122630477,-0.76025390625,-0.31103515625,0.4521484375
2023-07-29T20:34:42.770025,0.9997642040252686,0.009743555448949337,0.019365938380360603,-0.0012579247122630477,-0.76123046875,-0.3837890625,0.34375
2023-07-29T20:34:42.770025,0.9996448755264282,0.014074893668293953,0.0225771926343441,-0.0014893818879500031,-0.76123046875,-0.3837890625,0.34375
2023-07-29T20:34:42.779040,0.9996448755264282,0.014074893668293953,0.0225771926343441,-0.0014893818879500031,-0.76123046875,-0.20556640625,0.3701171875
2023-07-29T20:34:42.781545,0.9994987845420837,0.019594894722104073,0.02484039217233658,-0.0010811093961820006,-0.76123046875,-0.20556640625,0.3701171875
2023-07-29T20:34:42.795068,0.9994987845420837,0.019594894722104073,0.02484039217233658,-0.0010811093961820006,-0.76171875,-0.0205078125,0.435546875
2023-07-29T20:34:42.796065,0.9993703365325928,0.02337009273469448,0.026689160615205765,-0.0006645889952778816,-0.76171875,-0.0205078125,0.435546875
2023-07-29T20:34:42.798060,0.9993703365325928,0.02337009273469448,0.026689160615205765,-0.0006645889952778816,-0.76123046875,0.07373046875,0.47021484375
2023-07-29T20:34:42.799058,0.999248743057251,0.026650605723261833,0.028131140395998955,-0.000623592350166291,-0.76123046875,0.07373046875,0.47021484375
2023-07-29T20:34:42.806066,0.999248743057251,0.026650605723261833,0.028131140395998955,-0.000623592350166291,-0.7529296875,0.16845703125,0.45263671875
2023-07-29T20:34:42.807064,0.9991081357002258,0.0308156069368124,0.028816603124141693,-0.001686439267359674,-0.7529296875,0.16845703125,0.45263671875
2023-07-29T20:34:42.821180,0.9991081357002258,0.0308156069368124,0.028816603124141693,-0.001686439267359674,-0.74560546875,0.21875,0.42919921875
2023-07-29T20:34:42.822596,0.9990061521530151,0.03386063873767853,0.02871491201221943,-0.003947771154344082,-0.74560546875,0.21875,0.42919921875
2023-07-29T20:34:42.828584,0.9990061521530151,0.03386063873767853,0.02871491201221943,-0.003947771154344082,-0.73046875,0.14404296875,0.51220703125
2023-07-29T20:34:42.831090,0.998990535736084,0.03392555192112923,0.028605928644537926,-0.0069723245687782764,-0.73046875,0.14404296875,0.51220703125
2023-07-29T20:34:42.839581,0.998990535736084,0.03392555192112923,0.028605928644537926,-0.0069723245687782764,-0.751953125,-0.01025390625,0.6943359375
2023-07-29T20:34:42.839581,0.9990267753601074,0.03185342252254486,0.029115518555045128,-0.009119320660829544,-0.751953125,-0.01025390625,0.6943359375
2023-07-29T20:34:42.852595,0.9990267753601074,0.03185342252254486,0.029115518555045128,-0.009119320660829544,-0.796875,-0.0107421875,0.85595703125
2023-07-29T20:34:42.853595,0.9990037679672241,0.030795151367783546,0.030335506424307823,-0.011077839881181717,-0.796875,-0.0107421875,0.85595703125
2023-07-29T20:34:42.859579,0.9990037679672241,0.030795151367783546,0.030335506424307823,-0.011077839881181717,-0.82421875,0.04443359375,0.947265625
2023-07-29T20:34:42.859579,0.9989139437675476,0.030751679092645645,0.03242659568786621,-0.01318183820694685,-0.82421875,0.04443359375,0.947265625
2023-07-29T20:34:42.866588,0.9989139437675476,0.030751679092645645,0.03242659568786621,-0.01318183820694685,-0.830078125,0.07275390625,0.86279296875
2023-07-29T20:34:42.868583,0.9987759590148926,0.031500112265348434,0.03466163948178291,-0.01590190827846527,-0.830078125,0.07275390625,0.86279296875
2023-07-29T20:34:42.888581,0.9987759590148926,0.031500112265348434,0.03466163948178291,-0.01590190827846527,-0.794921875,0.01953125,0.724609375
2023-07-29T20:34:42.888581,0.9985818862915039,0.033738281577825546,0.03644566237926483,-0.01917184330523014,-0.794921875,0.01953125,0.724609375
2023-07-29T20:34:42.889578,0.9985818862915039,0.033738281577825546,0.03644566237926483,-0.01917184330523014,-0.7470703125,0.0078125,0.59033203125
2023-07-29T20:34:42.889578,0.9983335137367249,0.03790072724223137,0.03693937882781029,-0.02300257794559002,-0.7470703125,0.0078125,0.59033203125
2023-07-29T20:34:42.897581,0.9983335137367249,0.03790072724223137,0.03693937882781029,-0.02300257794559002,-0.712890625,-0.0302734375,0.6728515625
2023-07-29T20:34:42.902086,0.9981233477592468,0.03998948261141777,0.03758950158953667,-0.02715751715004444,-0.712890625,-0.0302734375,0.6728515625
2023-07-29T20:34:42.913590,0.9981233477592468,0.03998948261141777,0.03758950158953667,-0.02715751715004444,-0.71728515625,-0.16796875,0.77734375
2023-07-29T20:34:42.914588,0.9979698657989502,0.040494468063116074,0.03914589062333107,-0.029730219393968582,-0.71728515625,-0.16796875,0.77734375
2023-07-29T20:34:42.919574,0.9979698657989502,0.040494468063116074,0.03914589062333107,-0.029730219393968582,-0.75390625,-0.07177734375,0.6953125
2023-07-29T20:34:42.920079,0.9978118538856506,0.040707945823669434,0.040812671184539795,-0.032382529228925705,-0.75390625,-0.07177734375,0.6953125
2023-07-29T20:34:42.932084,0.9978118538856506,0.040707945823669434,0.040812671184539795,-0.032382529228925705,-0.7685546875,-0.021484375,0.54052734375
2023-07-29T20:34:42.933217,0.9976270198822021,0.04195789247751236,0.04163285344839096,-0.03530608490109444,-0.7685546875,-0.021484375,0.54052734375
2023-07-29T20:34:42.941196,0.9976270198822021,0.04195789247751236,0.04163285344839096,-0.03530608490109444,-0.79296875,-0.08642578125,0.54248046875
2023-07-29T20:34:42.941196,0.9974963068962097,0.041671790182590485,0.042421840131282806,-0.038274288177490234,-0.79296875,-0.08642578125,0.54248046875
2023-07-29T20:34:42.948387,0.9974963068962097,0.041671790182590485,0.042421840131282806,-0.038274288177490234,-0.84228515625,-0.2685546875,0.5673828125
2023-07-29T20:34:42.949384,0.9973424673080444,0.04278474301099777,0.043169550597667694,-0.04017359018325806,-0.84228515625,-0.2685546875,0.5673828125
2023-07-29T20:34:42.956389,0.9973424673080444,0.04278474301099777,0.043169550597667694,-0.04017359018325806,-0.884765625,-0.29541015625,0.53076171875
2023-07-29T20:34:42.956389,0.9971936941146851,0.04470154643058777,0.043987225741147995,-0.04088575392961502,-0.884765625,-0.29541015625,0.53076171875
2023-07-29T20:34:42.978302,0.9971936941146851,0.04470154643058777,0.043987225741147995,-0.04088575392961502,-0.90673828125,-0.177734375,0.44677734375
2023-07-29T20:34:42.979299,0.9970830678939819,0.04614061117172241,0.04480377212166786,-0.04109811782836914,-0.90673828125,-0.177734375,0.44677734375
2023-07-29T20:34:42.979299,0.9970830678939819,0.04614061117172241,0.04480377212166786,-0.04109811782836914,-0.9150390625,-0.05810546875,0.302734375
2023-07-29T20:34:42.985986,0.9969978928565979,0.04750336334109306,0.04493499547243118,-0.04146651551127434,-0.9150390625,-0.05810546875,0.302734375
2023-07-29T20:34:42.986984,0.9969978928565979,0.04750336334109306,0.04493499547243118,-0.04146651551127434,-0.9091796875,0.044921875,0.14208984375
2023-07-29T20:34:42.987980,0.9967920780181885,0.05171144753694534,0.04341723024845123,-0.042970072478055954,-0.9091796875,0.044921875,0.14208984375
2023-07-29T20:34:42.993419,0.9967920780181885,0.05171144753694534,0.04341723024845123,-0.042970072478055954,-0.91650390625,0.099609375,0.07421875
2023-07-29T20:34:43.001397,0.9965287446975708,0.05614720657467842,0.04071783646941185,-0.04604310169816017,-0.91650390625,0.099609375,0.07421875
2023-07-29T20:34:43.008400,0.9965287446975708,0.05614720657467842,0.04071783646941185,-0.04604310169816017,-0.92919921875,-0.02392578125,0.0712890625
2023-07-29T20:34:43.009397,0.9963521957397461,0.05877532809972763,0.03771078214049339,-0.04904778301715851,-0.92919921875,-0.02392578125,0.0712890625
2023-07-29T20:34:43.016149,0.9963521957397461,0.05877532809972763,0.03771078214049339,-0.04904778301715851,-0.93994140625,-0.09716796875,-0.044921875
2023-07-29T20:34:43.016149,0.9974900484085083,0.059434980154037476,0.036377716809511185,-0.012563023716211319,-0.93994140625,-0.09716796875,-0.044921875
2023-07-29T20:34:43.023674,0.9974900484085083,0.059434980154037476,0.036377716809511185,-0.012563023716211319,-0.93994140625,-0.06396484375,-0.224609375
2023-07-29T20:34:43.024671,0.997429609298706,0.06265328079462051,0.031084321439266205,-0.015570095740258694,-0.93994140625,-0.06396484375,-0.224609375
2023-07-29T20:34:43.038181,0.997429609298706,0.06265328079462051,0.031084321439266205,-0.015570095740258694,-0.92431640625,-0.02001953125,-0.408203125
2023-07-29T20:34:43.039178,0.9972702860832214,0.06732897460460663,0.02315172553062439,-0.01956246793270111,-0.92431640625,-0.02001953125,-0.408203125
2023-07-29T20:34:43.046357,0.9972702860832214,0.06732897460460663,0.02315172553062439,-0.01956246793270111,-0.8857421875,-0.0244140625,-0.52587890625
2023-07-29T20:34:43.048353,0.9969559907913208,0.07310434430837631,0.01210608147084713,-0.024246519431471825,-0.8857421875,-0.0244140625,-0.52587890625
2023-07-29T20:34:43.064298,0.9969559907913208,0.07310434430837631,0.01210608147084713,-0.024246519431471825,-0.87158203125,-0.1171875,-0.38232421875
2023-07-29T20:34:43.065296,0.9968004822731018,0.07446947693824768,-0.0007365431520156562,-0.029026083648204803,-0.87158203125,-0.1171875,-0.38232421875
2023-07-29T20:34:43.068289,0.9968004822731018,0.07446947693824768,-0.0007365431520156562,-0.029026083648204803,-0.84716796875,-0.2822265625,-0.1259765625
2023-07-29T20:34:43.069286,0.9966608285903931,0.07371394336223602,-0.013895150274038315,-0.032254938036203384,-0.84716796875,-0.2822265625,-0.1259765625
2023-07-29T20:34:43.075770,0.9966608285903931,0.07371394336223602,-0.013895150274038315,-0.032254938036203384,-0.783203125,-0.263671875,-0.02099609375
2023-07-29T20:34:43.076767,0.9963155388832092,0.07344155758619308,-0.02772783860564232,-0.03453802317380905,-0.783203125,-0.263671875,-0.02099609375
2023-07-29T20:34:43.083766,0.9963155388832092,0.07344155758619308,-0.02772783860564232,-0.03453802317380905,-0.72900390625,-0.17529296875,0.10693359375
2023-07-29T20:34:43.084765,0.9958886504173279,0.07134728878736496,-0.042122576385736465,-0.03661986067891121,-0.72900390625,-0.17529296875,0.10693359375
2023-07-29T20:34:43.099268,0.9958886504173279,0.07134728878736496,-0.042122576385736465,-0.03661986067891121,-0.70068359375,-0.255859375,0.48876953125
2023-07-29T20:34:43.100265,0.9959712028503418,0.06030236929655075,-0.054285842925310135,-0.038183413445949554,-0.70068359375,-0.255859375,0.48876953125
2023-07-29T20:34:43.109555,0.9959712028503418,0.06030236929655075,-0.054285842925310135,-0.038183413445949554,-0.677734375,-0.54248046875,0.83056640625
2023-07-29T20:34:43.109555,0.9963259100914001,0.044352881610393524,-0.063287653028965,-0.03690594062209129,-0.677734375,-0.54248046875,0.83056640625
2023-07-29T20:34:43.133320,0.9963259100914001,0.044352881610393524,-0.063287653028965,-0.03690594062209129,-0.65234375,-0.60888671875,1.10302734375
2023-07-29T20:34:43.133320,0.996762752532959,0.025136150419712067,-0.06864126771688461,-0.033474359661340714,-0.65234375,-0.60888671875,1.10302734375
2023-07-29T20:34:43.134317,0.996762752532959,0.025136150419712067,-0.06864126771688461,-0.033474359661340714,-0.5791015625,-0.5830078125,1.244140625
2023-07-29T20:34:43.134317,0.9970594644546509,0.008937966078519821,-0.0714699998497963,-0.02616523765027523,-0.5791015625,-0.5830078125,1.244140625
2023-07-29T20:34:43.135316,0.9970594644546509,0.008937966078519821,-0.0714699998497963,-0.02616523765027523,-0.484375,-0.15869140625,1.169921875
2023-07-29T20:34:43.136313,0.9970982074737549,-6.680759724986274e-06,-0.07359441369771957,-0.019467772915959358,-0.484375,-0.15869140625,1.169921875
2023-07-29T20:34:43.145398,0.9970982074737549,-6.680759724986274e-06,-0.07359441369771957,-0.019467772915959358,-0.41162109375,0.08935546875,1.1044921875
2023-07-29T20:34:43.145398,0.9969969391822815,-0.011419202201068401,-0.07513772696256638,-0.014865937642753124,-0.41162109375,0.08935546875,1.1044921875
2023-07-29T20:34:43.158531,0.9969969391822815,-0.011419202201068401,-0.07513772696256638,-0.014865937642753124,-0.37646484375,0.03125,1.09228515625
2023-07-29T20:34:43.164121,0.9965354204177856,-0.031077828258275986,-0.07613345980644226,-0.01244953740388155,-0.37646484375,0.03125,1.09228515625
2023-07-29T20:34:43.166115,0.9965354204177856,-0.031077828258275986,-0.07613345980644226,-0.01244953740388155,-0.35595703125,-0.1220703125,1.1220703125
2023-07-29T20:34:43.177102,0.9954666495323181,-0.0540740005671978,-0.07738884538412094,-0.011534754186868668,-0.35595703125,-0.1220703125,1.1220703125
2023-07-29T20:34:43.178101,0.9954666495323181,-0.0540740005671978,-0.07738884538412094,-0.011534754186868668,-0.3740234375,-0.33740234375,1.29736328125
2023-07-29T20:34:43.179098,0.9938051104545593,-0.0782618373632431,-0.07819605618715286,-0.010576866567134857,-0.3740234375,-0.33740234375,1.29736328125
2023-07-29T20:34:43.188393,0.9938051104545593,-0.0782618373632431,-0.07819605618715286,-0.010576866567134857,-0.423828125,-0.43017578125,1.47314453125
2023-07-29T20:34:43.188393,0.9917126893997192,-0.1014150008559227,-0.0783286988735199,-0.009247425012290478,-0.423828125,-0.43017578125,1.47314453125
2023-07-29T20:34:43.200375,0.9917126893997192,-0.1014150008559227,-0.0783286988735199,-0.009247425012290478,-0.4755859375,-0.43408203125,1.5751953125
2023-07-29T20:34:43.204377,0.9893350005149841,-0.12299439311027527,-0.07763274013996124,-0.007854154333472252,-0.4755859375,-0.43408203125,1.5751953125
2023-07-29T20:34:43.205377,0.9893350005149841,-0.12299439311027527,-0.07763274013996124,-0.007854154333472252,-0.54248046875,-0.51025390625,1.68310546875
2023-07-29T20:34:43.207371,0.9865772724151611,-0.144600048661232,-0.07565119117498398,-0.0057314797304570675,-0.54248046875,-0.51025390625,1.68310546875
2023-07-29T20:34:43.224135,0.9865772724151611,-0.144600048661232,-0.07565119117498398,-0.0057314797304570675,-0.59716796875,-0.51123046875,1.73876953125
2023-07-29T20:34:43.225135,0.9833555221557617,-0.1667385697364807,-0.07210250198841095,-0.0033700144849717617,-0.59716796875,-0.51123046875,1.73876953125
2023-07-29T20:34:43.226129,0.9833555221557617,-0.1667385697364807,-0.07210250198841095,-0.0033700144849717617,-0.630859375,-0.466796875,1.67236328125
2023-07-29T20:34:43.227127,0.9799731969833374,-0.18731413781642914,-0.06756700575351715,-0.0007502066437155008,-0.630859375,-0.466796875,1.67236328125
2023-07-29T20:34:43.240158,0.9799731969833374,-0.18731413781642914,-0.06756700575351715,-0.0007502066437155008,-0.63232421875,-0.3837890625,1.46826171875
2023-07-29T20:34:43.240158,0.9777518510818481,-0.19974738359451294,-0.0640062540769577,0.0023324601352214813,-0.63232421875,-0.3837890625,1.46826171875
2023-07-29T20:34:43.308027,0.9777518510818481,-0.19974738359451294,-0.0640062540769577,0.0023324601352214813,-0.60986328125,-0.22802734375,1.41943359375
2023-07-29T20:34:43.309024,0.9788839221000671,-0.19487127661705017,-0.061651524156332016,0.003255358897149563,-0.60986328125,-0.22802734375,1.41943359375
2023-07-29T20:34:43.309024,0.9788839221000671,-0.19487127661705017,-0.061651524156332016,0.003255358897149563,-0.615234375,-0.29150390625,1.3896484375
2023-07-29T20:34:43.311524,0.9815155267715454,-0.18182851374149323,-0.05962599813938141,0.003214556723833084,-0.615234375,-0.29150390625,1.3896484375
2023-07-29T20:34:43.312035,0.9815155267715454,-0.18182851374149323,-0.05962599813938141,0.003214556723833084,-0.6318359375,-0.41259765625,1.29052734375
2023-07-29T20:34:43.313233,0.9840115904808044,-0.1687706857919693,-0.056838177144527435,0.002653024857863784,-0.6318359375,-0.41259765625,1.29052734375
2023-07-29T20:34:43.314735,0.9840115904808044,-0.1687706857919693,-0.056838177144527435,0.002653024857863784,-0.62548828125,-0.51318359375,1.1259765625
2023-07-29T20:34:43.315734,0.9865306615829468,-0.1545649915933609,-0.05346067622303963,0.0029813055880367756,-0.62548828125,-0.51318359375,1.1259765625
2023-07-29T20:34:43.317730,0.9865306615829468,-0.1545649915933609,-0.05346067622303963,0.0029813055880367756,-0.6201171875,-0.49267578125,0.99169921875
2023-07-29T20:34:43.318726,0.9890906810760498,-0.13866975903511047,-0.04950999096035957,0.004362409934401512,-0.6201171875,-0.49267578125,0.99169921875
2023-07-29T20:34:43.320228,0.9890906810760498,-0.13866975903511047,-0.04950999096035957,0.004362409934401512,-0.60888671875,-0.33056640625,0.8857421875
2023-07-29T20:34:43.322231,0.9911907315254211,-0.12432236224412918,-0.045300304889678955,0.0057288240641355515,-0.60888671875,-0.33056640625,0.8857421875
2023-07-29T20:34:43.322734,0.9911907315254211,-0.12432236224412918,-0.045300304889678955,0.0057288240641355515,-0.6083984375,-0.2119140625,0.8154296875
2023-07-29T20:34:43.323734,0.9926964044570923,-0.11328603327274323,-0.04093119129538536,0.006692201364785433,-0.6083984375,-0.2119140625,0.8154296875
2023-07-29T20:34:43.324732,0.9926964044570923,-0.11328603327274323,-0.04093119129538536,0.006692201364785433,-0.61181640625,-0.15087890625,0.77392578125
2023-07-29T20:34:43.324732,0.9937900900840759,-0.10493161529302597,-0.03638772293925285,0.006822467315942049,-0.61181640625,-0.15087890625,0.77392578125
2023-07-29T20:34:43.327724,0.9937900900840759,-0.10493161529302597,-0.03638772293925285,0.006822467315942049,-0.6279296875,-0.14306640625,0.75537109375
2023-07-29T20:34:43.329718,0.99461829662323,-0.09845638275146484,-0.031630199402570724,0.006351056043058634,-0.6279296875,-0.14306640625,0.75537109375
2023-07-29T20:34:43.337409,0.99461829662323,-0.09845638275146484,-0.031630199402570724,0.006351056043058634,-0.6572265625,-0.169921875,0.7646484375
2023-07-29T20:34:43.338408,0.9953845143318176,-0.09206628054380417,-0.026500459760427475,0.005585477687418461,-0.6572265625,-0.169921875,0.7646484375
2023-07-29T20:34:43.417921,0.9953845143318176,-0.09206628054380417,-0.026500459760427475,0.005585477687418461,-0.6748046875,-0.19140625,0.79296875
2023-07-29T20:34:43.418918,0.9962064027786255,-0.08434043824672699,-0.020950764417648315,0.004526312462985516,-0.6748046875,-0.19140625,0.79296875
2023-07-29T20:34:43.433042,0.9962064027786255,-0.08434043824672699,-0.020950764417648315,0.004526312462985516,-0.7060546875,-0.18798828125,0.7666015625
2023-07-29T20:34:43.437932,0.99688321352005,-0.07740239053964615,-0.014962074346840382,0.002979507902637124,-0.7060546875,-0.18798828125,0.7666015625
2023-07-29T20:34:43.438929,0.99688321352005,-0.07740239053964615,-0.014962074346840382,0.002979507902637124,-0.7041015625,-0.2744140625,0.68798828125
2023-07-29T20:34:43.438929,0.9974903464317322,-0.07024312019348145,-0.008707582019269466,0.001774210948497057,-0.7041015625,-0.2744140625,0.68798828125
2023-07-29T20:34:43.439926,0.9974903464317322,-0.07024312019348145,-0.008707582019269466,0.001774210948497057,-0.6953125,-0.3212890625,0.53955078125
2023-07-29T20:34:43.441942,0.9980461001396179,-0.06240934133529663,-0.002785027725622058,0.00115213415119797,-0.6953125,-0.3212890625,0.53955078125
2023-07-29T20:34:43.443945,0.9980461001396179,-0.06240934133529663,-0.002785027725622058,0.00115213415119797,-0.69287109375,-0.27783203125,0.43212890625
2023-07-29T20:34:43.444942,0.9984859228134155,-0.054948605597019196,0.0023083891719579697,0.0011028273729607463,-0.69287109375,-0.27783203125,0.43212890625
2023-07-29T20:34:43.445939,0.9984859228134155,-0.054948605597019196,0.0023083891719579697,0.0011028273729607463,-0.7041015625,-0.19580078125,0.42333984375
2023-07-29T20:34:43.445939,0.9988165497779846,-0.048175785690546036,0.00661520566791296,0.0009892166126519442,-0.7041015625,-0.19580078125,0.42333984375
2023-07-29T20:34:43.447935,0.9988165497779846,-0.048175785690546036,0.00661520566791296,0.0009892166126519442,-0.71142578125,-0.16650390625,0.4453125
2023-07-29T20:34:43.451948,0.999092698097229,-0.04136376455426216,0.010096076875925064,0.0008713364950381219,-0.71142578125,-0.16650390625,0.4453125
2023-07-29T20:34:43.463948,0.999092698097229,-0.04136376455426216,0.010096076875925064,0.0008713364950381219,-0.71826171875,-0.14892578125,0.4697265625
2023-07-29T20:34:43.468936,0.9993190765380859,-0.03448079526424408,0.013107533566653728,0.0007510573486797512,-0.71826171875,-0.14892578125,0.4697265625
2023-07-29T20:34:43.468936,0.9993190765380859,-0.03448079526424408,0.013107533566653728,0.0007510573486797512,-0.73486328125,-0.10888671875,0.54150390625
2023-07-29T20:34:43.469933,0.9994239211082458,-0.029903316870331764,0.016027316451072693,0.0008168384083546698,-0.73486328125,-0.10888671875,0.54150390625
2023-07-29T20:34:43.474944,0.9994239211082458,-0.029903316870331764,0.016027316451072693,0.0008168384083546698,-0.767578125,-0.0908203125,0.70703125
2023-07-29T20:34:43.474944,0.9994295239448547,-0.02758070081472397,0.01947997324168682,0.0006762908305972815,-0.767578125,-0.0908203125,0.70703125
2023-07-29T20:34:43.482955,0.9994295239448547,-0.02758070081472397,0.01947997324168682,0.0006762908305972815,-0.7861328125,-0.12255859375,0.81591796875
2023-07-29T20:34:43.482955,0.9994123578071594,-0.024767238646745682,0.023686964064836502,0.0005843424587510526,-0.7861328125,-0.12255859375,0.81591796875
2023-07-29T20:34:43.489939,0.9994123578071594,-0.024767238646745682,0.023686964064836502,0.0005843424587510526,-0.7939453125,-0.12109375,0.81005859375
2023-07-29T20:34:43.489939,0.9993818998336792,-0.020684538409113884,0.02842099405825138,0.0004913758602924645,-0.7939453125,-0.12109375,0.81005859375
2023-07-29T20:34:43.491957,0.9993818998336792,-0.020684538409113884,0.02842099405825138,0.0004913758602924645,-0.802734375,-0.07373046875,0.755859375
2023-07-29T20:34:43.491957,0.9992924332618713,-0.016965750604867935,0.03356726095080376,-9.401687566423789e-05,-0.802734375,-0.07373046875,0.755859375
2023-07-29T20:34:43.491957,0.9992924332618713,-0.016965750604867935,0.03356726095080376,-9.401687566423789e-05,-0.80224609375,-0.1201171875,0.65087890625
2023-07-29T20:34:43.506552,0.9991558790206909,-0.013839191757142544,0.038668952882289886,-0.000870311341714114,-0.80224609375,-0.1201171875,0.65087890625
2023-07-29T20:34:43.507549,0.9991558790206909,-0.013839191757142544,0.038668952882289886,-0.000870311341714114,-0.7900390625,-0.20068359375,0.52392578125
2023-07-29T20:34:43.507549,0.9990185499191284,-0.009502881206572056,0.04324262961745262,-0.0012752070324495435,-0.7900390625,-0.20068359375,0.52392578125
2023-07-29T20:34:43.508546,0.9990185499191284,-0.009502881206572056,0.04324262961745262,-0.0012752070324495435,-0.7841796875,-0.19873046875,0.47216796875
2023-07-29T20:34:43.508546,0.9988694190979004,-0.004444475751370192,0.04730662703514099,-0.0014579853741452098,-0.7841796875,-0.19873046875,0.47216796875
2023-07-29T20:34:43.509545,0.9988694190979004,-0.004444475751370192,0.04730662703514099,-0.0014579853741452098,-0.78369140625,-0.1689453125,0.45556640625
2023-07-29T20:34:43.509545,0.9987053275108337,-0.0006200424395501614,0.050853148102760315,-0.0010960816871374846,-0.78369140625,-0.1689453125,0.45556640625
2023-07-29T20:34:43.511110,0.9987053275108337,-0.0006200424395501614,0.050853148102760315,-0.0010960816871374846,-0.78466796875,-0.12158203125,0.4638671875
2023-07-29T20:34:43.513555,0.9985288977622986,0.0029032528400421143,0.05413977429270744,-0.0007028571562841535,-0.78466796875,-0.12158203125,0.4638671875
2023-07-29T20:34:43.526277,0.9985288977622986,0.0029032528400421143,0.05413977429270744,-0.0007028571562841535,-0.80078125,-0.1455078125,0.513671875
2023-07-29T20:34:43.528273,0.998325765132904,0.00685128103941679,0.05743389576673508,0.00013652624329552054,-0.80078125,-0.1455078125,0.513671875
2023-07-29T20:34:43.533529,0.998325765132904,0.00685128103941679,0.05743389576673508,0.00013652624329552054,-0.81005859375,-0.10595703125,0.51513671875
2023-07-29T20:34:43.541018,0.9980989098548889,0.010212184861302376,0.06076708063483238,0.0012208500411361456,-0.81005859375,-0.10595703125,0.51513671875
2023-07-29T20:34:43.542019,0.9980989098548889,0.010212184861302376,0.06076708063483238,0.0012208500411361456,-0.8154296875,-0.02880859375,0.466796875
2023-07-29T20:34:43.542522,0.9978688955307007,0.012569216080009937,0.06399083882570267,0.002172033302485943,-0.8154296875,-0.02880859375,0.466796875
2023-07-29T20:34:43.548511,0.9978688955307007,0.012569216080009937,0.06399083882570267,0.002172033302485943,-0.81298828125,0.00390625,0.44970703125
2023-07-29T20:34:43.557034,0.9976488351821899,0.01444928627461195,0.0669388547539711,0.0026789072435349226,-0.81298828125,0.00390625,0.44970703125
2023-07-29T20:34:43.579014,0.9976488351821899,0.01444928627461195,0.0669388547539711,0.0026789072435349226,-0.81201171875,-0.01171875,0.45068359375
2023-07-29T20:34:43.580010,0.9974308013916016,0.016910793259739876,0.06954901665449142,0.002951944014057517,-0.81201171875,-0.01171875,0.45068359375
2023-07-29T20:34:43.581006,0.9974308013916016,0.016910793259739876,0.06954901665449142,0.002951944014057517,-0.8173828125,0.00439453125,0.44189453125
2023-07-29T20:34:43.582026,0.9972150921821594,0.01975466124713421,0.07186173647642136,0.002792218467220664,-0.8173828125,0.00439453125,0.44189453125
2023-07-29T20:34:43.599386,0.9972150921821594,0.01975466124713421,0.07186173647642136,0.002792218467220664,-0.82763671875,0.0322265625,0.4296875
2023-07-29T20:34:43.600382,0.9970305562019348,0.022034790366888046,0.07376084476709366,0.0019629946909844875,-0.82763671875,0.0322265625,0.4296875
2023-07-29T20:34:43.601381,0.9970305562019348,0.022034790366888046,0.07376084476709366,0.0019629946909844875,-0.83544921875,-0.0634765625,0.44580078125
2023-07-29T20:34:43.601381,0.9967939853668213,0.026925889775156975,0.07533916085958481,0.0008964693988673389,-0.83544921875,-0.0634765625,0.44580078125
2023-07-29T20:34:43.602406,0.9967939853668213,0.026925889775156975,0.07533916085958481,0.0008964693988673389,-0.85302734375,-0.08935546875,0.40771484375
2023-07-29T20:34:43.603559,0.9965487122535706,0.03207375109195709,0.07656361162662506,1.2191884707135614e-05,-0.85302734375,-0.08935546875,0.40771484375
2023-07-29T20:34:43.621594,0.9965487122535706,0.03207375109195709,0.07656361162662506,1.2191884707135614e-05,-0.857421875,-0.0224609375,0.3212890625
2023-07-29T20:34:43.622096,0.9963555932044983,0.036525312811136246,0.07707007229328156,-0.0012381835840642452,-0.857421875,-0.0224609375,0.3212890625
2023-07-29T20:34:43.624315,0.9963555932044983,0.036525312811136246,0.07707007229328156,-0.0012381835840642452,-0.8583984375,-0.04296875,0.30712890625
2023-07-29T20:34:43.625297,0.9961913824081421,0.040802251547575,0.0770156979560852,-0.0025534117594361305,-0.8583984375,-0.04296875,0.30712890625
2023-07-29T20:34:43.631282,0.9961913824081421,0.040802251547575,0.0770156979560852,-0.0025534117594361305,-0.85986328125,-0.0615234375,0.31494140625
2023-07-29T20:34:43.632219,0.9960527420043945,0.04481065273284912,0.07652243971824646,-0.003924042917788029,-0.85986328125,-0.0615234375,0.31494140625
2023-07-29T20:34:43.638272,0.9960527420043945,0.04481065273284912,0.07652243971824646,-0.003924042917788029,-0.8583984375,-0.04248046875,0.2939453125
2023-07-29T20:34:43.640266,0.9959728717803955,0.04807337373495102,0.0754951760172844,-0.0052405064925551414,-0.8583984375,-0.04248046875,0.2939453125
2023-07-29T20:34:43.653657,0.9959728717803955,0.04807337373495102,0.0754951760172844,-0.0052405064925551414,-0.865234375,-0.01171875,0.28076171875
2023-07-29T20:34:43.654656,0.9959349632263184,0.051168959587812424,0.07378653436899185,-0.007137606851756573,-0.865234375,-0.01171875,0.28076171875
2023-07-29T20:34:43.665277,0.9959349632263184,0.051168959587812424,0.07378653436899185,-0.007137606851756573,-0.88525390625,-0.07763671875,0.36572265625
2023-07-29T20:34:43.666274,0.996029794216156,0.05103002116084099,0.07239162176847458,-0.008943747729063034,-0.88525390625,-0.07763671875,0.36572265625
2023-07-29T20:34:43.668268,0.996029794216156,0.05103002116084099,0.07239162176847458,-0.008943747729063034,-0.90234375,-0.18701171875,0.41748046875
2023-07-29T20:34:43.669266,0.9962458610534668,0.04775049537420273,0.07159361988306046,-0.00940350629389286,-0.90234375,-0.18701171875,0.41748046875
2023-07-29T20:34:43.711352,0.9962458610534668,0.04775049537420273,0.07159361988306046,-0.00940350629389286,-0.904296875,-0.1455078125,0.333984375
2023-07-29T20:34:43.711919,0.996458888053894,0.044742148369550705,0.07052770256996155,-0.009678834117949009,-0.904296875,-0.1455078125,0.333984375
2023-07-29T20:34:43.711919,0.996458888053894,0.044742148369550705,0.07052770256996155,-0.009678834117949009,-0.8994140625,-0.125,0.2685546875
2023-07-29T20:34:43.732159,0.9966599941253662,0.042756956070661545,0.06886131316423416,-0.009937324561178684,-0.8994140625,-0.125,0.2685546875
2023-07-29T20:34:43.733386,0.9966599941253662,0.042756956070661545,0.06886131316423416,-0.009937324561178684,-0.89990234375,-0.1572265625,0.248046875
2023-07-29T20:34:43.750136,0.9968706369400024,0.04149918258190155,0.06655976921319962,-0.009824508801102638,-0.89990234375,-0.1572265625,0.248046875
2023-07-29T20:34:43.751134,0.9968706369400024,0.04149918258190155,0.06655976921319962,-0.009824508801102638,-0.88671875,-0.11669921875,0.22607421875
2023-07-29T20:34:43.751637,0.9971084594726562,0.040541794151067734,0.06355886906385422,-0.009555205702781677,-0.88671875,-0.11669921875,0.22607421875
2023-07-29T20:34:43.752140,0.9971084594726562,0.040541794151067734,0.06355886906385422,-0.009555205702781677,-0.86767578125,-0.0458984375,0.173828125
2023-07-29T20:34:43.752140,0.9973657727241516,0.04026072472333908,0.059589091688394547,-0.009474174119532108,-0.86767578125,-0.0458984375,0.173828125
2023-07-29T20:34:43.752140,0.9973657727241516,0.04026072472333908,0.059589091688394547,-0.009474174119532108,-0.84228515625,0.01953125,0.1171875
2023-07-29T20:34:43.753357,0.99761962890625,0.04121728986501694,0.05436646565794945,-0.01002954225987196,-0.84228515625,0.01953125,0.1171875
2023-07-29T20:34:43.754143,0.99761962890625,0.04121728986501694,0.05436646565794945,-0.01002954225987196,-0.82470703125,0.068359375,0.080078125
2023-07-29T20:34:43.755140,0.9979196786880493,0.0418064147233963,0.0477013997733593,-0.011541329324245453,-0.82470703125,0.068359375,0.080078125
2023-07-29T20:34:43.756138,0.9979196786880493,0.0418064147233963,0.0477013997733593,-0.011541329324245453,-0.8173828125,0.05517578125,0.12060546875
2023-07-29T20:34:43.756138,0.998347282409668,0.03843272104859352,0.040519122034311295,-0.013558327220380306,-0.8173828125,0.05517578125,0.12060546875
2023-07-29T20:34:43.780454,0.998347282409668,0.03843272104859352,0.040519122034311295,-0.013558327220380306,-0.80908203125,0.01806640625,0.1708984375
2023-07-29T20:34:43.781452,0.9988805055618286,0.029805367812514305,0.03309937193989754,-0.015926172956824303,-0.80908203125,0.01806640625,0.1708984375
2023-07-29T20:34:43.805754,0.9988805055618286,0.029805367812514305,0.03309937193989754,-0.015926172956824303,-0.80908203125,-0.08544921875,0.2568359375
2023-07-29T20:34:43.806752,0.9993194937705994,0.018915966153144836,0.025988668203353882,-0.01809326745569706,-0.80908203125,-0.08544921875,0.2568359375
2023-07-29T20:34:43.807750,0.9993194937705994,0.018915966153144836,0.025988668203353882,-0.01809326745569706,-0.76416015625,-0.166015625,0.2490234375
2023-07-29T20:34:43.808747,0.9995700120925903,0.010612490586936474,0.018893256783485413,-0.019753076136112213,-0.76416015625,-0.166015625,0.2490234375
2023-07-29T20:34:43.808747,0.9995700120925903,0.010612490586936474,0.018893256783485413,-0.019753076136112213,-0.7109375,-0.11865234375,0.17236328125
2023-07-29T20:34:43.809744,0.9997067451477051,0.003964116331189871,0.010813462547957897,-0.021300846710801125,-0.7109375,-0.11865234375,0.17236328125
2023-07-29T20:34:43.823816,0.9997067451477051,0.003964116331189871,0.010813462547957897,-0.021300846710801125,-0.69140625,-0.08349609375,0.2392578125
2023-07-29T20:34:43.824813,0.9997242093086243,-0.00561559246852994,0.0024626529775559902,-0.02266799286007881,-0.69140625,-0.08349609375,0.2392578125
2023-07-29T20:34:43.824813,0.9997242093086243,-0.00561559246852994,0.0024626529775559902,-0.02266799286007881,-0.6943359375,-0.14794921875,0.42333984375
2023-07-29T20:34:43.825811,0.9995235800743103,-0.018107730895280838,-0.0055032228119671345,-0.024383123964071274,-0.6943359375,-0.14794921875,0.42333984375
2023-07-29T20:34:43.825811,0.9995235800743103,-0.018107730895280838,-0.0055032228119671345,-0.024383123964071274,-0.7275390625,-0.369140625,0.61767578125
2023-07-29T20:34:43.826808,0.9991451501846313,-0.030701151117682457,-0.012499729171395302,-0.02470012940466404,-0.7275390625,-0.369140625,0.61767578125
2023-07-29T20:34:43.826808,0.9991451501846313,-0.030701151117682457,-0.012499729171395302,-0.02470012940466404,-0.74658203125,-0.46728515625,0.6904296875
2023-07-29T20:34:43.833806,0.9987180829048157,-0.04067390784621239,-0.01869942806661129,-0.02362295798957348,-0.74658203125,-0.46728515625,0.6904296875
2023-07-29T20:34:43.841296,0.9987180829048157,-0.04067390784621239,-0.01869942806661129,-0.02362295798957348,-0.75390625,-0.5107421875,0.7607421875
2023-07-29T20:34:43.841296,0.9983710646629333,-0.04734015464782715,-0.024373693391680717,-0.02049393765628338,-0.75390625,-0.5107421875,0.7607421875
2023-07-29T20:34:43.848786,0.9983710646629333,-0.04734015464782715,-0.024373693391680717,-0.02049393765628338,-0.73291015625,-0.3935546875,0.7822265625
2023-07-29T20:34:43.849783,0.9981633424758911,-0.049900975078344345,-0.030102012678980827,-0.01654266007244587,-0.73291015625,-0.3935546875,0.7822265625
2023-07-29T20:34:43.855784,0.9981633424758911,-0.049900975078344345,-0.030102012678980827,-0.01654266007244587,-0.7060546875,-0.17626953125,0.755859375
2023-07-29T20:34:43.863294,0.9979565143585205,-0.05084910988807678,-0.03647448495030403,-0.012916593812406063,-0.7060546875,-0.17626953125,0.755859375
2023-07-29T20:34:43.871273,0.9979565143585205,-0.05084910988807678,-0.03647448495030403,-0.012916593812406063,-0.677734375,-0.03173828125,0.75146484375
2023-07-29T20:34:43.871778,0.9977403879165649,-0.04954560846090317,-0.0440627783536911,-0.01084976177662611,-0.677734375,-0.03173828125,0.75146484375
2023-07-29T20:34:43.877910,0.9977403879165649,-0.04954560846090317,-0.0440627783536911,-0.01084976177662611,-0.6328125,-0.02490234375,0.7626953125
2023-07-29T20:34:43.878909,0.9974942207336426,-0.04612388089299202,-0.052679162472486496,-0.010141493752598763,-0.6328125,-0.02490234375,0.7626953125
2023-07-29T20:34:43.886038,0.9974942207336426,-0.04612388089299202,-0.052679162472486496,-0.010141493752598763,-0.599609375,-0.09228515625,0.859375
2023-07-29T20:34:43.887035,0.9970164895057678,-0.045710720121860504,-0.061304207891225815,-0.0105116106569767,-0.599609375,-0.09228515625,0.859375
2023-07-29T20:34:43.901158,0.9970164895057678,-0.045710720121860504,-0.061304207891225815,-0.0105116106569767,-0.53662109375,-0.2109375,0.9716796875
2023-07-29T20:34:43.901158,0.9962999224662781,-0.050004031509160995,-0.06897182017564774,-0.011356196366250515,-0.53662109375,-0.2109375,0.9716796875
2023-07-29T20:34:43.908610,0.9962999224662781,-0.050004031509160995,-0.06897182017564774,-0.011356196366250515,-0.4833984375,-0.32763671875,1.0380859375
2023-07-29T20:34:43.909607,0.9953055381774902,-0.059303928166627884,-0.07556235045194626,-0.011842797510325909,-0.4833984375,-0.32763671875,1.0380859375
2023-07-29T20:34:43.915733,0.9953055381774902,-0.059303928166627884,-0.07556235045194626,-0.011842797510325909,-0.4521484375,-0.37890625,1.14208984375
2023-07-29T20:34:43.916730,0.994175910949707,-0.06947672367095947,-0.08150839060544968,-0.011977682821452618,-0.4521484375,-0.37890625,1.14208984375
2023-07-29T20:34:43.931082,0.994175910949707,-0.06947672367095947,-0.08150839060544968,-0.011977682821452618,-0.4560546875,-0.4267578125,1.3173828125
2023-07-29T20:34:43.932009,0.9932731986045837,-0.07555777579545975,-0.08703647553920746,-0.011141953058540821,-0.4560546875,-0.4267578125,1.3173828125
2023-07-29T20:34:43.944363,0.9932731986045837,-0.07555777579545975,-0.08703647553920746,-0.011141953058540821,-0.4931640625,-0.40673828125,1.515625
2023-07-29T20:34:43.944363,0.9926096796989441,-0.07937973737716675,-0.09125389903783798,-0.009882086887955666,-0.4931640625,-0.40673828125,1.515625
2023-07-29T20:34:43.946357,0.9926096796989441,-0.07937973737716675,-0.09125389903783798,-0.009882086887955666,-0.544921875,-0.388671875,1.6533203125
2023-07-29T20:34:43.946357,0.991990864276886,-0.08479571342468262,-0.09325876086950302,-0.008156043477356434,-0.544921875,-0.388671875,1.6533203125
2023-07-29T20:34:43.960343,0.991990864276886,-0.08479571342468262,-0.09325876086950302,-0.008156043477356434,-0.57470703125,-0.33447265625,1.64990234375
2023-07-29T20:34:43.961845,0.9914639592170715,-0.09054285287857056,-0.09359433501958847,-0.006429653149098158,-0.57470703125,-0.33447265625,1.64990234375
2023-07-29T20:34:43.968347,0.9914639592170715,-0.09054285287857056,-0.09359433501958847,-0.006429653149098158,-0.57080078125,-0.27294921875,1.56103515625
2023-07-29T20:34:43.969345,0.9911015629768372,-0.0949704498052597,-0.09312232583761215,-0.005147052928805351,-0.57080078125,-0.27294921875,1.56103515625
2023-07-29T20:34:43.975346,0.9911015629768372,-0.0949704498052597,-0.09312232583761215,-0.005147052928805351,-0.5595703125,-0.259765625,1.49853515625
2023-07-29T20:34:43.976344,0.9908537864685059,-0.09865055233240128,-0.09197082370519638,-0.004268856719136238,-0.5595703125,-0.259765625,1.49853515625
2023-07-29T20:34:43.991082,0.9908537864685059,-0.09865055233240128,-0.09197082370519638,-0.004268856719136238,-0.55224609375,-0.28515625,1.48486328125
2023-07-29T20:34:43.991082,0.9906592965126038,-0.1025262102484703,-0.08981931209564209,-0.0038698341231793165,-0.55224609375,-0.28515625,1.48486328125
2023-07-29T20:34:43.998572,0.9906592965126038,-0.1025262102484703,-0.08981931209564209,-0.0038698341231793165,-0.52685546875,-0.37646484375,1.42919921875
2023-07-29T20:34:43.998572,0.9906584024429321,-0.1053045466542244,-0.08659526705741882,-0.0028561169747263193,-0.52685546875,-0.37646484375,1.42919921875
2023-07-29T20:34:44.006178,0.9906584024429321,-0.1053045466542244,-0.08659526705741882,-0.0028561169747263193,-0.53076171875,-0.34326171875,1.33056640625
2023-07-29T20:34:44.006178,0.9908526539802551,-0.10669153183698654,-0.08261431008577347,-0.001621151459403336,-0.53076171875,-0.34326171875,1.33056640625
2023-07-29T20:34:44.021098,0.9908526539802551,-0.10669153183698654,-0.08261431008577347,-0.001621151459403336,-0.5400390625,-0.26708984375,1.24267578125
2023-07-29T20:34:44.021602,0.9911527633666992,-0.1074034795165062,-0.07797733694314957,-0.0004708527121692896,-0.5400390625,-0.26708984375,1.24267578125
2023-07-29T20:34:44.028099,0.9911527633666992,-0.1074034795165062,-0.07797733694314957,-0.0004708527121692896,-0.5517578125,-0.2265625,1.15673828125
2023-07-29T20:34:44.029097,0.9915178418159485,-0.10760394483804703,-0.07289352267980576,0.0005926503799855709,-0.5517578125,-0.2265625,1.15673828125
2023-07-29T20:34:44.036095,0.9915178418159485,-0.10760394483804703,-0.07289352267980576,0.0005926503799855709,-0.5693359375,-0.17041015625,1.06005859375
2023-07-29T20:34:44.036095,0.9920200705528259,-0.10630930960178375,-0.067771315574646,0.001262975623831153,-0.5693359375,-0.17041015625,1.06005859375
2023-07-29T20:34:44.051090,0.9920200705528259,-0.10630930960178375,-0.067771315574646,0.001262975623831153,-0.57958984375,-0.119140625,0.98876953125
2023-07-29T20:34:44.051593,0.9926593899726868,-0.10347343236207962,-0.06259845942258835,0.001407889649271965,-0.57958984375,-0.119140625,0.98876953125
2023-07-29T20:34:44.058090,0.9926593899726868,-0.10347343236207962,-0.06259845942258835,0.001407889649271965,-0.58544921875,-0.09619140625,0.94775390625
2023-07-29T20:34:44.059086,0.9932510256767273,-0.10074813663959503,-0.05745771899819374,0.0009198229527100921,-0.58544921875,-0.09619140625,0.94775390625
2023-07-29T20:34:44.065250,0.9932510256767273,-0.10074813663959503,-0.05745771899819374,0.0009198229527100921,-0.59814453125,-0.107421875,0.95166015625
2023-07-29T20:34:44.066247,0.9938519597053528,-0.09781357645988464,-0.051873620599508286,7.328741776291281e-05,-0.59814453125,-0.107421875,0.95166015625
2023-07-29T20:34:44.081226,0.9938519597053528,-0.09781357645988464,-0.051873620599508286,7.328741776291281e-05,-0.607421875,-0.10595703125,0.9775390625
2023-07-29T20:34:44.081226,0.9946015477180481,-0.0931171327829361,-0.045775122940540314,-0.0012785615399479866,-0.607421875,-0.10595703125,0.9775390625
2023-07-29T20:34:44.088608,0.9946015477180481,-0.0931171327829361,-0.045775122940540314,-0.0012785615399479866,-0.61474609375,-0.109375,0.978515625
2023-07-29T20:34:44.088608,0.9953206181526184,-0.08833102136850357,-0.03906233608722687,-0.0029446345288306475,-0.61474609375,-0.109375,0.978515625
2023-07-29T20:34:44.096144,0.9953206181526184,-0.08833102136850357,-0.03906233608722687,-0.0029446345288306475,-0.62158203125,-0.12109375,0.8935546875
2023-07-29T20:34:44.103786,0.9959728717803955,-0.0837555080652237,-0.03155478462576866,-0.00522060040384531,-0.62158203125,-0.12109375,0.8935546875
2023-07-29T20:34:44.109773,0.9959728717803955,-0.0837555080652237,-0.03155478462576866,-0.00522060040384531,-0.61865234375,-0.1796875,0.76220703125
2023-07-29T20:34:44.111279,0.9965552091598511,-0.07902113348245621,-0.024021152406930923,-0.007498705759644508,-0.61865234375,-0.1796875,0.76220703125
2023-07-29T20:34:44.118288,0.9965552091598511,-0.07902113348245621,-0.024021152406930923,-0.007498705759644508,-0.6298828125,-0.2138671875,0.63671875
2023-07-29T20:34:44.119286,0.997054398059845,-0.07421435415744781,-0.016730887815356255,-0.0097340177744627,-0.6298828125,-0.2138671875,0.63671875
2023-07-29T20:34:44.125642,0.997054398059845,-0.07421435415744781,-0.016730887815356255,-0.0097340177744627,-0.64013671875,-0.2001953125,0.46240234375
2023-07-29T20:34:44.126642,0.9974554181098938,-0.06946630030870438,-0.010504765436053276,-0.012111881747841835,-0.64013671875,-0.2001953125,0.46240234375
2023-07-29T20:34:44.133652,0.9974554181098938,-0.06946630030870438,-0.010504765436053276,-0.012111881747841835,-0.63427734375,-0.22607421875,0.35498046875
2023-07-29T20:34:44.141129,0.997836172580719,-0.06396594643592834,-0.005587850697338581,-0.01414239127188921,-0.63427734375,-0.22607421875,0.35498046875
2023-07-29T20:34:44.148617,0.997836172580719,-0.06396594643592834,-0.005587850697338581,-0.01414239127188921,-0.64501953125,-0.2275390625,0.31787109375
2023-07-29T20:34:44.148617,0.9983214735984802,-0.055642612278461456,-0.0022560469806194305,-0.015909245237708092,-0.64501953125,-0.2275390625,0.31787109375
2023-07-29T20:34:44.155797,0.9983214735984802,-0.055642612278461456,-0.0022560469806194305,-0.015909245237708092,-0.6689453125,-0.19921875,0.35986328125
2023-07-29T20:34:44.156795,0.9987432956695557,-0.04694349318742752,-3.049267252208665e-05,-0.01755458489060402,-0.6689453125,-0.19921875,0.35986328125
2023-07-29T20:34:44.163678,0.9987432956695557,-0.04694349318742752,-3.049267252208665e-05,-0.01755458489060402,-0.69287109375,-0.18994140625,0.4970703125
2023-07-29T20:34:44.163678,0.9989973902702332,-0.04059486463665962,0.0022929508704692125,-0.018734680488705635,-0.69287109375,-0.18994140625,0.4970703125
2023-07-29T20:34:44.178764,0.9989973902702332,-0.04059486463665962,0.0022929508704692125,-0.018734680488705635,-0.71484375,-0.12255859375,0.59521484375
2023-07-29T20:34:44.178764,0.9991450905799866,-0.03595014661550522,0.004864878952503204,-0.01982209086418152,-0.71484375,-0.12255859375,0.59521484375
2023-07-29T20:34:44.185275,0.9991450905799866,-0.03595014661550522,0.004864878952503204,-0.01982209086418152,-0.72607421875,-0.01513671875,0.62646484375
2023-07-29T20:34:44.186272,0.9992092847824097,-0.03258327394723892,0.007545847445726395,-0.0215008445084095,-0.72607421875,-0.01513671875,0.62646484375
2023-07-29T20:34:44.193449,0.9992092847824097,-0.03258327394723892,0.007545847445726395,-0.0215008445084095,-0.73193359375,0.00390625,0.6943359375
2023-07-29T20:34:44.194273,0.9992333054542542,-0.02929980494081974,0.010419274680316448,-0.023784898221492767,-0.73193359375,0.00390625,0.6943359375
2023-07-29T20:34:44.208396,0.9992333054542542,-0.02929980494081974,0.010419274680316448,-0.023784898221492767,-0.75634765625,-0.0166015625,0.79931640625
2023-07-29T20:34:44.209394,0.9992450475692749,-0.024769848212599754,0.013844450935721397,-0.0265350304543972,-0.75634765625,-0.0166015625,0.79931640625
2023-07-29T20:34:44.215858,0.9992450475692749,-0.024769848212599754,0.013844450935721397,-0.0265350304543972,-0.76806640625,-0.0029296875,0.8076171875
2023-07-29T20:34:44.216856,0.9992040991783142,-0.01942441798746586,0.017746174708008766,-0.029981093481183052,-0.76806640625,-0.0029296875,0.8076171875
2023-07-29T20:34:44.223800,0.9992040991783142,-0.01942441798746586,0.017746174708008766,-0.029981093481183052,-0.75341796875,-0.00537109375,0.7216796875
2023-07-29T20:34:44.224798,0.9990778565406799,-0.014190074987709522,0.021825434640049934,-0.03414246812462807,-0.75341796875,-0.00537109375,0.7216796875
2023-07-29T20:34:44.238287,0.9990778565406799,-0.014190074987709522,0.021825434640049934,-0.03414246812462807,-0.73974609375,-0.0439453125,0.64111328125
2023-07-29T20:34:44.239286,0.9988735318183899,-0.00902839656919241,0.025822442024946213,-0.038772594183683395,-0.73974609375,-0.0439453125,0.64111328125
2023-07-29T20:34:44.245681,0.9988735318183899,-0.00902839656919241,0.025822442024946213,-0.038772594183683395,-0.73486328125,-0.12646484375,0.59130859375
2023-07-29T20:34:44.246678,0.9986178278923035,-0.0026493219193071127,0.029393257573246956,-0.04349151998758316,-0.73486328125,-0.12646484375,0.59130859375
2023-07-29T20:34:44.253627,0.9986178278923035,-0.0026493219193071127,0.029393257573246956,-0.04349151998758316,-0.73291015625,-0.201171875,0.546875
2023-07-29T20:34:44.253627,0.9983153939247131,0.004620656371116638,0.0324820913374424,-0.047853849828243256,-0.73291015625,-0.201171875,0.546875
2023-07-29T20:34:44.268139,0.9983153939247131,0.004620656371116638,0.0324820913374424,-0.047853849828243256,-0.73974609375,-0.18701171875,0.49658203125
2023-07-29T20:34:44.269137,0.9979621767997742,0.011372330598533154,0.03510306775569916,-0.05205672234296799,-0.73974609375,-0.18701171875,0.49658203125
2023-07-29T20:34:44.276137,0.9979621767997742,0.011372330598533154,0.03510306775569916,-0.05205672234296799,-0.7451171875,-0.177734375,0.47021484375
2023-07-29T20:34:44.276137,0.997576117515564,0.016824495047330856,0.037300433963537216,-0.05628031864762306,-0.7451171875,-0.177734375,0.47021484375
2023-07-29T20:34:44.283546,0.997576117515564,0.016824495047330856,0.037300433963537216,-0.05628031864762306,-0.75439453125,-0.20654296875,0.47265625
2023-07-29T20:34:44.283546,0.997209370136261,0.02078288421034813,0.03924735635519028,-0.06001020222902298,-0.75439453125,-0.20654296875,0.47265625
2023-07-29T20:34:44.298064,0.997209370136261,0.02078288421034813,0.03924735635519028,-0.06001020222902298,-0.75927734375,-0.20361328125,0.47802734375
2023-07-29T20:34:44.299060,0.9968370795249939,0.0245295912027359,0.04077739268541336,-0.06365039199590683,-0.75927734375,-0.20361328125,0.47802734375
2023-07-29T20:34:44.306153,0.9968370795249939,0.0245295912027359,0.04077739268541336,-0.06365039199590683,-0.7744140625,-0.216796875,0.525390625
2023-07-29T20:34:44.306153,0.9964351654052734,0.02901613898575306,0.041987739503383636,-0.06717147678136826,-0.7744140625,-0.216796875,0.525390625
2023-07-29T20:34:44.321058,0.9964351654052734,0.02901613898575306,0.041987739503383636,-0.06717147678136826,-0.79345703125,-0.2587890625,0.60888671875
2023-07-29T20:34:44.321058,0.9960253834724426,0.03301794454455376,0.04349984601140022,-0.07036393135786057,-0.79345703125,-0.2587890625,0.60888671875
2023-07-29T20:34:44.335525,0.9960253834724426,0.03301794454455376,0.04349984601140022,-0.07036393135786057,-0.80859375,-0.3115234375,0.646484375
2023-07-29T20:34:44.337520,0.9956472516059875,0.03704249486327171,0.045347053557634354,-0.07251273840665817,-0.80859375,-0.3115234375,0.646484375
2023-07-29T20:34:44.337520,0.9956472516059875,0.03704249486327171,0.045347053557634354,-0.07251273840665817,-0.8291015625,-0.24365234375,0.65576171875
2023-07-29T20:34:44.358653,0.9951492547988892,0.04308461397886276,0.04696755111217499,-0.07493815571069717,-0.8291015625,-0.24365234375,0.65576171875
2023-07-29T20:34:44.358653,0.9951492547988892,0.04308461397886276,0.04696755111217499,-0.07493815571069717,-0.83837890625,-0.2392578125,0.67431640625
2023-07-29T20:34:44.366180,0.9945955276489258,0.049410488456487656,0.04872220382094383,-0.07722942531108856,-0.83837890625,-0.2392578125,0.67431640625
2023-07-29T20:34:44.366180,0.9945955276489258,0.049410488456487656,0.04872220382094383,-0.07722942531108856,-0.84130859375,-0.23291015625,0.6513671875
2023-07-29T20:34:44.373219,0.9940991997718811,0.05366792902350426,0.05093735456466675,-0.07932158559560776,-0.84130859375,-0.23291015625,0.6513671875
2023-07-29T20:34:44.374219,0.9940991997718811,0.05366792902350426,0.05093735456466675,-0.07932158559560776,-0.8369140625,-0.21484375,0.59619140625
2023-07-29T20:34:44.374219,0.9936526417732239,0.056466177105903625,0.05327661335468292,-0.08141040056943893,-0.8369140625,-0.21484375,0.59619140625
2023-07-29T20:34:44.381202,0.9936526417732239,0.056466177105903625,0.05327661335468292,-0.08141040056943893,-0.82080078125,-0.20703125,0.5517578125
2023-07-29T20:34:44.387938,0.9932119250297546,0.058851342648267746,0.05551757290959358,-0.0835726335644722,-0.82080078125,-0.20703125,0.5517578125
2023-07-29T20:34:44.388936,0.9932119250297546,0.058851342648267746,0.05551757290959358,-0.0835726335644722,-0.810546875,-0.22021484375,0.53515625
2023-07-29T20:34:44.388936,0.9928233027458191,0.060254186391830444,0.057773567736148834,-0.08563631027936935,-0.810546875,-0.22021484375,0.53515625
2023-07-29T20:34:44.403365,0.9928233027458191,0.060254186391830444,0.057773567736148834,-0.08563631027936935,-0.8193359375,-0.2490234375,0.50927734375
2023-07-29T20:34:44.404807,0.992516815662384,0.060496311634778976,0.060044292360544205,-0.08743716776371002,-0.8193359375,-0.2490234375,0.50927734375
2023-07-29T20:34:44.404807,0.992516815662384,0.060496311634778976,0.060044292360544205,-0.08743716776371002,-0.830078125,-0.30224609375,0.4892578125
2023-07-29T20:34:44.411300,0.992217481136322,0.061255816370248795,0.062006715685129166,-0.08892282843589783,-0.830078125,-0.30224609375,0.4892578125
2023-07-29T20:34:44.411300,0.992217481136322,0.061255816370248795,0.062006715685129166,-0.08892282843589783,-0.8408203125,-0.3251953125,0.48828125
2023-07-29T20:34:44.412299,0.991953432559967,0.062369488179683685,0.06377196311950684,-0.08984118700027466,-0.8408203125,-0.3251953125,0.48828125
2023-07-29T20:34:44.425495,0.991953432559967,0.062369488179683685,0.06377196311950684,-0.08984118700027466,-0.84765625,-0.302734375,0.47802734375
2023-07-29T20:34:44.426493,0.991745114326477,0.0630851611495018,0.06544512510299683,-0.09043703228235245,-0.84765625,-0.302734375,0.47802734375
2023-07-29T20:34:44.432991,0.991745114326477,0.0630851611495018,0.06544512510299683,-0.09043703228235245,-0.8564453125,-0.3095703125,0.4541015625
2023-07-29T20:34:44.433987,0.9916089177131653,0.06383340060710907,0.06684005260467529,-0.09038525819778442,-0.8564453125,-0.3095703125,0.4541015625
2023-07-29T20:34:44.439971,0.9916089177131653,0.06383340060710907,0.06684005260467529,-0.09038525819778442,-0.86279296875,-0.25146484375,0.44384765625
2023-07-29T20:34:44.441540,0.9915368556976318,0.0639025866985321,0.06809470057487488,-0.09018978476524353,-0.86279296875,-0.25146484375,0.44384765625
2023-07-29T20:34:44.455541,0.9915368556976318,0.0639025866985321,0.06809470057487488,-0.09018978476524353,-0.86181640625,-0.201171875,0.4326171875
2023-07-29T20:34:44.456539,0.9915000200271606,0.06324099749326706,0.06921017169952393,-0.09021244198083878,-0.86181640625,-0.201171875,0.4326171875
2023-07-29T20:34:44.463100,0.9915000200271606,0.06324099749326706,0.06921017169952393,-0.09021244198083878,-0.87060546875,-0.22216796875,0.3837890625
2023-07-29T20:34:44.471080,0.9914501905441284,0.06272771954536438,0.06986290961503983,-0.09061354398727417,-0.87060546875,-0.22216796875,0.3837890625
2023-07-29T20:34:44.478122,0.9914501905441284,0.06272771954536438,0.06986290961503983,-0.09061354398727417,-0.8876953125,-0.34619140625,0.3828125
2023-07-29T20:34:44.486237,0.991472065448761,0.06216941401362419,0.07046328485012054,-0.0902940034866333,-0.8876953125,-0.34619140625,0.3828125
2023-07-29T20:34:44.486237,0.991472065448761,0.06216941401362419,0.07046328485012054,-0.0902940034866333,-0.91796875,-0.38916015625,0.34521484375
2023-07-29T20:34:44.487235,0.9915449619293213,0.06215083226561546,0.07064507901668549,-0.0893588587641716,-0.91796875,-0.38916015625,0.34521484375
2023-07-29T20:34:44.500216,0.9915449619293213,0.06215083226561546,0.07064507901668549,-0.0893588587641716,-0.935546875,-0.38232421875,0.30419921875
2023-07-29T20:34:44.501213,0.9916729927062988,0.0623803474009037,0.0702962800860405,-0.08804432302713394,-0.935546875,-0.38232421875,0.30419921875
2023-07-29T20:34:44.502219,0.9916729927062988,0.0623803474009037,0.0702962800860405,-0.08804432302713394,-0.94921875,-0.41748046875,0.34423828125
2023-07-29T20:34:44.508212,0.9917801022529602,0.0643208920955658,0.06953715533018112,-0.08602046966552734,-0.94921875,-0.41748046875,0.34423828125
2023-07-29T20:34:44.516122,0.9917801022529602,0.0643208920955658,0.06953715533018112,-0.08602046966552734,-0.94921875,-0.375,0.32861328125
2023-07-29T20:34:44.516122,0.9918296933174133,0.06751909106969833,0.06856280565261841,-0.08375042676925659,-0.94921875,-0.375,0.32861328125
2023-07-29T20:34:44.523657,0.9918296933174133,0.06751909106969833,0.06856280565261841,-0.08375042676925659,-0.9345703125,-0.34521484375,0.18896484375
2023-07-29T20:34:44.523657,0.9919834733009338,0.06987239420413971,0.06720424443483353,-0.08105728775262833,-0.9345703125,-0.34521484375,0.18896484375
2023-07-29T20:34:44.531169,0.9919834733009338,0.06987239420413971,0.06720424443483353,-0.08105728775262833,-0.9033203125,-0.3544921875,0.0234375
2023-07-29T20:34:44.532169,0.992328941822052,0.071137934923172,0.06483650207519531,-0.07758129388093948,-0.9033203125,-0.3544921875,0.0234375
2023-07-29T20:34:44.545981,0.992328941822052,0.071137934923172,0.06483650207519531,-0.07758129388093948,-0.8671875,-0.33447265625,-0.01123046875
2023-07-29T20:34:44.546978,0.9927694201469421,0.07225516438484192,0.06125549226999283,-0.07372855395078659,-0.8671875,-0.33447265625,-0.01123046875
2023-07-29T20:34:44.553997,0.9927694201469421,0.07225516438484192,0.06125549226999283,-0.07372855395078659,-0.837890625,-0.2919921875,0.044921875
2023-07-29T20:34:44.553997,0.9933545589447021,0.07231274992227554,0.05691738426685333,-0.06912344694137573,-0.837890625,-0.2919921875,0.044921875
2023-07-29T20:34:44.559982,0.9933545589447021,0.07231274992227554,0.05691738426685333,-0.06912344694137573,-0.81201171875,-0.17578125,0.1103515625
2023-07-29T20:34:44.562003,0.9940428733825684,0.07064293324947357,0.05213729664683342,-0.06457530707120895,-0.81201171875,-0.17578125,0.1103515625
2023-07-29T20:34:44.584295,0.9940428733825684,0.07064293324947357,0.05213729664683342,-0.06457530707120895,-0.78271484375,-0.091796875,0.126953125
2023-07-29T20:34:44.584295,0.994831919670105,0.06703586876392365,0.046772293746471405,-0.06023315340280533,-0.78271484375,-0.091796875,0.126953125
2023-07-29T20:34:44.598277,0.994831919670105,0.06703586876392365,0.046772293746471405,-0.06023315340280533,-0.75048828125,-0.07373046875,0.16357421875
2023-07-29T20:34:44.599274,0.9956365823745728,0.062104564160108566,0.04070998355746269,-0.05651159957051277,-0.75048828125,-0.07373046875,0.16357421875
2023-07-29T20:34:44.600272,0.9956365823745728,0.062104564160108566,0.04070998355746269,-0.05651159957051277,-0.7314453125,-0.1591796875,0.21484375
2023-07-29T20:34:44.606278,0.9963767528533936,0.05733359977602959,0.03377649560570717,-0.05296604335308075,-0.7314453125,-0.1591796875,0.21484375
2023-07-29T20:34:44.606278,0.9963767528533936,0.05733359977602959,0.03377649560570717,-0.05296604335308075,-0.72314453125,-0.259765625,0.2958984375
2023-07-29T20:34:44.607276,0.9971113204956055,0.0519196018576622,0.02656714804470539,-0.04865645989775658,-0.72314453125,-0.259765625,0.2958984375
2023-07-29T20:34:44.613612,0.9971113204956055,0.0519196018576622,0.02656714804470539,-0.04865645989775658,-0.69482421875,-0.24755859375,0.41650390625
2023-07-29T20:34:44.614544,0.9978700876235962,0.04425759240984917,0.019558580592274666,-0.04374992474913597,-0.69482421875,-0.24755859375,0.41650390625
2023-07-29T20:34:44.621037,0.9978700876235962,0.04425759240984917,0.019558580592274666,-0.04374992474913597,-0.6806640625,-0.1796875,0.5126953125
2023-07-29T20:34:44.621037,0.9986252784729004,0.033617809414863586,0.012765426188707352,-0.03813725709915161,-0.6806640625,-0.1796875,0.5126953125
2023-07-29T20:34:44.636144,0.9986252784729004,0.033617809414863586,0.012765426188707352,-0.03813725709915161,-0.66357421875,-0.05908203125,0.6474609375
2023-07-29T20:34:44.636144,0.9992176294326782,0.02076616883277893,0.005991031415760517,-0.03311977535486221,-0.66357421875,-0.05908203125,0.6474609375
2023-07-29T20:34:44.644146,0.9992176294326782,0.02076616883277893,0.005991031415760517,-0.03311977535486221,-0.65673828125,-0.072265625,0.837890625
2023-07-29T20:34:44.645143,0.9995615482330322,0.008033868856728077,0.00015644400264136493,-0.028499601408839226,-0.65673828125,-0.072265625,0.837890625
2023-07-29T20:34:44.651127,0.9995615482330322,0.008033868856728077,0.00015644400264136493,-0.028499601408839226,-0.6591796875,-0.04296875,0.95751953125
2023-07-29T20:34:44.651631,0.999669075012207,-0.006097743753343821,-0.005361159332096577,-0.02441013976931572,-0.6591796875,-0.04296875,0.95751953125
2023-07-29T20:34:44.666287,0.999669075012207,-0.006097743753343821,-0.005361159332096577,-0.02441013976931572,-0.63916015625,-0.0341796875,1.03271484375
2023-07-29T20:34:44.666287,0.9995072484016418,-0.02074386551976204,-0.010090439580380917,-0.02128651551902294,-0.63916015625,-0.0341796875,1.03271484375
2023-07-29T20:34:44.673332,0.9995072484016418,-0.02074386551976204,-0.010090439580380917,-0.02128651551902294,-0.64306640625,-0.09912109375,1.0927734375
2023-07-29T20:34:44.674332,0.9990649223327637,-0.03642158955335617,-0.014045466668903828,-0.018588880077004433,-0.64306640625,-0.09912109375,1.0927734375
2023-07-29T20:34:44.681313,0.9990649223327637,-0.03642158955335617,-0.014045466668903828,-0.018588880077004433,-0.6611328125,-0.1923828125,1.1953125
2023-07-29T20:34:44.681313,0.9984761476516724,-0.049929745495319366,-0.01723600924015045,-0.015975352376699448,-0.6611328125,-0.1923828125,1.1953125
2023-07-29T20:34:44.688004,0.9984761476516724,-0.049929745495319366,-0.01723600924015045,-0.015975352376699448,-0.6640625,-0.291015625,1.26318359375
2023-07-29T20:34:44.696014,0.9980111122131348,-0.05848795548081398,-0.019721269607543945,-0.012807418592274189,-0.6640625,-0.291015625,1.26318359375
2023-07-29T20:34:44.703229,0.9980111122131348,-0.05848795548081398,-0.019721269607543945,-0.012807418592274189,-0.671875,-0.22998046875,1.267578125
2023-07-29T20:34:44.704172,0.9976367354393005,-0.06453019380569458,-0.02158536948263645,-0.009527064859867096,-0.671875,-0.22998046875,1.267578125
2023-07-29T20:34:44.711154,0.9976367354393005,-0.06453019380569458,-0.02158536948263645,-0.009527064859867096,-0.66845703125,-0.146484375,1.25732421875
2023-07-29T20:34:44.711154,0.9972174167633057,-0.07061468064785004,-0.022895710542798042,-0.006842262111604214,-0.66845703125,-0.146484375,1.25732421875
2023-07-29T20:34:44.718183,0.9972174167633057,-0.07061468064785004,-0.022895710542798042,-0.006842262111604214,-0.67333984375,-0.1328125,1.30029296875
2023-07-29T20:34:44.719182,0.9968485832214355,-0.07551989704370499,-0.02385840192437172,-0.0045126560144126415,-0.67333984375,-0.1328125,1.30029296875
2023-07-29T20:34:44.734010,0.9968485832214355,-0.07551989704370499,-0.02385840192437172,-0.0045126560144126415,-0.67529296875,-0.10107421875,1.365234375
2023-07-29T20:34:44.736003,0.9966356158256531,-0.07821744680404663,-0.02429116703569889,-0.0030649960972368717,-0.67529296875,-0.10107421875,1.365234375
2023-07-29T20:34:44.739993,0.9966356158256531,-0.07821744680404663,-0.02429116703569889,-0.0030649960972368717,-0.6669921875,-0.13037109375,1.39501953125
2023-07-29T20:34:44.749112,0.996468722820282,-0.08053538203239441,-0.023640615865588188,-0.002253071404993534,-0.6669921875,-0.13037109375,1.39501953125
2023-07-29T20:34:44.749112,0.996468722820282,-0.08053538203239441,-0.023640615865588188,-0.002253071404993534,-0.65087890625,-0.1826171875,1.32421875
2023-07-29T20:34:44.750110,0.9963858723640442,-0.08202432841062546,-0.022029146552085876,-0.0013989681610837579,-0.65087890625,-0.1826171875,1.32421875
2023-07-29T20:34:44.763068,0.9963858723640442,-0.08202432841062546,-0.022029146552085876,-0.0013989681610837579,-0.6376953125,-0.1328125,1.22705078125
2023-07-29T20:34:44.764064,0.9963946342468262,-0.08247005194425583,-0.019885404035449028,-0.0009672329179011285,-0.6376953125,-0.1328125,1.22705078125
2023-07-29T20:34:44.772059,0.9963946342468262,-0.08247005194425583,-0.019885404035449028,-0.0009672329179011285,-0.62255859375,-0.0830078125,1.16796875
2023-07-29T20:34:44.773081,0.9963837265968323,-0.08320044726133347,-0.01720782369375229,-0.00098682870157063,-0.62255859375,-0.0830078125,1.16796875
2023-07-29T20:34:44.778079,0.9963837265968323,-0.08320044726133347,-0.01720782369375229,-0.00098682870157063,-0.62109375,-0.0693359375,1.130859375
2023-07-29T20:34:44.779075,0.9963923692703247,-0.08368848264217377,-0.013987164944410324,-0.001644554315134883,-0.62109375,-0.0693359375,1.130859375
2023-07-29T20:34:44.793299,0.9963923692703247,-0.08368848264217377,-0.013987164944410324,-0.001644554315134883,-0.62939453125,-0.06591796875,1.06884765625
2023-07-29T20:34:44.794296,0.9964085817337036,-0.08400347083806992,-0.010255695320665836,-0.002855153288692236,-0.62939453125,-0.06591796875,1.06884765625
2023-07-29T20:34:44.808448,0.9964085817337036,-0.08400347083806992,-0.010255695320665836,-0.002855153288692236,-0.64501953125,-0.0703125,0.99267578125
2023-07-29T20:34:44.809443,0.996417760848999,-0.08421221375465393,-0.0062148598954081535,-0.0046190060675144196,-0.64501953125,-0.0703125,0.99267578125
2023-07-29T20:34:44.811438,0.996417760848999,-0.08421221375465393,-0.0062148598954081535,-0.0046190060675144196,-0.64794921875,-0.10107421875,0.892578125
2023-07-29T20:34:44.811943,0.9965272545814514,-0.08296389877796173,-0.0021867684554308653,-0.0067587802186608315,-0.64794921875,-0.10107421875,0.892578125
2023-07-29T20:34:44.824106,0.9965272545814514,-0.08296389877796173,-0.0021867684554308653,-0.0067587802186608315,-0.66064453125,-0.1376953125,0.82275390625
2023-07-29T20:34:44.824106,0.9967027306556702,-0.08062240481376648,0.001822609337978065,-0.008968987502157688,-0.66064453125,-0.1376953125,0.82275390625
2023-07-29T20:34:44.832104,0.9967027306556702,-0.08062240481376648,0.001822609337978065,-0.008968987502157688,-0.68701171875,-0.154296875,0.82763671875
2023-07-29T20:34:44.833391,0.9969332218170166,-0.07723856717348099,0.005946051795035601,-0.011090477928519249,-0.68701171875,-0.154296875,0.82763671875
2023-07-29T20:34:44.838381,0.9969332218170166,-0.07723856717348099,0.005946051795035601,-0.011090477928519249,-0.7001953125,-0.13818359375,0.83154296875
2023-07-29T20:34:44.839377,0.9972116947174072,-0.0726662203669548,0.010185414925217628,-0.013592862524092197,-0.7001953125,-0.13818359375,0.83154296875
2023-07-29T20:34:44.854095,0.9972116947174072,-0.0726662203669548,0.010185414925217628,-0.013592862524092197,-0.708984375,-0.2001953125,0.83984375
2023-07-29T20:34:44.855091,0.9974726438522339,-0.06760893017053604,0.014941485598683357,-0.01593703031539917,-0.708984375,-0.2001953125,0.83984375
2023-07-29T20:34:44.861076,0.9974726438522339,-0.06760893017053604,0.014941485598683357,-0.01593703031539917,-0.7177734375,-0.21533203125,0.78564453125
2023-07-29T20:34:44.862082,0.9976835250854492,-0.06240373104810715,0.019972573965787888,-0.018287062644958496,-0.7177734375,-0.21533203125,0.78564453125
2023-07-29T20:34:44.870073,0.9976835250854492,-0.06240373104810715,0.019972573965787888,-0.018287062644958496,-0.732421875,-0.22998046875,0.7158203125
2023-07-29T20:34:44.870073,0.9979633688926697,-0.055111393332481384,0.024785444140434265,-0.02043270133435726,-0.732421875,-0.22998046875,0.7158203125
2023-07-29T20:34:44.887396,0.9979633688926697,-0.055111393332481384,0.024785444140434265,-0.02043270133435726,-0.73291015625,-0.220703125,0.65283203125
2023-07-29T20:34:44.887396,0.9982640147209167,-0.04566466808319092,0.029349438846111298,-0.02285582944750786,-0.73291015625,-0.220703125,0.65283203125
2023-07-29T20:34:44.890386,0.9982640147209167,-0.04566466808319092,0.029349438846111298,-0.02285582944750786,-0.7353515625,-0.22509765625,0.60107421875
2023-07-29T20:34:44.891385,0.9984114170074463,-0.03745291754603386,0.03395563364028931,-0.024877289310097694,-0.7353515625,-0.22509765625,0.60107421875
2023-07-29T20:34:44.898156,0.9984114170074463,-0.03745291754603386,0.03395563364028931,-0.024877289310097694,-0.7431640625,-0.2197265625,0.595703125
2023-07-29T20:34:44.900150,0.9984311461448669,-0.030562257394194603,0.03858780860900879,-0.02668820135295391,-0.7431640625,-0.2197265625,0.595703125
2023-07-29T20:34:44.913787,0.9984311461448669,-0.030562257394194603,0.03858780860900879,-0.02668820135295391,-0.74462890625,-0.20361328125,0.61181640625
2023-07-29T20:34:44.913787,0.9983588457107544,-0.024360062554478645,0.04339948296546936,-0.02833225019276142,-0.74462890625,-0.20361328125,0.61181640625
2023-07-29T20:34:44.919780,0.9983588457107544,-0.024360062554478645,0.04339948296546936,-0.02833225019276142,-0.76806640625,-0.2099609375,0.66796875
2023-07-29T20:34:44.921286,0.998201310634613,-0.01919379085302353,0.0484454445540905,-0.029643118381500244,-0.76806640625,-0.2099609375,0.66796875
2023-07-29T20:34:44.957264,0.998201310634613,-0.01919379085302353,0.0484454445540905,-0.029643118381500244,-0.79150390625,-0.20751953125,0.68505859375
2023-07-29T20:34:44.957264,0.9979263544082642,-0.0160228218883276,0.05432829633355141,-0.03057430125772953,-0.79150390625,-0.20751953125,0.68505859375
2023-07-29T20:34:44.959258,0.9979263544082642,-0.0160228218883276,0.05432829633355141,-0.03057430125772953,-0.8037109375,-0.16162109375,0.640625
2023-07-29T20:34:44.959258,0.9975873231887817,-0.01409069076180458,0.060297928750514984,-0.031387340277433395,-0.8037109375,-0.16162109375,0.640625
2023-07-29T20:34:44.960276,0.9975873231887817,-0.01409069076180458,0.060297928750514984,-0.031387340277433395,-0.81201171875,-0.1337890625,0.625
2023-07-29T20:34:44.960276,0.9972119331359863,-0.011584685184061527,0.06622364372015,-0.03238103538751602,-0.81201171875,-0.1337890625,0.625
2023-07-29T20:34:44.961253,0.9972119331359863,-0.011584685184061527,0.06622364372015,-0.03238103538751602,-0.80419921875,-0.14306640625,0.58642578125
2023-07-29T20:34:44.962330,0.9968062043190002,-0.008155561983585358,0.07194483280181885,-0.03368602693080902,-0.80419921875,-0.14306640625,0.58642578125
2023-07-29T20:34:44.966048,0.9968062043190002,-0.008155561983585358,0.07194483280181885,-0.03368602693080902,-0.79345703125,-0.17041015625,0.52392578125
2023-07-29T20:34:44.973054,0.9963837265968323,-0.004749340936541557,0.07733924686908722,-0.03486468270421028,-0.79345703125,-0.17041015625,0.52392578125
2023-07-29T20:34:44.981033,0.9963837265968323,-0.004749340936541557,0.07733924686908722,-0.03486468270421028,-0.79541015625,-0.19091796875,0.48828125
2023-07-29T20:34:44.982367,0.9959549307823181,-0.0012499679578468204,0.08236081898212433,-0.035900652408599854,-0.79541015625,-0.19091796875,0.48828125
2023-07-29T20:34:44.987978,0.9959549307823181,-0.0012499679578468204,0.08236081898212433,-0.035900652408599854,-0.7978515625,-0.201171875,0.44921875
2023-07-29T20:34:44.989973,0.9955469369888306,0.0038533799815922976,0.08670282363891602,-0.03679962456226349,-0.7978515625,-0.201171875,0.44921875
2023-07-29T20:34:44.995989,0.9955469369888306,0.0038533799815922976,0.08670282363891602,-0.03679962456226349,-0.81005859375,-0.17236328125,0.4501953125
2023-07-29T20:34:45.003182,0.9951325058937073,0.009980149567127228,0.09054157137870789,-0.03760264441370964,-0.81005859375,-0.17236328125,0.4501953125
2023-07-29T20:34:45.018016,0.9951325058937073,0.009980149567127228,0.09054157137870789,-0.03760264441370964,-0.82958984375,-0.12548828125,0.47900390625
2023-07-29T20:34:45.026012,0.9946948289871216,0.01734798587858677,0.09378188848495483,-0.038551896810531616,-0.82958984375,-0.12548828125,0.47900390625
2023-07-29T20:34:45.027009,0.9946948289871216,0.01734798587858677,0.09378188848495483,-0.038551896810531616,-0.84326171875,-0.1005859375,0.5341796875
2023-07-29T20:34:45.033558,0.9941777586936951,0.025235040113329887,0.09685363620519638,-0.03991508111357689,-0.84326171875,-0.1005859375,0.5341796875
2023-07-29T20:34:45.035562,0.9941777586936951,0.025235040113329887,0.09685363620519638,-0.03991508111357689,-0.8544921875,-0.1181640625,0.58984375
2023-07-29T20:34:45.036558,0.9935613870620728,0.03342296555638313,0.10005811601877213,-0.04131610319018364,-0.8544921875,-0.1181640625,0.58984375
2023-07-29T20:34:45.050066,0.9935613870620728,0.03342296555638313,0.10005811601877213,-0.04131610319018364,-0.85009765625,-0.08837890625,0.5771484375
2023-07-29T20:34:45.056218,0.9928018450737,0.04232349991798401,0.10333435982465744,-0.04330362007021904,-0.85009765625,-0.08837890625,0.5771484375
2023-07-29T20:34:45.056218,0.9928018450737,0.04232349991798401,0.10333435982465744,-0.04330362007021904,-0.84521484375,-0.08642578125,0.5498046875
2023-07-29T20:34:45.063263,0.9919449090957642,0.050984784960746765,0.10663178563117981,-0.045556966215372086,-0.84521484375,-0.08642578125,0.5498046875
2023-07-29T20:34:45.064261,0.9919449090957642,0.050984784960746765,0.10663178563117981,-0.045556966215372086,-0.84228515625,-0.1064453125,0.52197265625
2023-07-29T20:34:45.064261,0.9909852743148804,0.05903630703687668,0.11020734906196594,-0.04813668876886368,-0.84228515625,-0.1064453125,0.52197265625
2023-07-29T20:34:45.079473,0.9909852743148804,0.05903630703687668,0.11020734906196594,-0.04813668876886368,-0.84716796875,-0.15185546875,0.462890625
2023-07-29T20:34:45.080470,0.9900149703025818,0.06580693274736404,0.11396012455224991,-0.050526998937129974,-0.84716796875,-0.15185546875,0.462890625
2023-07-29T20:34:45.080470,0.9900149703025818,0.06580693274736404,0.11396012455224991,-0.050526998937129974,-0.85107421875,-0.18310546875,0.39990234375
2023-07-29T20:34:45.087063,0.989037036895752,0.07218176126480103,0.11754808574914932,-0.05270560085773468,-0.85107421875,-0.18310546875,0.39990234375
2023-07-29T20:34:45.088059,0.989037036895752,0.07218176126480103,0.11754808574914932,-0.05270560085773468,-0.85693359375,-0.18896484375,0.341796875
2023-07-29T20:34:45.088059,0.9880697131156921,0.07831642776727676,0.12078290432691574,-0.05473831295967102,-0.85693359375,-0.18896484375,0.341796875
2023-07-29T20:34:45.102153,0.9880697131156921,0.07831642776727676,0.12078290432691574,-0.05473831295967102,-0.8662109375,-0.15478515625,0.306640625
2023-07-29T20:34:45.109832,0.987214982509613,0.08300968259572983,0.12370497733354568,-0.0566844679415226,-0.8662109375,-0.15478515625,0.306640625
2023-07-29T20:34:45.111338,0.987214982509613,0.08300968259572983,0.12370497733354568,-0.0566844679415226,-0.86474609375,-0.16064453125,0.27490234375
2023-07-29T20:34:45.111338,0.9864280223846436,0.0873289704322815,0.12608979642391205,-0.05860617011785507,-0.86474609375,-0.16064453125,0.27490234375
2023-07-29T20:34:45.115847,0.9864280223846436,0.0873289704322815,0.12608979642391205,-0.05860617011785507,-0.86767578125,-0.146484375,0.25927734375
2023-07-29T20:34:45.116845,0.9857354760169983,0.0911955013871193,0.12790703773498535,-0.06040490046143532,-0.86767578125,-0.146484375,0.25927734375
2023-07-29T20:34:45.131337,0.9857354760169983,0.0911955013871193,0.12790703773498535,-0.06040490046143532,-0.87451171875,-0.119140625,0.28515625
2023-07-29T20:34:45.131337,0.9851285815238953,0.09452057629823685,0.12919452786445618,-0.06242002546787262,-0.87451171875,-0.119140625,0.28515625
2023-07-29T20:34:45.146649,0.9851285815238953,0.09452057629823685,0.12919452786445618,-0.06242002546787262,-0.88818359375,-0.16943359375,0.333984375
2023-07-29T20:34:45.147646,0.9845646023750305,0.09756477922201157,0.1303800642490387,-0.06414584815502167,-0.88818359375,-0.16943359375,0.333984375
2023-07-29T20:34:45.147646,0.9845646023750305,0.09756477922201157,0.1303800642490387,-0.06414584815502167,-0.89990234375,-0.20361328125,0.3076171875
2023-07-29T20:34:45.153650,0.9840721487998962,0.10045597702264786,0.1311967670917511,-0.0655597597360611,-0.89990234375,-0.20361328125,0.3076171875
2023-07-29T20:34:45.168149,0.9840721487998962,0.10045597702264786,0.1311967670917511,-0.0655597597360611,-0.90625,-0.22705078125,0.26708984375
2023-07-29T20:34:45.169145,0.9836910367012024,0.1029960885643959,0.13158594071865082,-0.06655003130435944,-0.90625,-0.22705078125,0.26708984375
2023-07-29T20:34:45.170147,0.9836910367012024,0.1029960885643959,0.13158594071865082,-0.06655003130435944,-0.9140625,-0.2724609375,0.2822265625
2023-07-29T20:34:45.176302,0.9833403825759888,0.10623922199010849,0.1315542608499527,-0.06669590622186661,-0.9140625,-0.2724609375,0.2822265625
2023-07-29T20:34:45.183354,0.9833403825759888,0.10623922199010849,0.1315542608499527,-0.06669590622186661,-0.92138671875,-0.2177734375,0.27880859375
2023-07-29T20:34:45.184353,0.9829868674278259,0.1100534126162529,0.13104303181171417,-0.06672891974449158,-0.92138671875,-0.2177734375,0.27880859375
2023-07-29T20:34:45.190337,0.9829868674278259,0.1100534126162529,0.13104303181171417,-0.06672891974449158,-0.92138671875,-0.18896484375,0.23779296875
2023-07-29T20:34:45.191335,0.982703685760498,0.11386968195438385,0.12993551790714264,-0.06666239351034164,-0.92138671875,-0.18896484375,0.23779296875
2023-07-29T20:34:45.198413,0.982703685760498,0.11386968195438385,0.12993551790714264,-0.06666239351034164,-0.91259765625,-0.1875,0.25
2023-07-29T20:34:45.199410,0.9825325012207031,0.11708924174308777,0.1285705715417862,-0.06625443696975708,-0.91259765625,-0.1875,0.25
2023-07-29T20:34:45.205501,0.9825325012207031,0.11708924174308777,0.1285705715417862,-0.06625443696975708,-0.9111328125,-0.15478515625,0.2685546875
2023-07-29T20:34:45.206498,0.9824668765068054,0.11961290240287781,0.12703768908977509,-0.06567326933145523,-0.9111328125,-0.15478515625,0.2685546875
2023-07-29T20:34:45.221482,0.9824668765068054,0.11961290240287781,0.12703768908977509,-0.06567326933145523,-0.9169921875,-0.14453125,0.3115234375
2023-07-29T20:34:45.221991,0.9826360940933228,0.1200113520026207,0.1258956491947174,-0.06460539251565933,-0.9169921875,-0.14453125,0.3115234375
2023-07-29T20:34:45.229071,0.9826360940933228,0.1200113520026207,0.1258956491947174,-0.06460539251565933,-0.927734375,-0.1435546875,0.3115234375
2023-07-29T20:34:45.229071,0.9829328060150146,0.11928129196166992,0.12494150549173355,-0.06328195333480835,-0.927734375,-0.1435546875,0.3115234375
2023-07-29T20:34:45.238118,0.9829328060150146,0.11928129196166992,0.12494150549173355,-0.06328195333480835,-0.9287109375,-0.1513671875,0.27001953125
2023-07-29T20:34:45.238118,0.9832122325897217,0.11891061812639236,0.12382664531469345,-0.06181374192237854,-0.9287109375,-0.1513671875,0.27001953125
2023-07-29T20:34:45.259187,0.9832122325897217,0.11891061812639236,0.12382664531469345,-0.06181374192237854,-0.923828125,-0.12353515625,0.24267578125
2023-07-29T20:34:45.260185,0.9836279153823853,0.11746476590633392,0.12265931069850922,-0.06027321517467499,-0.923828125,-0.12353515625,0.24267578125
2023-07-29T20:34:45.262187,0.9836279153823853,0.11746476590633392,0.12265931069850922,-0.06027321517467499,-0.91259765625,-0.13427734375,0.23681640625
2023-07-29T20:34:45.266184,0.9841485619544983,0.11519917100667953,0.12140319496393204,-0.05866891145706177,-0.91259765625,-0.13427734375,0.23681640625
2023-07-29T20:34:45.288013,0.9841485619544983,0.11519917100667953,0.12140319496393204,-0.05866891145706177,-0.9140625,-0.19970703125,0.17529296875
2023-07-29T20:34:45.288013,0.9847200512886047,0.11330072581768036,0.11943546682596207,-0.05678440257906914,-0.9140625,-0.19970703125,0.17529296875
2023-07-29T20:34:45.289010,0.9847200512886047,0.11330072581768036,0.11943546682596207,-0.05678440257906914,-0.90234375,-0.2138671875,0.06982421875
2023-07-29T20:34:45.292010,0.9851117134094238,0.11414594203233719,0.1160421371459961,-0.05531683936715126,-0.90234375,-0.2138671875,0.06982421875
2023-07-29T20:34:45.293254,0.9851117134094238,0.11414594203233719,0.1160421371459961,-0.05531683936715126,-0.88134765625,-0.1953125,0.05078125
2023-07-29T20:34:45.294258,0.9857318997383118,0.11418983340263367,0.11153888702392578,-0.053407661616802216,-0.88134765625,-0.1953125,0.05078125
2023-07-29T20:34:45.296245,0.9857318997383118,0.11418983340263367,0.11153888702392578,-0.053407661616802216,-0.8681640625,-0.14892578125,0.11474609375
2023-07-29T20:34:45.308393,0.9865560531616211,0.11292525380849838,0.10642347484827042,-0.051274653524160385,-0.8681640625,-0.14892578125,0.11474609375
2023-07-29T20:34:45.308393,0.9865560531616211,0.11292525380849838,0.10642347484827042,-0.051274653524160385,-0.85302734375,-0.09423828125,0.14599609375
2023-07-29T20:34:45.309406,0.9873830676078796,0.11191638559103012,0.10055392980575562,-0.0493784174323082,-0.85302734375,-0.09423828125,0.14599609375
2023-07-29T20:34:45.321117,0.9873830676078796,0.11191638559103012,0.10055392980575562,-0.0493784174323082,-0.8388671875,-0.072265625,0.166015625
2023-07-29T20:34:45.321117,0.9882517457008362,0.11071698367595673,0.09393094480037689,-0.047720856964588165,-0.8388671875,-0.072265625,0.166015625
2023-07-29T20:34:45.327060,0.9882517457008362,0.11071698367595673,0.09393094480037689,-0.047720856964588165,-0.83544921875,-0.068359375,0.2529296875
2023-07-29T20:34:45.327060,0.9893086552619934,0.1075403168797493,0.08730293065309525,-0.04562405124306679,-0.83544921875,-0.068359375,0.2529296875
2023-07-29T20:34:45.333389,0.9893086552619934,0.1075403168797493,0.08730293065309525,-0.04562405124306679,-0.83642578125,-0.0009765625,0.28857421875
2023-07-29T20:34:45.333389,0.9904311895370483,0.10308846086263657,0.08057224750518799,-0.043897103518247604,-0.83642578125,-0.0009765625,0.28857421875
2023-07-29T20:34:45.348471,0.9904311895370483,0.10308846086263657,0.08057224750518799,-0.043897103518247604,-0.83740234375,-0.009765625,0.2978515625
2023-07-29T20:34:45.349469,0.9914416670799255,0.0990854874253273,0.07333198934793472,-0.04298775643110275,-0.83740234375,-0.009765625,0.2978515625
2023-07-29T20:34:45.356192,0.9914416670799255,0.0990854874253273,0.07333198934793472,-0.04298775643110275,-0.8037109375,-0.11181640625,0.2900390625
2023-07-29T20:34:45.356192,0.9922495484352112,0.09674830734729767,0.06573837995529175,-0.04194182902574539,-0.8037109375,-0.11181640625,0.2900390625
2023-07-29T20:34:45.363332,0.9922495484352112,0.09674830734729767,0.06573837995529175,-0.04194182902574539,-0.77685546875,-0.1025390625,0.23291015625
2023-07-29T20:34:45.364329,0.9930709004402161,0.09411247074604034,0.0575246661901474,-0.040544621646404266,-0.77685546875,-0.1025390625,0.23291015625
2023-07-29T20:34:45.378311,0.9930709004402161,0.09411247074604034,0.0575246661901474,-0.040544621646404266,-0.740234375,-0.02197265625,0.24072265625
2023-07-29T20:34:45.378311,0.9939751029014587,0.09005487710237503,0.04860042408108711,-0.03926299884915352,-0.740234375,-0.02197265625,0.24072265625
2023-07-29T20:34:45.385415,0.9939751029014587,0.09005487710237503,0.04860042408108711,-0.03926299884915352,-0.71435546875,0.03076171875,0.32421875
2023-07-29T20:34:45.386414,0.9951198101043701,0.08166705071926117,0.04009627178311348,-0.03820181265473366,-0.71435546875,0.03076171875,0.32421875
2023-07-29T20:34:45.393625,0.9951198101043701,0.08166705071926117,0.04009627178311348,-0.03820181265473366,-0.7041015625,0.03515625,0.3134765625
2023-07-29T20:34:45.394626,0.9963108897209167,0.07037600874900818,0.03125971928238869,-0.03787553682923317,-0.7041015625,0.03515625,0.3134765625
2023-07-29T20:34:45.409700,0.9963108897209167,0.07037600874900818,0.03125971928238869,-0.03787553682923317,-0.68310546875,-0.11572265625,0.359375
2023-07-29T20:34:45.409700,0.997114360332489,0.06210505589842796,0.022159963846206665,-0.03761531040072441,-0.68310546875,-0.11572265625,0.359375
2023-07-29T20:34:45.415274,0.997114360332489,0.06210505589842796,0.022159963846206665,-0.03761531040072441,-0.65673828125,-0.23583984375,0.4375
2023-07-29T20:34:45.416271,0.9977301359176636,0.055195167660713196,0.012707862071692944,-0.03642316162586212,-0.65673828125,-0.23583984375,0.4375
2023-07-29T20:34:45.423421,0.9977301359176636,0.055195167660713196,0.012707862071692944,-0.03642316162586212,-0.65478515625,-0.17578125,0.51318359375
2023-07-29T20:34:45.423968,0.9983590841293335,0.04527681693434715,0.003387328702956438,-0.03489416837692261,-0.65478515625,-0.17578125,0.51318359375
2023-07-29T20:34:45.437964,0.9983590841293335,0.04527681693434715,0.003387328702956438,-0.03489416837692261,-0.63818359375,-0.177734375,0.7119140625
2023-07-29T20:34:45.438961,0.9989060163497925,0.032668739557266235,-0.005603403318673372,-0.032985080033540726,-0.63818359375,-0.177734375,0.7119140625
2023-07-29T20:34:45.445974,0.9989060163497925,0.032668739557266235,-0.005603403318673372,-0.032985080033540726,-0.64013671875,-0.2265625,1.00927734375
2023-07-29T20:34:45.445974,0.9992002844810486,0.021640289574861526,-0.013815890066325665,-0.03065391443669796,-0.64013671875,-0.2265625,1.00927734375
2023-07-29T20:34:45.453505,0.9992002844810486,0.021640289574861526,-0.013815890066325665,-0.03065391443669796,-0.66650390625,-0.1953125,1.24560546875
2023-07-29T20:34:45.453505,0.9993392825126648,0.010893926955759525,-0.020467238500714302,-0.02799053117632866,-0.66650390625,-0.1953125,1.24560546875
2023-07-29T20:34:45.468491,0.9993392825126648,0.010893926955759525,-0.020467238500714302,-0.02799053117632866,-0.6953125,-0.1083984375,1.333984375
2023-07-29T20:34:45.468491,0.9993374347686768,-0.0019014602294191718,-0.025762420147657394,-0.025640185922384262,-0.6953125,-0.1083984375,1.333984375
2023-07-29T20:34:45.476184,0.9993374347686768,-0.0019014602294191718,-0.025762420147657394,-0.025640185922384262,-0.7275390625,-0.12255859375,1.41455078125
2023-07-29T20:34:45.476184,0.9991871118545532,-0.01322141382843256,-0.02964673563838005,-0.023904765024781227,-0.7275390625,-0.12255859375,1.41455078125
2023-07-29T20:34:45.483175,0.9991871118545532,-0.01322141382843256,-0.02964673563838005,-0.023904765024781227,-0.74755859375,-0.19921875,1.50634765625
2023-07-29T20:34:45.484173,0.9989696145057678,-0.023223934695124626,-0.032190389931201935,-0.022003820165991783,-0.74755859375,-0.19921875,1.50634765625
2023-07-29T20:34:45.498255,0.9989696145057678,-0.023223934695124626,-0.032190389931201935,-0.022003820165991783,-0.74072265625,-0.2138671875,1.51025390625
2023-07-29T20:34:45.499253,0.9987233281135559,-0.03209657222032547,-0.03330689296126366,-0.020303599536418915,-0.74072265625,-0.2138671875,1.51025390625
2023-07-29T20:34:45.505255,0.9987233281135559,-0.03209657222032547,-0.03330689296126366,-0.020303599536418915,-0.71826171875,-0.22998046875,1.44140625
2023-07-29T20:34:45.506253,0.998420238494873,-0.0413571298122406,-0.03322487324476242,-0.018511394038796425,-0.71826171875,-0.22998046875,1.44140625
2023-07-29T20:34:45.513241,0.998420238494873,-0.0413571298122406,-0.03322487324476242,-0.018511394038796425,-0.67919921875,-0.22900390625,1.2998046875
2023-07-29T20:34:45.513241,0.998096764087677,-0.049522146582603455,-0.032710082828998566,-0.016742432489991188,-0.67919921875,-0.22900390625,1.2998046875
2023-07-29T20:34:45.528219,0.998096764087677,-0.049522146582603455,-0.032710082828998566,-0.016742432489991188,-0.64013671875,-0.21630859375,1.1533203125
2023-07-29T20:34:45.529216,0.9978250861167908,-0.05539924278855324,-0.03242593631148338,-0.014988081529736519,-0.64013671875,-0.21630859375,1.1533203125
2023-07-29T20:34:45.535222,0.9978250861167908,-0.05539924278855324,-0.03242593631148338,-0.014988081529736519,-0.61279296875,-0.216796875,1.11572265625
2023-07-29T20:34:45.543421,0.9976257085800171,-0.059400614351034164,-0.03225914388895035,-0.013183153234422207,-0.61279296875,-0.216796875,1.11572265625
2023-07-29T20:34:45.544213,0.9976257085800171,-0.059400614351034164,-0.03225914388895035,-0.013183153234422207,-0.59716796875,-0.19677734375,1.09228515625
2023-07-29T20:34:45.544213,0.9975454211235046,-0.06119812652468681,-0.03211669251322746,-0.011233207769691944,-0.59716796875,-0.19677734375,1.09228515625
2023-07-29T20:34:45.551196,0.9975454211235046,-0.06119812652468681,-0.03211669251322746,-0.011233207769691944,-0.58935546875,-0.11474609375,1.0849609375
2023-07-29T20:34:45.558412,0.997434675693512,-0.06346959620714188,-0.03166790306568146,-0.009638844057917595,-0.58935546875,-0.11474609375,1.0849609375
2023-07-29T20:34:45.565941,0.997434675693512,-0.06346959620714188,-0.03166790306568146,-0.009638844057917595,-0.58837890625,-0.11181640625,1.1240234375
2023-07-29T20:34:45.565941,0.9973546862602234,-0.06538981199264526,-0.03061670809984207,-0.008388160727918148,-0.58837890625,-0.11181640625,1.1240234375
2023-07-29T20:34:45.572968,0.9973546862602234,-0.06538981199264526,-0.03061670809984207,-0.008388160727918148,-0.60009765625,-0.12890625,1.12353515625
2023-07-29T20:34:45.573964,0.9974430799484253,-0.06488903611898422,-0.029088323935866356,-0.007106840144842863,-0.60009765625,-0.12890625,1.12353515625
2023-07-29T20:34:45.579948,0.9974430799484253,-0.06488903611898422,-0.029088323935866356,-0.007106840144842863,-0.607421875,-0.04638671875,1.01171875
2023-07-29T20:34:45.581454,0.9975771903991699,-0.06356380134820938,-0.02747451141476631,-0.006672808900475502,-0.607421875,-0.04638671875,1.01171875
2023-07-29T20:34:45.596168,0.9975771903991699,-0.06356380134820938,-0.02747451141476631,-0.006672808900475502,-0.61474609375,-0.0625,0.923828125
2023-07-29T20:34:45.596168,0.9976747035980225,-0.06267336755990982,-0.02589045837521553,-0.006850122474133968,-0.61474609375,-0.0625,0.923828125
2023-07-29T20:34:45.603395,0.9976747035980225,-0.06267336755990982,-0.02589045837521553,-0.006850122474133968,-0.6279296875,-0.13330078125,0.90869140625
2023-07-29T20:34:45.603395,0.9977735877037048,-0.06173775717616081,-0.02420159988105297,-0.007117271423339844,-0.6279296875,-0.13330078125,0.90869140625
2023-07-29T20:34:45.610885,0.9977735877037048,-0.06173775717616081,-0.02420159988105297,-0.007117271423339844,-0.6435546875,-0.1669921875,0.92333984375
2023-07-29T20:34:45.611399,0.997984766960144,-0.0588780976831913,-0.022476354613900185,-0.007383005227893591,-0.6435546875,-0.1669921875,0.92333984375
2023-07-29T20:34:45.626112,0.997984766960144,-0.0588780976831913,-0.022476354613900185,-0.007383005227893591,-0.66064453125,-0.150390625,0.9189453125
2023-07-29T20:34:45.626112,0.9982241988182068,-0.05533327907323837,-0.020596174523234367,-0.007906889542937279,-0.66064453125,-0.150390625,0.9189453125
2023-07-29T20:34:45.633386,0.9982241988182068,-0.05533327907323837,-0.020596174523234367,-0.007906889542937279,-0.67236328125,-0.1689453125,0.89990234375
2023-07-29T20:34:45.633386,0.9984176158905029,-0.05244379863142967,-0.018383236601948738,-0.008593681268393993,-0.67236328125,-0.1689453125,0.89990234375
2023-07-29T20:34:45.640369,0.9984176158905029,-0.05244379863142967,-0.018383236601948738,-0.008593681268393993,-0.6884765625,-0.21728515625,0.8779296875
2023-07-29T20:34:45.641366,0.9986119866371155,-0.04945708066225052,-0.015757421031594276,-0.008931340649724007,-0.6884765625,-0.21728515625,0.8779296875
2023-07-29T20:34:45.655274,0.9986119866371155,-0.04945708066225052,-0.015757421031594276,-0.008931340649724007,-0.693359375,-0.1923828125,0.83935546875
2023-07-29T20:34:45.656272,0.9987995028495789,-0.046341925859451294,-0.012904624454677105,-0.009241257794201374,-0.693359375,-0.1923828125,0.83935546875
2023-07-29T20:34:45.662992,0.9987995028495789,-0.046341925859451294,-0.012904624454677105,-0.009241257794201374,-0.69677734375,-0.16162109375,0.80859375
2023-07-29T20:34:45.663990,0.9989578127861023,-0.04351642727851868,-0.009791377000510693,-0.009682669304311275,-0.69677734375,-0.16162109375,0.80859375
2023-07-29T20:34:45.669973,0.9989578127861023,-0.04351642727851868,-0.009791377000510693,-0.009682669304311275,-0.7021484375,-0.1796875,0.7744140625
2023-07-29T20:34:45.671480,0.99908846616745,-0.04100031033158302,-0.00648335600271821,-0.009961450472474098,-0.7021484375,-0.1796875,0.7744140625
2023-07-29T20:34:45.685553,0.99908846616745,-0.04100031033158302,-0.00648335600271821,-0.009961450472474098,-0.697265625,-0.166015625,0.73291015625
2023-07-29T20:34:45.686550,0.9991793632507324,-0.03906707093119621,-0.0031369896605610847,-0.010224117897450924,-0.697265625,-0.166015625,0.73291015625
2023-07-29T20:34:45.693432,0.9991793632507324,-0.03906707093119621,-0.0031369896605610847,-0.010224117897450924,-0.70263671875,-0.14404296875,0.740234375
2023-07-29T20:34:45.693432,0.9992525577545166,-0.03724358603358269,0.0002684934006538242,-0.010352293960750103,-0.70263671875,-0.14404296875,0.740234375
2023-07-29T20:34:45.700412,0.9992525577545166,-0.03724358603358269,0.0002684934006538242,-0.010352293960750103,-0.71923828125,-0.10693359375,0.814453125
2023-07-29T20:34:45.701409,0.9993177056312561,-0.03511343151330948,0.003919811919331551,-0.010761482641100883,-0.71923828125,-0.10693359375,0.814453125
2023-07-29T20:34:45.715215,0.9993177056312561,-0.03511343151330948,0.003919811919331551,-0.010761482641100883,-0.7412109375,-0.08984375,0.89013671875
2023-07-29T20:34:45.716214,0.9993745684623718,-0.032456595450639725,0.008009744808077812,-0.011527218855917454,-0.7412109375,-0.08984375,0.89013671875
2023-07-29T20:34:45.723908,0.9993745684623718,-0.032456595450639725,0.008009744808077812,-0.011527218855917454,-0.751953125,-0.1142578125,0.9384765625
2023-07-29T20:34:45.724209,0.9994008541107178,-0.029632199555635452,0.012905644252896309,-0.012383319437503815,-0.751953125,-0.1142578125,0.9384765625
2023-07-29T20:34:45.731192,0.9994008541107178,-0.029632199555635452,0.012905644252896309,-0.012383319437503815,-0.75341796875,-0.11181640625,0.888671875
2023-07-29T20:34:45.731192,0.9993857741355896,-0.026627754792571068,0.018404116854071617,-0.013427631929516792,-0.75341796875,-0.11181640625,0.888671875
2023-07-29T20:34:45.745333,0.9993857741355896,-0.026627754792571068,0.018404116854071617,-0.013427631929516792,-0.74462890625,-0.0849609375,0.7880859375
2023-07-29T20:34:45.746330,0.9993259906768799,-0.02339499071240425,0.024183612316846848,-0.014674302190542221,-0.74462890625,-0.0849609375,0.7880859375
2023-07-29T20:34:45.753444,0.9993259906768799,-0.02339499071240425,0.024183612316846848,-0.014674302190542221,-0.732421875,-0.07763671875,0.72314453125
2023-07-29T20:34:45.753444,0.9992251992225647,-0.01987520605325699,0.02980911359190941,-0.016290640458464622,-0.732421875,-0.07763671875,0.72314453125
2023-07-29T20:34:45.761425,0.9992251992225647,-0.01987520605325699,0.02980911359190941,-0.016290640458464622,-0.7275390625,-0.123046875,0.66015625
2023-07-29T20:34:45.761928,0.999078631401062,-0.0162469781935215,0.0354495532810688,-0.017920400947332382,-0.7275390625,-0.123046875,0.66015625
2023-07-29T20:34:45.776249,0.999078631401062,-0.0162469781935215,0.0354495532810688,-0.017920400947332382,-0.73974609375,-0.17822265625,0.5947265625
2023-07-29T20:34:45.776249,0.9988961815834045,-0.012614361010491848,0.04089916869997978,-0.01935018040239811,-0.73974609375,-0.17822265625,0.5947265625
2023-07-29T20:34:45.783246,0.9988961815834045,-0.012614361010491848,0.04089916869997978,-0.01935018040239811,-0.755859375,-0.2236328125,0.5380859375
2023-07-29T20:34:45.784245,0.9987077713012695,-0.008515965193510056,0.04578966274857521,-0.02033488266170025,-0.755859375,-0.2236328125,0.5380859375
2023-07-29T20:34:45.790231,0.9987077713012695,-0.008515965193510056,0.04578966274857521,-0.02033488266170025,-0.771484375,-0.21484375,0.5244140625
2023-07-29T20:34:45.791228,0.9985040426254272,-0.004841589834541082,0.0503072515130043,-0.02086448483169079,-0.771484375,-0.21484375,0.5244140625
2023-07-29T20:34:45.805474,0.9985040426254272,-0.004841589834541082,0.0503072515130043,-0.02086448483169079,-0.779296875,-0.1650390625,0.54150390625
2023-07-29T20:34:45.806472,0.9982831478118896,-0.0015661058714613318,0.054558902978897095,-0.021251097321510315,-0.779296875,-0.1650390625,0.54150390625
2023-07-29T20:34:45.813437,0.9982831478118896,-0.0015661058714613318,0.054558902978897095,-0.021251097321510315,-0.78515625,-0.12158203125,0.56494140625
2023-07-29T20:34:45.813437,0.9980442523956299,0.001530175912193954,0.05865003913640976,-0.021574556827545166,-0.78515625,-0.12158203125,0.56494140625
2023-07-29T20:34:45.821416,0.9980442523956299,0.001530175912193954,0.05865003913640976,-0.021574556827545166,-0.7890625,-0.05908203125,0.56591796875
2023-07-29T20:34:45.821921,0.9977759718894958,0.004592907149344683,0.06266161799430847,-0.022259430959820747,-0.7890625,-0.05908203125,0.56591796875
2023-07-29T20:34:45.827914,0.9977759718894958,0.004592907149344683,0.06266161799430847,-0.022259430959820747,-0.78662109375,-0.0146484375,0.5673828125
2023-07-29T20:34:45.835989,0.997471809387207,0.007783788722008467,0.0666438415646553,-0.02341063693165779,-0.78662109375,-0.0146484375,0.5673828125
2023-07-29T20:34:45.843154,0.997471809387207,0.007783788722008467,0.0666438415646553,-0.02341063693165779,-0.79345703125,-0.0029296875,0.54833984375
2023-07-29T20:34:45.844171,0.9971169829368591,0.011998867616057396,0.07056137919425964,-0.025196589529514313,-0.79345703125,-0.0029296875,0.54833984375
2023-07-29T20:34:45.851150,0.9971169829368591,0.011998867616057396,0.07056137919425964,-0.025196589529514313,-0.8037109375,-0.0048828125,0.5078125
2023-07-29T20:34:45.851653,0.9967122077941895,0.017737308517098427,0.07401879131793976,-0.027773184701800346,-0.8037109375,-0.0048828125,0.5078125
2023-07-29T20:34:45.866147,0.9967122077941895,0.017737308517098427,0.07401879131793976,-0.027773184701800346,-0.82080078125,-0.05029296875,0.5146484375
2023-07-29T20:34:45.866147,0.9962530732154846,0.023070381954312325,0.0774746686220169,-0.030745938420295715,-0.82080078125,-0.05029296875,0.5146484375
2023-07-29T20:34:45.873330,0.9962530732154846,0.023070381954312325,0.0774746686220169,-0.030745938420295715,-0.8447265625,-0.11865234375,0.505859375
2023-07-29T20:34:45.873330,0.9957705140113831,0.027285732328891754,0.08104483038187027,-0.033591434359550476,-0.8447265625,-0.11865234375,0.505859375
2023-07-29T20:34:45.881307,0.9957705140113831,0.027285732328891754,0.08104483038187027,-0.033591434359550476,-0.84814453125,-0.1630859375,0.43017578125
2023-07-29T20:34:45.888239,0.9952835440635681,0.031217876821756363,0.08439179509878159,-0.03625069931149483,-0.84814453125,-0.1630859375,0.43017578125
2023-07-29T20:34:45.888239,0.9952835440635681,0.031217876821756363,0.08439179509878159,-0.03625069931149483,-0.8427734375,-0.1875,0.3408203125
2023-07-29T20:34:45.889236,0.994814395904541,0.03547222912311554,0.08705925941467285,-0.03881646692752838,-0.8427734375,-0.1875,0.3408203125
2023-07-29T20:34:45.910385,0.994814395904541,0.03547222912311554,0.08705925941467285,-0.03881646692752838,-0.84423828125,-0.2060546875,0.31298828125
2023-07-29T20:34:45.911382,0.9943806529045105,0.040020301938056946,0.08904656767845154,-0.0409415140748024,-0.84423828125,-0.2060546875,0.31298828125
2023-07-29T20:34:45.911886,0.9943806529045105,0.040020301938056946,0.08904656767845154,-0.0409415140748024,-0.845703125,-0.130859375,0.31787109375
2023-07-29T20:34:45.926131,0.9939233660697937,0.0458110012114048,0.0902089774608612,-0.04336028918623924,-0.845703125,-0.130859375,0.31787109375
2023-07-29T20:34:45.926131,0.9939233660697937,0.0458110012114048,0.0902089774608612,-0.04336028918623924,-0.8427734375,-0.05712890625,0.36474609375
2023-07-29T20:34:45.927129,0.9933856129646301,0.05295915529131889,0.09059649705886841,-0.0466102734208107,-0.8427734375,-0.05712890625,0.36474609375
2023-07-29T20:34:45.955114,0.9933856129646301,0.05295915529131889,0.09059649705886841,-0.0466102734208107,-0.85205078125,-0.05419921875,0.44873046875
2023-07-29T20:34:45.956111,0.9928034543991089,0.05950731411576271,0.09101861715316772,-0.050156623125076294,-0.85205078125,-0.05419921875,0.44873046875
2023-07-29T20:34:45.961603,0.9928034543991089,0.05950731411576271,0.09101861715316772,-0.050156623125076294,-0.8720703125,-0.052734375,0.53125
2023-07-29T20:34:45.964121,0.9923034310340881,0.06282725930213928,0.09212864935398102,-0.05384182557463646,-0.8720703125,-0.052734375,0.53125
2023-07-29T20:34:45.978207,0.9923034310340881,0.06282725930213928,0.09212864935398102,-0.05384182557463646,-0.8857421875,-0.1279296875,0.5966796875
2023-07-29T20:34:45.986345,0.9918273687362671,0.06412987411022186,0.09414734691381454,-0.0574638694524765,-0.8857421875,-0.1279296875,0.5966796875
2023-07-29T20:34:45.986345,0.9918273687362671,0.06412987411022186,0.09414734691381454,-0.0574638694524765,-0.900390625,-0.2919921875,0.58251953125
2023-07-29T20:34:45.987343,0.9912563562393188,0.06662029027938843,0.09669847041368484,-0.06018225476145744,-0.900390625,-0.2919921875,0.58251953125
2023-07-29T20:34:45.993341,0.9912563562393188,0.06662029027938843,0.09669847041368484,-0.06018225476145744,-0.91552734375,-0.2998046875,0.453125
2023-07-29T20:34:46.001322,0.9906608462333679,0.07001393288373947,0.09903028607368469,-0.06230638176202774,-0.91552734375,-0.2998046875,0.453125
2023-07-29T20:34:46.008322,0.9906608462333679,0.07001393288373947,0.09903028607368469,-0.06230638176202774,-0.916015625,-0.236328125,0.33056640625
2023-07-29T20:34:46.008322,0.9901612997055054,0.07291145622730255,0.10068738460540771,-0.06423792988061905,-0.916015625,-0.236328125,0.33056640625
2023-07-29T20:34:46.009321,0.9901612997055054,0.07291145622730255,0.10068738460540771,-0.06423792988061905,-0.90380859375,-0.21435546875,0.28759765625
2023-07-29T20:34:46.015324,0.9897093772888184,0.07612856477499008,0.10144650191068649,-0.06624429672956467,-0.90380859375,-0.21435546875,0.28759765625
2023-07-29T20:34:46.023315,0.9897093772888184,0.07612856477499008,0.10144650191068649,-0.06624429672956467,-0.8994140625,-0.1962890625,0.314453125
2023-07-29T20:34:46.024314,0.9892193675041199,0.08086028695106506,0.1011589765548706,-0.06836286932229996,-0.8994140625,-0.1962890625,0.314453125
2023-07-29T20:34:46.024314,0.9892193675041199,0.08086028695106506,0.1011589765548706,-0.06836286932229996,-0.88232421875,-0.17626953125,0.359375
2023-07-29T20:34:46.031298,0.9885854125022888,0.08700063079595566,0.1003863736987114,-0.07107996195554733,-0.88232421875,-0.17626953125,0.359375
2023-07-29T20:34:46.045261,0.9885854125022888,0.08700063079595566,0.1003863736987114,-0.07107996195554733,-0.8740234375,-0.19287109375,0.38818359375
2023-07-29T20:34:46.046258,0.9881079792976379,0.09140665084123611,0.09975767880678177,-0.07304621487855911,-0.8740234375,-0.19287109375,0.38818359375
2023-07-29T20:34:46.047256,0.9881079792976379,0.09140665084123611,0.09975767880678177,-0.07304621487855911,-0.87939453125,-0.12890625,0.39306640625
2023-07-29T20:34:46.053340,0.9877896308898926,0.09394578635692596,0.09920857101678848,-0.07485649734735489,-0.87939453125,-0.12890625,0.39306640625
2023-07-29T20:34:46.054340,0.9877896308898926,0.09394578635692596,0.09920857101678848,-0.07485649734735489,-0.8876953125,-0.0595703125,0.37890625
2023-07-29T20:34:46.060323,0.9875363707542419,0.09520701318979263,0.09836836904287338,-0.07766027003526688,-0.8876953125,-0.0595703125,0.37890625
2023-07-29T20:34:46.061321,0.9875363707542419,0.09520701318979263,0.09836836904287338,-0.07766027003526688,-0.896484375,-0.1513671875,0.4482421875
2023-07-29T20:34:46.062332,0.9872931241989136,0.09566931426525116,0.09774654358625412,-0.08090245723724365,-0.896484375,-0.1513671875,0.4482421875
2023-07-29T20:34:46.068379,0.9872931241989136,0.09566931426525116,0.09774654358625412,-0.08090245723724365,-0.90869140625,-0.30322265625,0.48876953125
2023-07-29T20:34:46.069377,0.9869768619537354,0.09741692990064621,0.09737398475408554,-0.08309558033943176,-0.90869140625,-0.30322265625,0.48876953125
2023-07-29T20:34:46.069377,0.9869768619537354,0.09741692990064621,0.09737398475408554,-0.08309558033943176,-0.91943359375,-0.265625,0.404296875
2023-07-29T20:34:46.076374,0.9867011904716492,0.09920735657215118,0.09697110950946808,-0.08470737934112549,-0.91943359375,-0.265625,0.404296875
2023-07-29T20:34:46.105439,0.9867011904716492,0.09920735657215118,0.09697110950946808,-0.08470737934112549,-0.9169921875,-0.2001953125,0.30419921875
2023-07-29T20:34:46.113929,0.9864779114723206,0.10094758868217468,0.09611377865076065,-0.0862150564789772,-0.9169921875,-0.2001953125,0.30419921875
2023-07-29T20:34:46.113929,0.9864779114723206,0.10094758868217468,0.09611377865076065,-0.0862150564789772,-0.90478515625,-0.17724609375,0.22705078125
2023-07-29T20:34:46.114926,0.9862788915634155,0.10302167385816574,0.09436240047216415,-0.08795559406280518,-0.90478515625,-0.17724609375,0.22705078125
2023-07-29T20:34:46.136125,0.9862788915634155,0.10302167385816574,0.09436240047216415,-0.08795559406280518,-0.88818359375,-0.21142578125,0.18505859375
2023-07-29T20:34:46.144127,0.9860367178916931,0.10632351785898209,0.09162481874227524,-0.0896192416548729,-0.88818359375,-0.21142578125,0.18505859375
2023-07-29T20:34:46.151108,0.9860367178916931,0.10632351785898209,0.09162481874227524,-0.0896192416548729,-0.88232421875,-0.22802734375,0.1611328125
2023-07-29T20:34:46.151108,0.9857204556465149,0.11113698035478592,0.0877588540315628,-0.09111656248569489,-0.88232421875,-0.22802734375,0.1611328125
2023-07-29T20:34:46.152146,0.9857204556465149,0.11113698035478592,0.0877588540315628,-0.09111656248569489,-0.87744140625,-0.2119140625,0.18701171875
2023-07-29T20:34:46.158378,0.985520601272583,0.11515897512435913,0.08335928618907928,-0.09240610152482986,-0.87744140625,-0.2119140625,0.18701171875
2023-07-29T20:34:46.166377,0.985520601272583,0.11515897512435913,0.08335928618907928,-0.09240610152482986,-0.87451171875,-0.24853515625,0.21728515625
2023-07-29T20:34:46.166377,0.9856076836585999,0.11721578240394592,0.07895787060260773,-0.09275539219379425,-0.87451171875,-0.24853515625,0.21728515625
2023-07-29T20:34:46.167375,0.9856076836585999,0.11721578240394592,0.07895787060260773,-0.09275539219379425,-0.86279296875,-0.24462890625,0.19873046875
2023-07-29T20:34:46.173548,0.9859029650688171,0.1180088147521019,0.07425148785114288,-0.09249856323003769,-0.86279296875,-0.24462890625,0.19873046875
2023-07-29T20:34:46.181046,0.9859029650688171,0.1180088147521019,0.07425148785114288,-0.09249856323003769,-0.83837890625,-0.21533203125,0.2001953125
2023-07-29T20:34:46.181046,0.9862906336784363,0.11830677092075348,0.06918035447597504,-0.0919150784611702,-0.83837890625,-0.21533203125,0.2001953125
2023-07-29T20:34:46.188535,0.9862906336784363,0.11830677092075348,0.06918035447597504,-0.0919150784611702,-0.8134765625,-0.19775390625,0.21044921875
2023-07-29T20:34:46.189532,0.9867563843727112,0.11838245391845703,0.063714899122715,-0.0907621905207634,-0.8134765625,-0.19775390625,0.21044921875
2023-07-29T20:34:46.195732,0.9867563843727112,0.11838245391845703,0.063714899122715,-0.0907621905207634,-0.79638671875,-0.1064453125,0.19384765625
2023-07-29T20:34:46.196730,0.9872733354568481,0.1180730015039444,0.05772050842642784,-0.08954593539237976,-0.79638671875,-0.1064453125,0.19384765625
2023-07-29T20:34:46.196730,0.9872733354568481,0.1180730015039444,0.05772050842642784,-0.08954593539237976,-0.77490234375,0.00048828125,0.14794921875
2023-07-29T20:34:46.203732,0.9876472353935242,0.11866267770528793,0.05059118568897247,-0.08895285427570343,-0.77490234375,0.00048828125,0.14794921875
2023-07-29T20:34:46.203732,0.9876472353935242,0.11866267770528793,0.05059118568897247,-0.08895285427570343,-0.748046875,0.091796875,0.07275390625
2023-07-29T20:34:46.204730,0.987849235534668,0.12003868818283081,0.041420258581638336,-0.08960410207509995,-0.748046875,0.091796875,0.07275390625
2023-07-29T20:34:46.211223,0.987849235534668,0.12003868818283081,0.041420258581638336,-0.08960410207509995,-0.73583984375,0.05419921875,0.1181640625
2023-07-29T20:34:46.211223,0.9887757301330566,0.11506248265504837,0.03112051822245121,-0.09008104354143143,-0.73583984375,0.05419921875,0.1181640625
2023-07-29T20:34:46.212223,0.9887757301330566,0.11506248265504837,0.03112051822245121,-0.09008104354143143,-0.72998046875,0.044921875,0.21337890625
2023-07-29T20:34:46.218927,0.9899354577064514,0.10462784022092819,0.021458955481648445,-0.09284558147192001,-0.72998046875,0.044921875,0.21337890625
2023-07-29T20:34:46.218927,0.9899354577064514,0.10462784022092819,0.021458955481648445,-0.09284558147192001,-0.677734375,-0.05029296875,0.134765625
2023-07-29T20:34:46.219924,0.9912848472595215,0.08953478187322617,0.010973362252116203,-0.09600728750228882,-0.677734375,-0.05029296875,0.134765625
2023-07-29T20:34:46.225948,0.9912848472595215,0.08953478187322617,0.010973362252116203,-0.09600728750228882,-0.61328125,-0.13232421875,0.0244140625
2023-07-29T20:34:46.226946,0.9922425150871277,0.07451509684324265,-0.001314331777393818,-0.09950163215398788,-0.61328125,-0.13232421875,0.0244140625
2023-07-29T20:34:46.239960,0.9922425150871277,0.07451509684324265,-0.001314331777393818,-0.09950163215398788,-0.52197265625,-0.01953125,-0.095703125
2023-07-29T20:34:46.241466,0.9923667311668396,0.06367168575525284,-0.01762569509446621,-0.10413186997175217,-0.52197265625,-0.01953125,-0.095703125
2023-07-29T20:34:46.248971,0.9923667311668396,0.06367168575525284,-0.01762569509446621,-0.10413186997175217,-0.4169921875,0.13916015625,-0.08203125
2023-07-29T20:34:46.248971,0.9916735291481018,0.05286630615592003,-0.037068795412778854,-0.11142164468765259,-0.4169921875,0.13916015625,-0.08203125
2023-07-29T20:34:46.255975,0.9916735291481018,0.05286630615592003,-0.037068795412778854,-0.11142164468765259,-0.33984375,0.12890625,0.06103515625
2023-07-29T20:34:46.255975,0.9901012778282166,0.039868611842393875,-0.059517186135053635,-0.1206967756152153,-0.33984375,0.12890625,0.06103515625
2023-07-29T20:34:46.271108,0.9901012778282166,0.039868611842393875,-0.059517186135053635,-0.1206967756152153,-0.28662109375,-0.0791015625,0.5107421875
2023-07-29T20:34:46.271108,0.987930417060852,0.01767825521528721,-0.07934647053480148,-0.1318526417016983,-0.28662109375,-0.0791015625,0.5107421875
2023-07-29T20:34:46.278108,0.987930417060852,0.01767825521528721,-0.07934647053480148,-0.1318526417016983,-0.29541015625,-0.48681640625,0.9345703125
2023-07-29T20:34:46.279107,0.9853619337081909,-0.011012774892151356,-0.09556738287210464,-0.14073918759822845,-0.29541015625,-0.48681640625,0.9345703125
2023-07-29T20:34:46.286102,0.9853619337081909,-0.011012774892151356,-0.09556738287210464,-0.14073918759822845,-0.27783203125,-0.39208984375,0.9990234375
2023-07-29T20:34:46.286102,0.9818627238273621,-0.036904968321323395,-0.11064568907022476,-0.14946965873241425,-0.27783203125,-0.39208984375,0.9990234375
2023-07-29T20:34:46.301076,0.9818627238273621,-0.036904968321323395,-0.11064568907022476,-0.14946965873241425,-0.19970703125,-0.13134765625,0.84326171875
2023-07-29T20:34:46.302109,0.9774791598320007,-0.054716672748327255,-0.12799254059791565,-0.15861393511295319,-0.19970703125,-0.13134765625,0.84326171875
2023-07-29T20:34:46.308655,0.9774791598320007,-0.054716672748327255,-0.12799254059791565,-0.15861393511295319,-0.08984375,0.19384765625,0.65625
2023-07-29T20:34:46.308655,0.9715655446052551,-0.06525485962629318,-0.1502034217119217,-0.17100027203559875,-0.08984375,0.19384765625,0.65625
2023-07-29T20:34:46.316173,0.9715655446052551,-0.06525485962629318,-0.1502034217119217,-0.17100027203559875,0.03662109375,0.14453125,0.77001953125
2023-07-29T20:34:46.316173,0.9636334180831909,-0.07570434361696243,-0.1754981279373169,-0.1867615282535553,0.03662109375,0.14453125,0.77001953125
2023-07-29T20:34:46.331397,0.9636334180831909,-0.07570434361696243,-0.1754981279373169,-0.1867615282535553,0.05517578125,-0.4775390625,1.51611328125
2023-07-29T20:34:46.331397,0.9540033936500549,-0.0968288704752922,-0.19594025611877441,-0.20520517230033875,0.05517578125,-0.4775390625,1.51611328125
2023-07-29T20:34:46.338048,0.9540033936500549,-0.0968288704752922,-0.19594025611877441,-0.20520517230033875,0.00390625,-1.1240234375,1.955078125
2023-07-29T20:34:46.339045,0.9448980093002319,-0.11857543885707855,-0.21058672666549683,-0.22081860899925232,0.00390625,-1.1240234375,1.955078125
2023-07-29T20:34:46.346040,0.9448980093002319,-0.11857543885707855,-0.21058672666549683,-0.22081860899925232,-0.00830078125,-1.2958984375,1.87158203125
2023-07-29T20:34:46.346040,0.9377719759941101,-0.13066719472408295,-0.22350387275218964,-0.23142139613628387,-0.00830078125,-1.2958984375,1.87158203125
2023-07-29T20:34:46.361014,0.9377719759941101,-0.13066719472408295,-0.22350387275218964,-0.23142139613628387,0.03466796875,-1.0927734375,1.52978515625
2023-07-29T20:34:46.361014,0.932577908039093,-0.1318928450345993,-0.23726986348628998,-0.2379196435213089,0.03466796875,-1.0927734375,1.52978515625
2023-07-29T20:34:46.368031,0.932577908039093,-0.1318928450345993,-0.23726986348628998,-0.2379196435213089,0.06103515625,-0.94873046875,1.44287109375
2023-07-29T20:34:46.369029,0.92807936668396,-0.13205750286579132,-0.24930982291698456,-0.243051677942276,0.06103515625,-0.94873046875,1.44287109375
2023-07-29T20:34:46.376106,0.92807936668396,-0.13205750286579132,-0.24930982291698456,-0.243051677942276,0.05078125,-1.0185546875,1.6552734375
2023-07-29T20:34:46.376106,0.9243887066841125,-0.13559085130691528,-0.2576335072517395,-0.24646629393100739,0.05078125,-1.0185546875,1.6552734375
2023-07-29T20:34:46.383102,0.9243887066841125,-0.13559085130691528,-0.2576335072517395,-0.24646629393100739,0.0751953125,-0.79052734375,1.69189453125
2023-07-29T20:34:46.398102,0.9212827086448669,-0.13855473697185516,-0.26413363218307495,-0.2495478093624115,0.0751953125,-0.79052734375,1.69189453125
2023-07-29T20:34:46.399101,0.9212827086448669,-0.13855473697185516,-0.26413363218307495,-0.2495478093624115,0.10400390625,-0.54248046875,1.57958984375
2023-07-29T20:34:46.399101,0.918491005897522,-0.13818639516830444,-0.2709260880947113,-0.2527405619621277,0.10400390625,-0.54248046875,1.57958984375
2023-07-29T20:34:46.405188,0.918491005897522,-0.13818639516830444,-0.2709260880947113,-0.2527405619621277,0.11572265625,-0.39306640625,1.46826171875
2023-07-29T20:34:46.406186,0.915280282497406,-0.13655537366867065,-0.27800408005714417,-0.25754299759864807,0.11572265625,-0.39306640625,1.46826171875
2023-07-29T20:34:46.413647,0.915280282497406,-0.13655537366867065,-0.27800408005714417,-0.25754299759864807,0.1181640625,-0.3955078125,1.42529296875
2023-07-29T20:34:46.421140,0.9111649990081787,-0.13511987030506134,-0.28523412346839905,-0.2648819386959076,0.1181640625,-0.3955078125,1.42529296875
2023-07-29T20:34:46.436274,0.9111649990081787,-0.13511987030506134,-0.28523412346839905,-0.2648819386959076,0.1220703125,-0.5927734375,1.47998046875
2023-07-29T20:34:46.436274,0.907724142074585,-0.12944290041923523,-0.29254427552223206,-0.27147579193115234,0.1220703125,-0.5927734375,1.47998046875
2023-07-29T20:34:46.437271,0.907724142074585,-0.12944290041923523,-0.29254427552223206,-0.27147579193115234,0.12841796875,-0.61181640625,1.48974609375
2023-07-29T20:34:46.443656,0.9047620296478271,-0.11993914097547531,-0.29972603917121887,-0.2778209149837494,0.12841796875,-0.61181640625,1.48974609375
2023-07-29T20:34:46.451149,0.9047620296478271,-0.11993914097547531,-0.29972603917121887,-0.2778209149837494,0.12841796875,-0.58056640625,1.39697265625
2023-07-29T20:34:46.451149,0.9016675353050232,-0.11032019555568695,-0.3059651553630829,-0.28497421741485596,0.12841796875,-0.58056640625,1.39697265625
2023-07-29T20:34:46.458189,0.9016675353050232,-0.11032019555568695,-0.3059651553630829,-0.28497421741485596,0.13671875,-0.56689453125,1.25146484375
2023-07-29T20:34:46.459187,0.8982437252998352,-0.10060278326272964,-0.3118652105331421,-0.29287782311439514,0.13671875,-0.56689453125,1.25146484375
2023-07-29T20:34:46.466252,0.8982437252998352,-0.10060278326272964,-0.3118652105331421,-0.29287782311439514,0.16455078125,-0.53564453125,1.12841796875
2023-07-29T20:34:46.466252,0.8941822052001953,-0.09048853069543839,-0.31821519136428833,-0.30164381861686707,0.16455078125,-0.53564453125,1.12841796875
2023-07-29T20:34:46.473375,0.8941822052001953,-0.09048853069543839,-0.31821519136428833,-0.30164381861686707,0.169921875,-0.609375,1.15380859375
2023-07-29T20:34:46.473375,0.88979172706604,-0.08266957849264145,-0.3230920732021332,-0.31152498722076416,0.169921875,-0.609375,1.15380859375
2023-07-29T20:34:46.488461,0.88979172706604,-0.08266957849264145,-0.3230920732021332,-0.31152498722076416,0.134765625,-0.84130859375,1.3369140625
2023-07-29T20:34:46.488461,0.8860179781913757,-0.0803702101111412,-0.32406434416770935,-0.3217063844203949,0.134765625,-0.84130859375,1.3369140625
2023-07-29T20:34:46.495493,0.8860179781913757,-0.0803702101111412,-0.32406434416770935,-0.3217063844203949,0.142578125,-0.9111328125,1.32421875
2023-07-29T20:34:46.496491,0.8834291100502014,-0.07898613065481186,-0.3232072591781616,-0.3299259543418884,0.142578125,-0.9111328125,1.32421875
2023-07-29T20:34:46.503066,0.8834291100502014,-0.07898613065481186,-0.3232072591781616,-0.3299259543418884,0.19189453125,-0.626953125,1.2216796875
2023-07-29T20:34:46.504061,0.8809155821800232,-0.07609816640615463,-0.3223702609539032,-0.3380447030067444,0.19189453125,-0.626953125,1.2216796875
2023-07-29T20:34:46.518309,0.8809155821800232,-0.07609816640615463,-0.3223702609539032,-0.3380447030067444,0.24169921875,-0.333984375,1.0830078125
2023-07-29T20:34:46.519306,0.8769397139549255,-0.07329799234867096,-0.321718692779541,-0.34942981600761414,0.24169921875,-0.333984375,1.0830078125
2023-07-29T20:34:46.526301,0.8769397139549255,-0.07329799234867096,-0.321718692779541,-0.34942981600761414,0.2490234375,-0.337890625,0.94189453125
2023-07-29T20:34:46.526301,0.8708650469779968,-0.07293109595775604,-0.3204733729362488,-0.3654750883579254,0.2490234375,-0.337890625,0.94189453125
2023-07-29T20:34:46.532300,0.8708650469779968,-0.07293109595775604,-0.3204733729362488,-0.3654750883579254,0.26806640625,-0.52294921875,0.7958984375
2023-07-29T20:34:46.533736,0.8632653951644897,-0.07518164068460464,-0.31851476430892944,-0.3842770457267761,0.26806640625,-0.52294921875,0.7958984375
2023-07-29T20:34:46.548631,0.8632653951644897,-0.07518164068460464,-0.31851476430892944,-0.3842770457267761,0.3203125,-0.62890625,0.71240234375
2023-07-29T20:34:46.548631,0.8554599285125732,-0.07421764731407166,-0.31812408566474915,-0.40184202790260315,0.3203125,-0.62890625,0.71240234375
2023-07-29T20:34:46.556146,0.8554599285125732,-0.07421764731407166,-0.31812408566474915,-0.40184202790260315,0.3447265625,-0.69677734375,0.7509765625
2023-07-29T20:34:46.556146,0.8480232357978821,-0.06759406626224518,-0.31916946172714233,-0.4176342487335205,0.3447265625,-0.69677734375,0.7509765625
2023-07-29T20:34:46.563288,0.8480232357978821,-0.06759406626224518,-0.31916946172714233,-0.4176342487335205,0.32177734375,-0.783203125,0.77587890625
2023-07-29T20:34:46.563288,0.8412435054779053,-0.05944961681962013,-0.3204871118068695,-0.431350439786911,0.32177734375,-0.783203125,0.77587890625
2023-07-29T20:34:46.578225,0.8412435054779053,-0.05944961681962013,-0.3204871118068695,-0.431350439786911,0.310546875,-0.70703125,0.79345703125
2023-07-29T20:34:46.579223,0.8341313600540161,-0.05127181485295296,-0.3227027952671051,-0.44436344504356384,0.310546875,-0.70703125,0.79345703125
2023-07-29T20:34:46.585977,0.8341313600540161,-0.05127181485295296,-0.3227027952671051,-0.44436344504356384,0.27978515625,-0.51416015625,0.8759765625
2023-07-29T20:34:46.585977,0.8262779116630554,-0.04493655636906624,-0.32442930340766907,-0.4582480490207672,0.27978515625,-0.51416015625,0.8759765625
2023-07-29T20:34:46.593250,0.8262779116630554,-0.04493655636906624,-0.32442930340766907,-0.4582480490207672,0.3037109375,-0.373046875,0.8427734375
2023-07-29T20:34:46.594247,0.8161589503288269,-0.03963683173060417,-0.3281535804271698,-0.473950058221817,0.3037109375,-0.373046875,0.8427734375
2023-07-29T20:34:46.608249,0.8161589503288269,-0.03963683173060417,-0.3281535804271698,-0.473950058221817,0.2060546875,-0.4482421875,1.02685546875
2023-07-29T20:34:46.609247,0.8056491613388062,-0.03856725990772247,-0.3280562460422516,-0.4917530119419098,0.2060546875,-0.4482421875,1.02685546875
2023-07-29T20:34:46.646209,0.8056491613388062,-0.03856725990772247,-0.3280562460422516,-0.4917530119419098,0.16455078125,-0.77392578125,1.1962890625
2023-07-29T20:34:46.668194,0.7976682186126709,-0.0422343835234642,-0.3211532235145569,-0.5087261199951172,0.16455078125,-0.77392578125,1.1962890625
2023-07-29T20:34:46.669191,0.7976682186126709,-0.0422343835234642,-0.3211532235145569,-0.5087261199951172,0.23046875,-0.94580078125,1.0595703125
2023-07-29T20:34:46.669191,0.7924755811691284,-0.04565802961587906,-0.3123937249183655,-0.521831214427948,0.23046875,-0.94580078125,1.0595703125
2023-07-29T20:34:46.675205,0.7924755811691284,-0.04565802961587906,-0.3123937249183655,-0.521831214427948,0.259765625,-0.75830078125,0.89697265625
2023-07-29T20:34:46.676203,0.7893553376197815,-0.041668523102998734,-0.3072158694267273,-0.5299059152603149,0.259765625,-0.75830078125,0.89697265625
2023-07-29T20:34:46.677200,0.7893553376197815,-0.041668523102998734,-0.3072158694267273,-0.5299059152603149,0.21484375,-0.4482421875,0.72509765625
2023-07-29T20:34:46.683418,0.7860355377197266,-0.03115915320813656,-0.3067878782749176,-0.5357783436775208,0.21484375,-0.4482421875,0.72509765625
2023-07-29T20:34:46.684197,0.7860355377197266,-0.03115915320813656,-0.3067878782749176,-0.5357783436775208,0.24755859375,-0.32373046875,0.49755859375
2023-07-29T20:34:46.684197,0.7804685235023499,-0.021451588720083237,-0.31146523356437683,-0.541662335395813,0.24755859375,-0.32373046875,0.49755859375
2023-07-29T20:34:46.698173,0.7804685235023499,-0.021451588720083237,-0.31146523356437683,-0.541662335395813,0.130859375,-0.2294921875,0.61572265625
2023-07-29T20:34:46.699171,0.7738676071166992,-0.017730461433529854,-0.31220993399620056,-0.5507626533508301,0.130859375,-0.2294921875,0.61572265625
2023-07-29T20:34:46.699171,0.7738676071166992,-0.017730461433529854,-0.31220993399620056,-0.5507626533508301,0.05615234375,-0.53662109375,0.8916015625
2023-07-29T20:34:46.706452,0.7673259377479553,-0.007265495136380196,-0.3158387839794159,-0.5580357909202576,0.05615234375,-0.53662109375,0.8916015625
2023-07-29T20:34:46.706452,0.7673259377479553,-0.007265495136380196,-0.3158387839794159,-0.5580357909202576,0.23828125,-1.8564453125,1.310546875
2023-07-29T20:34:46.707449,0.7743852138519287,0.017004530876874924,-0.328299880027771,-0.5406085252761841,0.23828125,-1.8564453125,1.310546875
2023-07-29T20:34:46.712948,0.7743852138519287,0.017004530876874924,-0.328299880027771,-0.5406085252761841,0.32958984375,-0.3349609375,1.1552734375
