Time,w,x,y,z,ax,ay,az
2023-07-29T20:36:16.895028,0.4753260016441345,0.30680474638938904,0.8099833726882935,0.15447629988193512,-0.833984375,-0.47802734375,-0.28466796875
2023-07-29T20:36:16.902037,0.4753260016441345,0.30680474638938904,0.8099833726882935,0.15447629988193512,-0.83154296875,-0.4580078125,-0.30859375
2023-07-29T20:36:16.902037,1.0,0.0,0.0001597496884642169,0.0001491419243393466,-0.83154296875,-0.4580078125,-0.30859375
2023-07-29T20:36:16.977382,1.0,0.0,0.0001597496884642169,0.0001491419243393466,-0.8349609375,-0.44677734375,-0.28369140625
2023-07-29T20:36:16.977382,0.9990510940551758,-0.0004074083408340812,-0.00031632979516871274,0.04355046525597572,-0.8349609375,-0.44677734375,-0.28369140625
2023-07-29T20:36:16.983604,0.9990510940551758,-0.0004074083408340812,-0.00031632979516871274,0.04355046525597572,-0.8349609375,-0.46044921875,-0.28955078125
2023-07-29T20:36:16.984616,0.9990411996841431,-0.0007459321641363204,-0.0006242754170671105,0.04376864805817604,-0.8349609375,-0.46044921875,-0.28955078125
2023-07-29T20:36:16.992108,0.9990411996841431,-0.0007459321641363204,-0.0006242754170671105,0.04376864805817604,-0.83447265625,-0.45654296875,-0.28857421875
2023-07-29T20:36:16.992108,0.9965673089027405,-0.0008643204346299171,-0.0009021924925036728,0.0827770084142685,-0.83447265625,-0.45654296875,-0.28857421875
2023-07-29T20:36:17.007451,0.9965673089027405,-0.0008643204346299171,-0.0009021924925036728,0.0827770084142685,-0.833984375,-0.4443359375,-0.28955078125
2023-07-29T20:36:17.007451,0.9965510368347168,-0.0007958983187563717,-0.0010284151649102569,0.0829712525010109,-0.833984375,-0.4443359375,-0.28955078125
2023-07-29T20:36:17.014082,0.9965510368347168,-0.0007958983187563717,-0.0010284151649102569,0.0829712525010109,-0.83154296875,-0.44873046875,-0.275390625
2023-07-29T20:36:17.014082,0.9965322613716125,-0.0006606275564990938,-0.0011331988498568535,0.08319702744483948,-0.83154296875,-0.44873046875,-0.275390625
2023-07-29T20:36:17.024386,0.9965322613716125,-0.0006606275564990938,-0.0011331988498568535,0.08319702744483948,-0.8369140625,-0.44775390625,-0.25830078125
2023-07-29T20:36:17.025383,0.9965111613273621,-0.000760576338507235,-0.0011413523461669683,0.08344869315624237,-0.8369140625,-0.44775390625,-0.25830078125
2023-07-29T20:36:17.036698,0.9965111613273621,-0.000760576338507235,-0.0011413523461669683,0.08344869315624237,-0.837890625,-0.439453125,-0.27392578125
2023-07-29T20:36:17.036698,0.993087649345398,-0.0009814579971134663,-0.0013027964159846306,0.11736379563808441,-0.837890625,-0.439453125,-0.27392578125
2023-07-29T20:36:17.044693,0.993087649345398,-0.0009814579971134663,-0.0013027964159846306,0.11736379563808441,-0.83837890625,-0.43359375,-0.28515625
2023-07-29T20:36:17.045691,0.9930528998374939,-0.0012996474979445338,-0.001573328161612153,0.1176510602235794,-0.83837890625,-0.43359375,-0.28515625
2023-07-29T20:36:17.055196,0.9930528998374939,-0.0012996474979445338,-0.001573328161612153,0.1176510602235794,-0.8408203125,-0.4296875,-0.27197265625
2023-07-29T20:36:17.056193,0.993019163608551,-0.0015065782936289907,-0.0017315635923296213,0.11793122440576553,-0.8408203125,-0.4296875,-0.27197265625
2023-07-29T20:36:17.067181,0.993019163608551,-0.0015065782936289907,-0.0017315635923296213,0.11793122440576553,-0.84912109375,-0.41796875,-0.28125
2023-07-29T20:36:17.067181,0.9930018782615662,-0.001621351926587522,-0.001882811775431037,0.11807231605052948,-0.84912109375,-0.41796875,-0.28125
2023-07-29T20:36:17.074176,0.9930018782615662,-0.001621351926587522,-0.001882811775431037,0.11807231605052948,-0.853515625,-0.408203125,-0.29443359375
2023-07-29T20:36:17.074176,0.9887976050376892,-0.0015314877964556217,-0.0021306865382939577,0.1492391675710678,-0.853515625,-0.408203125,-0.29443359375
2023-07-29T20:36:17.081157,0.9887976050376892,-0.0015314877964556217,-0.0021306865382939577,0.1492391675710678,-0.84326171875,-0.431640625,-0.2802734375
2023-07-29T20:36:17.082186,0.9887820482254028,-0.0015892434166744351,-0.002384132705628872,0.14933821558952332,-0.84326171875,-0.431640625,-0.2802734375
2023-07-29T20:36:17.096362,0.9887820482254028,-0.0015892434166744351,-0.002384132705628872,0.14933821558952332,-0.8349609375,-0.4560546875,-0.2724609375
2023-07-29T20:36:17.096362,0.9887475371360779,-0.001572282868437469,-0.0024996818974614143,0.14956487715244293,-0.8349609375,-0.4560546875,-0.2724609375
2023-07-29T20:36:17.104393,0.9887475371360779,-0.001572282868437469,-0.0024996818974614143,0.14956487715244293,-0.8408203125,-0.4580078125,-0.2734375
2023-07-29T20:36:17.104393,0.9886842370033264,-0.0017954567447304726,-0.0025849174708127975,0.14997808635234833,-0.8408203125,-0.4580078125,-0.2734375
2023-07-29T20:36:17.111877,0.9886842370033264,-0.0017954567447304726,-0.0025849174708127975,0.14997808635234833,-0.84423828125,-0.4541015625,-0.29296875
2023-07-29T20:36:17.119372,0.9839192628860474,-0.0020727715454995632,-0.0027988567017018795,0.1785803735256195,-0.84423828125,-0.4541015625,-0.29296875
2023-07-29T20:36:17.126485,0.9839192628860474,-0.0020727715454995632,-0.0027988567017018795,0.1785803735256195,-0.84521484375,-0.44873046875,-0.29736328125
2023-07-29T20:36:17.127483,0.9837966561317444,-0.0025096824392676353,-0.0029955513309687376,0.17924481630325317,-0.84521484375,-0.44873046875,-0.29736328125
2023-07-29T20:36:17.134395,0.9837966561317444,-0.0025096824392676353,-0.0029955513309687376,0.17924481630325317,-0.8515625,-0.4287109375,-0.28369140625
2023-07-29T20:36:17.135392,0.9836682677268982,-0.003045596182346344,-0.0031766865868121386,0.1799371987581253,-0.8515625,-0.4287109375,-0.28369140625
2023-07-29T20:36:17.142396,0.9836682677268982,-0.003045596182346344,-0.0031766865868121386,0.1799371987581253,-0.85888671875,-0.40771484375,-0.2861328125
2023-07-29T20:36:17.142396,0.983555793762207,-0.0036678374744951725,-0.0033525507897138596,0.18053586781024933,-0.85888671875,-0.40771484375,-0.2861328125
2023-07-29T20:36:17.151281,0.983555793762207,-0.0036678374744951725,-0.0033525507897138596,0.18053586781024933,-0.86279296875,-0.38916015625,-0.302734375
2023-07-29T20:36:17.172318,0.9786396026611328,-0.003970736172050238,-0.003674102248623967,0.20551207661628723,-0.86279296875,-0.38916015625,-0.302734375
2023-07-29T20:36:17.172318,0.9786396026611328,-0.003970736172050238,-0.003674102248623967,0.20551207661628723,-0.86181640625,-0.39111328125,-0.2978515625
2023-07-29T20:36:17.173414,0.9786123037338257,-0.004127427935600281,-0.00385166984051466,0.20563557744026184,-0.86181640625,-0.39111328125,-0.2978515625
2023-07-29T20:36:17.174416,0.9786123037338257,-0.004127427935600281,-0.00385166984051466,0.20563557744026184,-0.861328125,-0.39208984375,-0.31103515625
2023-07-29T20:36:17.175411,0.9786114692687988,-0.0040819584392011166,-0.0040680584497749805,0.20563648641109467,-0.861328125,-0.39208984375,-0.31103515625
2023-07-29T20:36:17.179401,0.9786114692687988,-0.0040819584392011166,-0.0040680584497749805,0.20563648641109467,-0.86181640625,-0.3984375,-0.31396484375
2023-07-29T20:36:17.179401,0.9786590933799744,-0.0038441354408860207,-0.004223656840622425,0.20541147887706757,-0.86181640625,-0.3984375,-0.31396484375
2023-07-29T20:36:17.194057,0.9786590933799744,-0.0038441354408860207,-0.004223656840622425,0.20541147887706757,-0.85546875,-0.42626953125,-0.28125
2023-07-29T20:36:17.195054,0.9737884402275085,-0.003518821205943823,-0.00425671087577939,0.22738857567310333,-0.85546875,-0.42626953125,-0.28125
2023-07-29T20:36:17.203215,0.9737884402275085,-0.003518821205943823,-0.00425671087577939,0.22738857567310333,-0.84765625,-0.43603515625,-0.2626953125
2023-07-29T20:36:17.203215,0.9738013744354248,-0.003345693461596966,-0.004140895325690508,0.22733789682388306,-0.84765625,-0.43603515625,-0.2626953125
2023-07-29T20:36:17.209199,0.9738013744354248,-0.003345693461596966,-0.004140895325690508,0.22733789682388306,-0.845703125,-0.44580078125,-0.25
2023-07-29T20:36:17.210195,0.9737808108329773,-0.0033378966618329287,-0.003944128751754761,0.22742974758148193,-0.845703125,-0.44580078125,-0.25
2023-07-29T20:36:17.242296,0.9737808108329773,-0.0033378966618329287,-0.003944128751754761,0.22742974758148193,-0.83447265625,-0.4619140625,-0.2578125
2023-07-29T20:36:17.242296,0.9737293124198914,-0.0034841049928218126,-0.0035989698953926563,0.22765378654003143,-0.83447265625,-0.4619140625,-0.2578125
2023-07-29T20:36:17.243610,0.9737293124198914,-0.0034841049928218126,-0.0035989698953926563,0.22765378654003143,-0.82177734375,-0.470703125,-0.265625
2023-07-29T20:36:17.243610,0.9685824513435364,-0.0036145998165011406,-0.00318524450995028,0.24864602088928223,-0.82177734375,-0.470703125,-0.265625
2023-07-29T20:36:17.244608,0.9685824513435364,-0.0036145998165011406,-0.00318524450995028,0.24864602088928223,-0.81640625,-0.47021484375,-0.26416015625
2023-07-29T20:36:17.245605,0.9684147238731384,-0.0037319231778383255,-0.0027341844979673624,0.249301940202713,-0.81640625,-0.47021484375,-0.26416015625
2023-07-29T20:36:17.255596,0.9684147238731384,-0.0037319231778383255,-0.0027341844979673624,0.249301940202713,-0.82080078125,-0.46142578125,-0.25634765625
2023-07-29T20:36:17.256594,0.9682024121284485,-0.0037906686775386333,-0.002511856844648719,0.25012677907943726,-0.82080078125,-0.46142578125,-0.25634765625
2023-07-29T20:36:17.262595,0.9682024121284485,-0.0037906686775386333,-0.002511856844648719,0.25012677907943726,-0.83447265625,-0.44384765625,-0.26220703125
2023-07-29T20:36:17.263595,0.9679564237594604,-0.004355446435511112,-0.002460934454575181,0.2510682940483093,-0.83447265625,-0.44384765625,-0.26220703125
2023-07-29T20:36:17.272084,0.9679564237594604,-0.004355446435511112,-0.002460934454575181,0.2510682940483093,-0.83935546875,-0.4296875,-0.29345703125
2023-07-29T20:36:17.278148,0.9677248597145081,-0.005134037230163813,-0.0022940535563975573,0.25194624066352844,-0.83935546875,-0.4296875,-0.29345703125
2023-07-29T20:36:17.290437,0.9677248597145081,-0.005134037230163813,-0.0022940535563975573,0.25194624066352844,-0.8466796875,-0.408203125,-0.31396484375
2023-07-29T20:36:17.291436,0.9675416946411133,-0.005796134006232023,-0.0021142754703760147,0.25263574719429016,-0.8466796875,-0.408203125,-0.31396484375
2023-07-29T20:36:17.291940,0.9675416946411133,-0.005796134006232023,-0.0021142754703760147,0.25263574719429016,-0.84716796875,-0.412109375,-0.3076171875
2023-07-29T20:36:17.294038,0.9673828482627869,-0.00609956169500947,-0.0017870120937004685,0.2532390058040619,-0.84716796875,-0.412109375,-0.3076171875
2023-07-29T20:36:17.299116,0.9673828482627869,-0.00609956169500947,-0.0017870120937004685,0.2532390058040619,-0.85791015625,-0.41748046875,-0.310546875
2023-07-29T20:36:17.300112,0.9672709703445435,-0.006245899014174938,-0.001436158549040556,0.2536643147468567,-0.85791015625,-0.41748046875,-0.310546875
2023-07-29T20:36:17.319098,0.9672709703445435,-0.006245899014174938,-0.001436158549040556,0.2536643147468567,-0.85595703125,-0.4228515625,-0.32666015625
2023-07-29T20:36:17.326367,0.9671840667724609,-0.006202970165759325,-0.0011015963973477483,0.2539985775947571,-0.85595703125,-0.4228515625,-0.32666015625
2023-07-29T20:36:17.326367,0.9671840667724609,-0.006202970165759325,-0.0011015963973477483,0.2539985775947571,-0.85546875,-0.42138671875,-0.32568359375
2023-07-29T20:36:17.327364,0.9671213030815125,-0.006106866057962179,-0.0007210324984043837,0.2542409896850586,-0.85546875,-0.42138671875,-0.32568359375
2023-07-29T20:36:17.335370,0.9671213030815125,-0.006106866057962179,-0.0007210324984043837,0.2542409896850586,-0.86572265625,-0.39892578125,-0.34033203125
2023-07-29T20:36:17.336367,0.9670506119728088,-0.006185386795550585,-0.00065185921266675,0.2545083165168762,-0.86572265625,-0.39892578125,-0.34033203125
2023-07-29T20:36:17.348361,0.9670506119728088,-0.006185386795550585,-0.00065185921266675,0.2545083165168762,-0.86669921875,-0.396484375,-0.33642578125
2023-07-29T20:36:17.362381,0.9669963121414185,-0.006264274939894676,-0.0007856270531192422,0.2547125518321991,-0.86669921875,-0.396484375,-0.33642578125
2023-07-29T20:36:17.364388,0.9669963121414185,-0.006264274939894676,-0.0007856270531192422,0.2547125518321991,-0.8623046875,-0.4150390625,-0.2958984375
2023-07-29T20:36:17.365386,0.9669123291969299,-0.006412696558982134,-0.0006756935617886484,0.25502708554267883,-0.8623046875,-0.4150390625,-0.2958984375
2023-07-29T20:36:17.366383,0.9669123291969299,-0.006412696558982134,-0.0006756935617886484,0.25502708554267883,-0.8662109375,-0.412109375,-0.291015625
2023-07-29T20:36:17.367380,0.966830849647522,-0.0066887433640658855,-0.00037086260272189975,0.25532999634742737,-0.8662109375,-0.412109375,-0.291015625
2023-07-29T20:36:17.381969,0.966830849647522,-0.0066887433640658855,-0.00037086260272189975,0.25532999634742737,-0.86767578125,-0.39111328125,-0.328125
2023-07-29T20:36:17.383157,0.9667654633522034,-0.006929976865649223,-0.0002070496411761269,0.2555704712867737,-0.86767578125,-0.39111328125,-0.328125
2023-07-29T20:36:17.385155,0.9667654633522034,-0.006929976865649223,-0.0002070496411761269,0.2555704712867737,-0.86181640625,-0.39453125,-0.33349609375
2023-07-29T20:36:17.386152,0.9667043089866638,-0.007207750808447599,-0.00014531482884194702,0.2557942569255829,-0.86181640625,-0.39453125,-0.33349609375
2023-07-29T20:36:17.471499,0.9667043089866638,-0.007207750808447599,-0.00014531482884194702,0.2557942569255829,-0.86328125,-0.39990234375,-0.32861328125
2023-07-29T20:36:17.472002,0.9666476249694824,-0.0073927538469433784,-0.00024719638167880476,0.2560032308101654,-0.86328125,-0.39990234375,-0.32861328125
2023-07-29T20:36:17.473413,0.9666476249694824,-0.0073927538469433784,-0.00024719638167880476,0.2560032308101654,-0.86328125,-0.404296875,-0.31787109375
2023-07-29T20:36:17.474411,0.9665841460227966,-0.007463968824595213,-0.00033039605477824807,0.25624048709869385,-0.86328125,-0.404296875,-0.31787109375
2023-07-29T20:36:17.474411,0.9665841460227966,-0.007463968824595213,-0.00033039605477824807,0.25624048709869385,-0.85498046875,-0.4130859375,-0.3115234375
2023-07-29T20:36:17.476405,0.9665153622627258,-0.007464057300239801,-0.0003283923724666238,0.2564999759197235,-0.85498046875,-0.4130859375,-0.3115234375
2023-07-29T20:36:17.477402,0.9665153622627258,-0.007464057300239801,-0.0003283923724666238,0.2564999759197235,-0.85205078125,-0.412109375,-0.318359375
2023-07-29T20:36:17.477402,0.9664546251296997,-0.007464135065674782,-0.0003266244020778686,0.2567289173603058,-0.85205078125,-0.412109375,-0.318359375
2023-07-29T20:36:17.480395,0.9664546251296997,-0.007464135065674782,-0.0003266244020778686,0.2567289173603058,-0.85693359375,-0.3994140625,-0.3388671875
2023-07-29T20:36:17.481983,0.9663970470428467,-0.007492567878216505,-0.0005667341756634414,0.2569442093372345,-0.85693359375,-0.3994140625,-0.3388671875
2023-07-29T20:36:17.483286,0.9663970470428467,-0.007492567878216505,-0.0005667341756634414,0.2569442093372345,-0.85595703125,-0.3837890625,-0.345703125
2023-07-29T20:36:17.484282,0.9663954973220825,-0.007528847083449364,-0.001044813427142799,0.25694748759269714,-0.85595703125,-0.3837890625,-0.345703125
2023-07-29T20:36:17.484282,0.9663954973220825,-0.007528847083449364,-0.001044813427142799,0.25694748759269714,-0.8486328125,-0.40234375,-0.29638671875
2023-07-29T20:36:17.485280,0.9663952589035034,-0.007472031284123659,-0.0012585006188601255,0.25694915652275085,-0.8486328125,-0.40234375,-0.29638671875
2023-07-29T20:36:17.485280,0.9663952589035034,-0.007472031284123659,-0.0012585006188601255,0.25694915652275085,-0.85107421875,-0.40478515625,-0.2724609375
2023-07-29T20:36:17.486277,0.966415286064148,-0.007240112870931625,-0.001393528189510107,0.2568795680999756,-0.85107421875,-0.40478515625,-0.2724609375
2023-07-29T20:36:17.489269,0.966415286064148,-0.007240112870931625,-0.001393528189510107,0.2568795680999756,-0.8486328125,-0.408203125,-0.26708984375
2023-07-29T20:36:17.490266,0.9664366841316223,-0.006909573916345835,-0.0013724188320338726,0.25680842995643616,-0.8486328125,-0.408203125,-0.26708984375
2023-07-29T20:36:17.498161,0.9664366841316223,-0.006909573916345835,-0.0013724188320338726,0.25680842995643616,-0.845703125,-0.41552734375,-0.26220703125
2023-07-29T20:36:17.500164,0.9664537906646729,-0.006644176319241524,-0.0011825471883639693,0.256752073764801,-0.845703125,-0.41552734375,-0.26220703125
2023-07-29T20:36:17.507161,0.9664537906646729,-0.006644176319241524,-0.0011825471883639693,0.256752073764801,-0.84326171875,-0.4208984375,-0.26806640625
2023-07-29T20:36:17.559227,0.9664308428764343,-0.006484753917902708,-0.00100342882797122,0.2568429708480835,-0.84326171875,-0.4208984375,-0.26806640625
2023-07-29T20:36:17.559227,0.9664308428764343,-0.006484753917902708,-0.00100342882797122,0.2568429708480835,-0.84326171875,-0.42333984375,-0.27783203125
2023-07-29T20:36:17.560224,0.9663842916488647,-0.006367939058691263,-0.0009711397578939795,0.25702112913131714,-0.84326171875,-0.42333984375,-0.27783203125
2023-07-29T20:36:17.560224,0.9663842916488647,-0.006367939058691263,-0.0009711397578939795,0.25702112913131714,-0.84521484375,-0.42578125,-0.28125
2023-07-29T20:36:17.561954,0.9663105607032776,-0.006549485959112644,-0.0007997264619916677,0.25729435682296753,-0.84521484375,-0.42578125,-0.28125
2023-07-29T20:36:17.563058,0.9663105607032776,-0.006549485959112644,-0.0007997264619916677,0.25729435682296753,-0.849609375,-0.40869140625,-0.31103515625
2023-07-29T20:36:17.564596,0.9662642478942871,-0.0068259285762906075,-0.0007632666383869946,0.2574613094329834,-0.849609375,-0.40869140625,-0.31103515625
2023-07-29T20:36:17.565593,0.9662642478942871,-0.0068259285762906075,-0.0007632666383869946,0.2574613094329834,-0.8525390625,-0.400390625,-0.31298828125
2023-07-29T20:36:17.565593,0.9662256240844727,-0.007052497938275337,-0.0008226251229643822,0.2576000988483429,-0.8525390625,-0.400390625,-0.31298828125
2023-07-29T20:36:17.566591,0.9662256240844727,-0.007052497938275337,-0.0008226251229643822,0.2576000988483429,-0.8583984375,-0.39697265625,-0.30712890625
2023-07-29T20:36:17.567588,0.9662434458732605,-0.007126692216843367,-0.0010554346954450011,0.25753024220466614,-0.8583984375,-0.39697265625,-0.30712890625
2023-07-29T20:36:17.571088,0.9662434458732605,-0.007126692216843367,-0.0010554346954450011,0.25753024220466614,-0.85595703125,-0.404296875,-0.30224609375
2023-07-29T20:36:17.572087,0.9662685990333557,-0.007005930412560701,-0.0015088410582393408,0.25743693113327026,-0.85595703125,-0.404296875,-0.30224609375
2023-07-29T20:36:17.589033,0.9662685990333557,-0.007005930412560701,-0.0015088410582393408,0.25743693113327026,-0.8515625,-0.41552734375,-0.287109375
2023-07-29T20:36:17.590031,0.966283917427063,-0.006881156470626593,-0.0019772471860051155,0.2573792338371277,-0.8515625,-0.41552734375,-0.287109375
2023-07-29T20:36:17.590031,0.966283917427063,-0.006881156470626593,-0.0019772471860051155,0.2573792338371277,-0.857421875,-0.4130859375,-0.30322265625
2023-07-29T20:36:17.591029,0.9663128852844238,-0.00659934151917696,-0.0026057532522827387,0.2572721540927887,-0.857421875,-0.4130859375,-0.30322265625
2023-07-29T20:36:17.592047,0.9663128852844238,-0.00659934151917696,-0.0026057532522827387,0.2572721540927887,-0.8564453125,-0.41796875,-0.29248046875
2023-07-29T20:36:17.597125,0.9663458466529846,-0.006317893508821726,-0.003248385852202773,0.25714823603630066,-0.8564453125,-0.41796875,-0.29248046875
2023-07-29T20:36:17.597125,0.9663458466529846,-0.006317893508821726,-0.003248385852202773,0.25714823603630066,-0.85205078125,-0.43017578125,-0.27880859375
2023-07-29T20:36:17.604205,0.9663594961166382,-0.0060307737439870834,-0.003744437824934721,0.2570972442626953,-0.85205078125,-0.43017578125,-0.27880859375
2023-07-29T20:36:17.605203,0.9663594961166382,-0.0060307737439870834,-0.003744437824934721,0.2570972442626953,-0.8544921875,-0.42333984375,-0.28076171875
2023-07-29T20:36:17.612193,0.9663439989089966,-0.005827102344483137,-0.004241087939590216,0.25715214014053345,-0.8544921875,-0.42333984375,-0.28076171875
2023-07-29T20:36:17.612193,0.9663439989089966,-0.005827102344483137,-0.004241087939590216,0.25715214014053345,-0.85302734375,-0.42236328125,-0.27783203125
2023-07-29T20:36:17.613403,0.9663020372390747,-0.005790707189589739,-0.004747822415083647,0.2573021948337555,-0.85302734375,-0.42236328125,-0.27783203125
2023-07-29T20:36:17.633366,0.9663020372390747,-0.005790707189589739,-0.004747822415083647,0.2573021948337555,-0.85498046875,-0.41259765625,-0.28955078125
2023-07-29T20:36:17.634296,0.9662601947784424,-0.006010584067553282,-0.005192105192691088,0.25744518637657166,-0.85498046875,-0.41259765625,-0.28955078125
2023-07-29T20:36:17.634296,0.9662601947784424,-0.006010584067553282,-0.005192105192691088,0.25744518637657166,-0.85107421875,-0.41357421875,-0.3173828125
2023-07-29T20:36:17.635294,0.9662059545516968,-0.0060554323717951775,-0.005578470882028341,0.25763988494873047,-0.85107421875,-0.41357421875,-0.3173828125
2023-07-29T20:36:17.637288,0.9662059545516968,-0.0060554323717951775,-0.005578470882028341,0.25763988494873047,-0.85986328125,-0.3935546875,-0.31884765625
2023-07-29T20:36:17.637288,0.9661657214164734,-0.005955888889729977,-0.005953967105597258,0.2577846050262451,-0.85986328125,-0.3935546875,-0.31884765625
2023-07-29T20:36:17.651148,0.9661657214164734,-0.005955888889729977,-0.005953967105597258,0.2577846050262451,-0.8720703125,-0.37841796875,-0.314453125
2023-07-29T20:36:17.652200,0.966161847114563,-0.005959582049399614,-0.006456647999584675,0.2577866315841675,-0.8720703125,-0.37841796875,-0.314453125
2023-07-29T20:36:17.659210,0.966161847114563,-0.005959582049399614,-0.006456647999584675,0.2577866315841675,-0.8662109375,-0.39453125,-0.30419921875
2023-07-29T20:36:17.659210,0.9661579728126526,-0.006047691684216261,-0.006907937582582235,0.2577877938747406,-0.8662109375,-0.39453125,-0.30419921875
2023-07-29T20:36:17.666045,0.9661579728126526,-0.006047691684216261,-0.006907937582582235,0.2577877938747406,-0.8642578125,-0.40234375,-0.2890625
2023-07-29T20:36:17.668040,0.9661526083946228,-0.0062188077718019485,-0.007444261573255062,0.2577885091304779,-0.8642578125,-0.40234375,-0.2890625
2023-07-29T20:36:17.695058,0.9661526083946228,-0.0062188077718019485,-0.007444261573255062,0.2577885091304779,-0.859375,-0.41650390625,-0.28076171875
2023-07-29T20:36:17.696054,0.9661177396774292,-0.006431833375245333,-0.007914209738373756,0.2579004168510437,-0.859375,-0.41650390625,-0.28076171875
2023-07-29T20:36:17.697051,0.9661177396774292,-0.006431833375245333,-0.007914209738373756,0.2579004168510437,-0.859375,-0.41015625,-0.28857421875
2023-07-29T20:36:17.698049,0.9661005735397339,-0.006737657357007265,-0.008137081749737263,0.2579492926597595,-0.859375,-0.41015625,-0.28857421875
2023-07-29T20:36:17.719085,0.9661005735397339,-0.006737657357007265,-0.008137081749737263,0.2579492926597595,-0.85986328125,-0.40087890625,-0.32373046875
2023-07-29T20:36:17.719085,0.9660964608192444,-0.006993187591433525,-0.008445054292678833,0.2579481899738312,-0.85986328125,-0.40087890625,-0.32373046875
2023-07-29T20:36:17.720082,0.9660964608192444,-0.006993187591433525,-0.008445054292678833,0.2579481899738312,-0.85205078125,-0.39990234375,-0.32275390625
2023-07-29T20:36:17.721080,0.9660933613777161,-0.006898133549839258,-0.008801060728728771,0.2579507529735565,-0.85205078125,-0.39990234375,-0.32275390625
2023-07-29T20:36:17.721080,0.9660933613777161,-0.006898133549839258,-0.008801060728728771,0.2579507529735565,-0.8544921875,-0.41015625,-0.2841796875
2023-07-29T20:36:17.722146,0.9660768508911133,-0.00685246754437685,-0.008973600342869759,0.2580079138278961,-0.8544921875,-0.41015625,-0.2841796875
2023-07-29T20:36:17.746114,0.9660768508911133,-0.00685246754437685,-0.008973600342869759,0.2580079138278961,-0.85498046875,-0.41552734375,-0.283203125
2023-07-29T20:36:17.746114,0.9660374522209167,-0.0068538375198841095,-0.008972554467618465,0.25815537571907043,-0.85498046875,-0.41552734375,-0.283203125
2023-07-29T20:36:17.749104,0.9660374522209167,-0.0068538375198841095,-0.008972554467618465,0.25815537571907043,-0.859375,-0.4072265625,-0.30419921875
2023-07-29T20:36:17.750101,0.965988278388977,-0.006864944007247686,-0.009183388203382492,0.2583310902118683,-0.859375,-0.4072265625,-0.30419921875
2023-07-29T20:36:17.750101,0.965988278388977,-0.006864944007247686,-0.009183388203382492,0.2583310902118683,-0.86181640625,-0.3955078125,-0.2978515625
2023-07-29T20:36:17.751100,0.9659441113471985,-0.006806602235883474,-0.009406034834682941,0.25849032402038574,-0.86181640625,-0.3955078125,-0.2978515625
2023-07-29T20:36:17.756268,0.9659441113471985,-0.006806602235883474,-0.009406034834682941,0.25849032402038574,-0.861328125,-0.3955078125,-0.279296875
2023-07-29T20:36:17.757265,0.965893030166626,-0.006904711481183767,-0.009675799869000912,0.25866833329200745,-0.861328125,-0.3955078125,-0.279296875
2023-07-29T20:36:17.763749,0.965893030166626,-0.006904711481183767,-0.009675799869000912,0.25866833329200745,-0.86279296875,-0.40380859375,-0.26513671875
2023-07-29T20:36:17.766740,0.9658487439155579,-0.006887268275022507,-0.009745857678353786,0.25883153080940247,-0.86279296875,-0.40380859375,-0.26513671875
2023-07-29T20:36:17.781242,0.9658487439155579,-0.006887268275022507,-0.009745857678353786,0.25883153080940247,-0.86328125,-0.40087890625,-0.251953125
2023-07-29T20:36:17.781242,0.9658142924308777,-0.00678035244345665,-0.009579678066074848,0.25896933674812317,-0.86328125,-0.40087890625,-0.251953125
2023-07-29T20:36:17.793617,0.9658142924308777,-0.00678035244345665,-0.009579678066074848,0.25896933674812317,-0.861328125,-0.4013671875,-0.26025390625
2023-07-29T20:36:17.794420,0.9657893776893616,-0.006676709745079279,-0.009278439916670322,0.2590760290622711,-0.861328125,-0.4013671875,-0.26025390625
2023-07-29T20:36:17.794420,0.9657893776893616,-0.006676709745079279,-0.009278439916670322,0.2590760290622711,-0.8564453125,-0.3984375,-0.31005859375
2023-07-29T20:36:17.795410,0.9657903909683228,-0.006529286038130522,-0.009238893166184425,0.2590774595737457,-0.8564453125,-0.3984375,-0.31005859375
2023-07-29T20:36:17.844036,0.9657903909683228,-0.006529286038130522,-0.009238893166184425,0.2590774595737457,-0.8525390625,-0.39990234375,-0.32373046875
2023-07-29T20:36:17.844036,0.9657904505729675,-0.006352864671498537,-0.009279844351112843,0.2590794563293457,-0.8525390625,-0.39990234375,-0.32373046875
2023-07-29T20:36:17.845033,0.9657904505729675,-0.006352864671498537,-0.009279844351112843,0.2590794563293457,-0.85302734375,-0.4091796875,-0.296875
2023-07-29T20:36:17.867414,0.9657666683197021,-0.006299086380749941,-0.00948269572108984,0.25916212797164917,-0.85302734375,-0.4091796875,-0.296875
2023-07-29T20:36:17.868410,0.9657666683197021,-0.006299086380749941,-0.00948269572108984,0.25916212797164917,-0.85693359375,-0.416015625,-0.28759765625
2023-07-29T20:36:17.886159,0.9657208323478699,-0.006139225792139769,-0.009738078340888023,0.2593274414539337,-0.85693359375,-0.416015625,-0.28759765625
2023-07-29T20:36:17.887157,0.9657208323478699,-0.006139225792139769,-0.009738078340888023,0.2593274414539337,-0.861328125,-0.40673828125,-0.2724609375
2023-07-29T20:36:17.888153,0.9656923413276672,-0.0059839338064193726,-0.009771752171218395,0.2594360113143921,-0.861328125,-0.40673828125,-0.2724609375
2023-07-29T20:36:17.888153,0.9656923413276672,-0.0059839338064193726,-0.009771752171218395,0.2594360113143921,-0.86669921875,-0.39892578125,-0.28662109375
2023-07-29T20:36:17.889151,0.9656923413276672,-0.005806849803775549,-0.009822322987020016,0.2594381272792816,-0.86669921875,-0.39892578125,-0.28662109375
2023-07-29T20:36:17.889151,0.9656923413276672,-0.005806849803775549,-0.009822322987020016,0.2594381272792816,-0.86083984375,-0.3984375,-0.29345703125
2023-07-29T20:36:17.890148,0.9657414555549622,-0.005429576151072979,-0.009722495451569557,0.25926703214645386,-0.86083984375,-0.3984375,-0.29345703125
2023-07-29T20:36:17.891146,0.9657414555549622,-0.005429576151072979,-0.009722495451569557,0.25926703214645386,-0.85546875,-0.419921875,-0.27197265625
2023-07-29T20:36:17.891146,0.9658070802688599,-0.005066359415650368,-0.009434384293854237,0.25904059410095215,-0.85546875,-0.419921875,-0.27197265625
2023-07-29T20:36:17.892254,0.9658070802688599,-0.005066359415650368,-0.009434384293854237,0.25904059410095215,-0.85107421875,-0.435546875,-0.26806640625
2023-07-29T20:36:17.893482,0.9658341407775879,-0.005054675508290529,-0.00908457487821579,0.25895237922668457,-0.85107421875,-0.435546875,-0.26806640625
2023-07-29T20:36:17.893482,0.9658341407775879,-0.005054675508290529,-0.00908457487821579,0.25895237922668457,-0.853515625,-0.431640625,-0.2890625
2023-07-29T20:36:17.894479,0.965835452079773,-0.0050928290002048016,-0.008942271582782269,0.2589516341686249,-0.853515625,-0.431640625,-0.2890625
2023-07-29T20:36:17.920178,0.965835452079773,-0.0050928290002048016,-0.008942271582782269,0.2589516341686249,-0.84912109375,-0.43408203125,-0.28857421875
2023-07-29T20:36:17.920178,0.9658010005950928,-0.005122664850205183,-0.008834858424961567,0.25908324122428894,-0.84912109375,-0.43408203125,-0.28857421875
2023-07-29T20:36:17.947203,0.9658010005950928,-0.005122664850205183,-0.008834858424961567,0.25908324122428894,-0.85546875,-0.4267578125,-0.283203125
2023-07-29T20:36:17.948200,0.9657565951347351,-0.005253506358712912,-0.008737915195524693,0.2592494487762451,-0.85546875,-0.4267578125,-0.283203125
2023-07-29T20:36:17.948200,0.9657565951347351,-0.005253506358712912,-0.008737915195524693,0.2592494487762451,-0.857421875,-0.41748046875,-0.287109375
2023-07-29T20:36:17.949199,0.9657076001167297,-0.005341328680515289,-0.008700150065124035,0.25943151116371155,-0.857421875,-0.41748046875,-0.287109375
2023-07-29T20:36:17.950195,0.9657076001167297,-0.005341328680515289,-0.008700150065124035,0.25943151116371155,-0.85400390625,-0.4150390625,-0.27880859375
2023-07-29T20:36:17.950195,0.9656359553337097,-0.005428592674434185,-0.008793249726295471,0.25969329476356506,-0.85400390625,-0.4150390625,-0.27880859375
2023-07-29T20:36:17.951192,0.9656359553337097,-0.005428592674434185,-0.008793249726295471,0.25969329476356506,-0.86181640625,-0.404296875,-0.27490234375
2023-07-29T20:36:17.966011,0.9655673503875732,-0.005674812942743301,-0.008999251760542393,0.2599354088306427,-0.86181640625,-0.404296875,-0.27490234375
2023-07-29T20:36:17.967019,0.9655673503875732,-0.005674812942743301,-0.008999251760542393,0.2599354088306427,-0.8623046875,-0.40234375,-0.28759765625
2023-07-29T20:36:17.967019,0.9655115008354187,-0.005765986163169146,-0.009212955832481384,0.26013338565826416,-0.8623046875,-0.40234375,-0.28759765625
2023-07-29T20:36:17.968005,0.9655115008354187,-0.005765986163169146,-0.009212955832481384,0.26013338565826416,-0.85791015625,-0.40576171875,-0.27001953125
2023-07-29T20:36:17.969012,0.9654698371887207,-0.005635354667901993,-0.009176414459943771,0.2602921724319458,-0.85791015625,-0.40576171875,-0.27001953125
2023-07-29T20:36:17.969012,0.9654698371887207,-0.005635354667901993,-0.009176414459943771,0.2602921724319458,-0.85888671875,-0.40869140625,-0.25634765625
2023-07-29T20:36:17.970000,0.9654496312141418,-0.005392680875957012,-0.00894677173346281,0.2603803873062134,-0.85888671875,-0.40869140625,-0.25634765625
2023-07-29T20:36:17.974338,0.9654496312141418,-0.005392680875957012,-0.00894677173346281,0.2603803873062134,-0.8603515625,-0.41015625,-0.27685546875
2023-07-29T20:36:17.974338,0.9654313325881958,-0.005275586619973183,-0.008756530471146107,0.26045724749565125,-0.8603515625,-0.41015625,-0.27685546875
2023-07-29T20:36:17.989650,0.9654313325881958,-0.005275586619973183,-0.008756530471146107,0.26045724749565125,-0.85693359375,-0.40966796875,-0.30224609375
2023-07-29T20:36:17.989650,0.9654074907302856,-0.005103638395667076,-0.008709416724741459,0.26055026054382324,-0.85693359375,-0.40966796875,-0.30224609375
2023-07-29T20:36:17.996172,0.9654074907302856,-0.005103638395667076,-0.008709416724741459,0.26055026054382324,-0.8525390625,-0.42431640625,-0.28759765625
2023-07-29T20:36:17.997169,0.9653698205947876,-0.004808563273400068,-0.00871595460921526,0.2606954276561737,-0.8525390625,-0.42431640625,-0.28759765625
2023-07-29T20:36:18.004071,0.9653698205947876,-0.004808563273400068,-0.00871595460921526,0.2606954276561737,-0.84912109375,-0.43017578125,-0.26318359375
2023-07-29T20:36:18.005069,0.9653153419494629,-0.004633249249309301,-0.008563525043427944,0.26090511679649353,-0.84912109375,-0.43017578125,-0.26318359375
2023-07-29T20:36:18.011052,0.9653153419494629,-0.004633249249309301,-0.008563525043427944,0.26090511679649353,-0.84765625,-0.42626953125,-0.2705078125
2023-07-29T20:36:18.019712,0.9652276039123535,-0.004505111835896969,-0.008454843424260616,0.26123514771461487,-0.84765625,-0.42626953125,-0.2705078125
2023-07-29T20:36:18.026234,0.9652276039123535,-0.004505111835896969,-0.008454843424260616,0.26123514771461487,-0.8515625,-0.4150390625,-0.279296875
2023-07-29T20:36:18.027231,0.9651238918304443,-0.0044905622489750385,-0.008519155904650688,0.2616164982318878,-0.8515625,-0.4150390625,-0.279296875
2023-07-29T20:36:18.037247,0.9651238918304443,-0.0044905622489750385,-0.008519155904650688,0.2616164982318878,-0.85595703125,-0.404296875,-0.271484375
2023-07-29T20:36:18.037247,0.9650089144706726,-0.004754351917654276,-0.008664119057357311,0.2620308995246887,-0.85595703125,-0.404296875,-0.271484375
2023-07-29T20:36:18.041237,0.9650089144706726,-0.004754351917654276,-0.008664119057357311,0.2620308995246887,-0.85888671875,-0.39453125,-0.27490234375
2023-07-29T20:36:18.042340,0.9648909568786621,-0.005027098581194878,-0.00893691647797823,0.2624504864215851,-0.85888671875,-0.39453125,-0.27490234375
2023-07-29T20:36:18.056232,0.9648909568786621,-0.005027098581194878,-0.00893691647797823,0.2624504864215851,-0.8662109375,-0.37890625,-0.28369140625
2023-07-29T20:36:18.057230,0.964820146560669,-0.005120526533573866,-0.009222272783517838,0.262699156999588,-0.8662109375,-0.37890625,-0.28369140625
2023-07-29T20:36:18.069326,0.964820146560669,-0.005120526533573866,-0.009222272783517838,0.262699156999588,-0.8701171875,-0.3828125,-0.25439453125
2023-07-29T20:36:18.070323,0.9647848606109619,-0.005279162432998419,-0.009384557604789734,0.2628198564052582,-0.8701171875,-0.3828125,-0.25439453125
2023-07-29T20:36:18.078383,0.9647848606109619,-0.005279162432998419,-0.009384557604789734,0.2628198564052582,-0.8583984375,-0.39794921875,-0.24609375
2023-07-29T20:36:18.079383,0.9647395610809326,-0.005591872613877058,-0.009403008036315441,0.2629791796207428,-0.8583984375,-0.39794921875,-0.24609375
2023-07-29T20:36:18.091938,0.9647395610809326,-0.005591872613877058,-0.009403008036315441,0.2629791796207428,-0.85546875,-0.40576171875,-0.2568359375
2023-07-29T20:36:18.091938,0.9646914601325989,-0.005890653934329748,-0.009345008991658688,0.26315051317214966,-0.85546875,-0.40576171875,-0.2568359375
2023-07-29T20:36:18.094170,0.9646914601325989,-0.005890653934329748,-0.009345008991658688,0.26315051317214966,-0.84912109375,-0.408203125,-0.26904296875
2023-07-29T20:36:18.094170,0.9646491408348083,-0.0062618800438940525,-0.009308595210313797,0.26329880952835083,-0.84912109375,-0.408203125,-0.26904296875
2023-07-29T20:36:18.101168,0.9646491408348083,-0.0062618800438940525,-0.009308595210313797,0.26329880952835083,-0.849609375,-0.40966796875,-0.27392578125
2023-07-29T20:36:18.102167,0.9646103382110596,-0.006772835738956928,-0.009239530190825462,0.2634301781654358,-0.849609375,-0.40966796875,-0.27392578125
2023-07-29T20:36:18.117405,0.9646103382110596,-0.006772835738956928,-0.009239530190825462,0.2634301781654358,-0.849609375,-0.40869140625,-0.2744140625
2023-07-29T20:36:18.117405,0.9645649194717407,-0.0072318739257752895,-0.009161497466266155,0.26358744502067566,-0.849609375,-0.40869140625,-0.2744140625
2023-07-29T20:36:18.124403,0.9645649194717407,-0.0072318739257752895,-0.009161497466266155,0.26358744502067566,-0.8515625,-0.4052734375,-0.27197265625
2023-07-29T20:36:18.125399,0.9644976258277893,-0.007726808078587055,-0.008994238451123238,0.26382502913475037,-0.8515625,-0.4052734375,-0.27197265625
2023-07-29T20:36:18.131887,0.9644976258277893,-0.007726808078587055,-0.008994238451123238,0.26382502913475037,-0.85791015625,-0.39697265625,-0.2734375
2023-07-29T20:36:18.132391,0.964408814907074,-0.008281071670353413,-0.008831488899886608,0.2641380727291107,-0.85791015625,-0.39697265625,-0.2734375
2023-07-29T20:36:18.146080,0.964408814907074,-0.008281071670353413,-0.008831488899886608,0.2641380727291107,-0.86181640625,-0.39208984375,-0.28759765625
2023-07-29T20:36:18.147078,0.9642996191978455,-0.008809145539999008,-0.00872625969350338,0.2645227015018463,-0.86181640625,-0.39208984375,-0.28759765625
2023-07-29T20:36:18.154073,0.9642996191978455,-0.008809145539999008,-0.00872625969350338,0.2645227015018463,-0.8671875,-0.36865234375,-0.3115234375
2023-07-29T20:36:18.154073,0.9641919732093811,-0.00947507843375206,-0.008904638700187206,0.2648864984512329,-0.8671875,-0.36865234375,-0.3115234375
2023-07-29T20:36:18.161055,0.9641919732093811,-0.00947507843375206,-0.008904638700187206,0.2648864984512329,-0.86962890625,-0.35986328125,-0.31982421875
2023-07-29T20:36:18.162340,0.9641129374504089,-0.009971855208277702,-0.009168894030153751,0.2651466429233551,-0.86962890625,-0.35986328125,-0.31982421875
2023-07-29T20:36:18.176441,0.9641129374504089,-0.009971855208277702,-0.009168894030153751,0.2651466429233551,-0.8681640625,-0.36962890625,-0.2890625
2023-07-29T20:36:18.177438,0.9640507102012634,-0.010445784777402878,-0.009296535514295101,0.2653501629829407,-0.8681640625,-0.36962890625,-0.2890625
2023-07-29T20:36:18.184153,0.9640507102012634,-0.010445784777402878,-0.009296535514295101,0.2653501629829407,-0.8701171875,-0.36572265625,-0.30078125
2023-07-29T20:36:18.184153,0.9640107750892639,-0.010650083422660828,-0.009350919164717197,0.2654851973056793,-0.8701171875,-0.36572265625,-0.30078125
2023-07-29T20:36:18.191135,0.9640107750892639,-0.010650083422660828,-0.009350919164717197,0.2654851973056793,-0.86767578125,-0.3740234375,-0.30908203125
2023-07-29T20:36:18.192309,0.9639909863471985,-0.010650940239429474,-0.009131725877523422,0.2655646800994873,-0.86767578125,-0.3740234375,-0.30908203125
2023-07-29T20:36:18.206189,0.9639909863471985,-0.010650940239429474,-0.009131725877523422,0.2655646800994873,-0.8701171875,-0.3740234375,-0.29443359375
2023-07-29T20:36:18.207187,0.9639734029769897,-0.010776675306260586,-0.008977670222520828,0.26562878489494324,-0.8701171875,-0.3740234375,-0.29443359375
2023-07-29T20:36:18.214190,0.9639734029769897,-0.010776675306260586,-0.008977670222520828,0.26562878489494324,-0.87353515625,-0.3798828125,-0.2861328125
2023-07-29T20:36:18.222176,0.9639530181884766,-0.011076441965997219,-0.008961144834756851,0.2656911611557007,-0.87353515625,-0.3798828125,-0.2861328125
2023-07-29T20:36:18.222176,0.9639530181884766,-0.011076441965997219,-0.008961144834756851,0.2656911611557007,-0.86962890625,-0.38916015625,-0.2841796875
2023-07-29T20:36:18.223182,0.9639220237731934,-0.01147677656263113,-0.008917244151234627,0.26578760147094727,-0.86962890625,-0.38916015625,-0.2841796875
2023-07-29T20:36:18.236316,0.9639220237731934,-0.01147677656263113,-0.008917244151234627,0.26578760147094727,-0.873046875,-0.3896484375,-0.29443359375
2023-07-29T20:36:18.237311,0.9638848304748535,-0.011850605718791485,-0.008786476217210293,0.2659105062484741,-0.873046875,-0.3896484375,-0.29443359375
2023-07-29T20:36:18.244485,0.9638848304748535,-0.011850605718791485,-0.008786476217210293,0.2659105062484741,-0.8779296875,-0.38671875,-0.3056640625
2023-07-29T20:36:18.244485,0.963867723941803,-0.012066558934748173,-0.008432455360889435,0.2659744918346405,-0.8779296875,-0.38671875,-0.3056640625
2023-07-29T20:36:18.251970,0.963867723941803,-0.012066558934748173,-0.008432455360889435,0.2659744918346405,-0.8779296875,-0.380859375,-0.3173828125
2023-07-29T20:36:18.251970,0.9638392925262451,-0.012311677448451519,-0.0082583948969841,0.26607152819633484,-0.8779296875,-0.380859375,-0.3173828125
2023-07-29T20:36:18.266339,0.9638392925262451,-0.012311677448451519,-0.0082583948969841,0.26607152819633484,-0.88037109375,-0.37646484375,-0.32080078125
2023-07-29T20:36:18.266339,0.9638209342956543,-0.012534383684396744,-0.008204340003430843,0.26612940430641174,-0.88037109375,-0.37646484375,-0.32080078125
2023-07-29T20:36:18.273990,0.9638209342956543,-0.012534383684396744,-0.008204340003430843,0.26612940430641174,-0.87744140625,-0.37890625,-0.30078125
2023-07-29T20:36:18.273990,0.9638175964355469,-0.012837552465498447,-0.00823349691927433,0.26612627506256104,-0.87744140625,-0.37890625,-0.30078125
2023-07-29T20:36:18.281480,0.9638175964355469,-0.012837552465498447,-0.00823349691927433,0.26612627506256104,-0.876953125,-0.38525390625,-0.31201171875
2023-07-29T20:36:18.281987,0.963814914226532,-0.013082736171782017,-0.008245990611612797,0.26612362265586853,-0.876953125,-0.38525390625,-0.31201171875
2023-07-29T20:36:18.288612,0.963814914226532,-0.013082736171782017,-0.008245990611612797,0.26612362265586853,-0.87451171875,-0.3828125,-0.328125
2023-07-29T20:36:18.296252,0.9638419151306152,-0.013202400878071785,-0.008226095698773861,0.2660205364227295,-0.87451171875,-0.3828125,-0.328125
2023-07-29T20:36:18.303972,0.9638419151306152,-0.013202400878071785,-0.008226095698773861,0.2660205364227295,-0.8681640625,-0.3916015625,-0.34033203125
2023-07-29T20:36:18.304975,0.9638943076133728,-0.013176937587559223,-0.008315024897456169,0.2658289074897766,-0.8681640625,-0.3916015625,-0.34033203125
2023-07-29T20:36:18.311974,0.9638943076133728,-0.013176937587559223,-0.008315024897456169,0.2658289074897766,-0.8603515625,-0.40380859375,-0.33935546875
2023-07-29T20:36:18.311974,0.963915228843689,-0.013049440458416939,-0.00843945611268282,0.2657555639743805,-0.8603515625,-0.40380859375,-0.33935546875
2023-07-29T20:36:18.318992,0.963915228843689,-0.013049440458416939,-0.00843945611268282,0.2657555639743805,-0.85791015625,-0.40625,-0.34814453125
2023-07-29T20:36:18.326156,0.9639159440994263,-0.012672974728047848,-0.008696026168763638,0.2657625079154968,-0.85791015625,-0.40625,-0.34814453125
2023-07-29T20:36:18.334456,0.9639159440994263,-0.012672974728047848,-0.008696026168763638,0.2657625079154968,-0.8564453125,-0.4150390625,-0.349609375
2023-07-29T20:36:18.334456,0.9638979434967041,-0.01212990377098322,-0.009003819897770882,0.2658429443836212,-0.8564453125,-0.4150390625,-0.349609375
2023-07-29T20:36:18.341942,0.9638979434967041,-0.01212990377098322,-0.009003819897770882,0.2658429443836212,-0.85791015625,-0.4228515625,-0.34130859375
2023-07-29T20:36:18.341942,0.9638521671295166,-0.01144703384488821,-0.009582862257957458,0.26601874828338623,-0.85791015625,-0.4228515625,-0.34130859375
2023-07-29T20:36:18.349142,0.9638521671295166,-0.01144703384488821,-0.009582862257957458,0.26601874828338623,-0.861328125,-0.4189453125,-0.30419921875
2023-07-29T20:36:18.350139,0.963758111000061,-0.010904424823820591,-0.010389403440058231,0.2663518190383911,-0.861328125,-0.4189453125,-0.30419921875
2023-07-29T20:36:18.364363,0.963758111000061,-0.010904424823820591,-0.010389403440058231,0.2663518190383911,-0.86767578125,-0.4091796875,-0.28515625
2023-07-29T20:36:18.364363,0.9636333584785461,-0.010835375636816025,-0.011370214633643627,0.2667658030986786,-0.86767578125,-0.4091796875,-0.28515625
2023-07-29T20:36:18.371849,0.9636333584785461,-0.010835375636816025,-0.011370214633643627,0.2667658030986786,-0.87353515625,-0.39306640625,-0.3046875
2023-07-29T20:36:18.372353,0.9635113477706909,-0.011035767383873463,-0.01261084247380495,0.2671423554420471,-0.87353515625,-0.39306640625,-0.3046875
2023-07-29T20:36:18.378544,0.9635113477706909,-0.011035767383873463,-0.01261084247380495,0.2671423554420471,-0.86376953125,-0.3984375,-0.3154296875
2023-07-29T20:36:18.379540,0.963385820388794,-0.01105114258825779,-0.014045916497707367,0.2675226032733917,-0.86376953125,-0.3984375,-0.3154296875
2023-07-29T20:36:18.393700,0.963385820388794,-0.01105114258825779,-0.014045916497707367,0.2675226032733917,-0.86181640625,-0.404296875,-0.28369140625
2023-07-29T20:36:18.394700,0.9632419347763062,-0.011006034910678864,-0.015386682003736496,0.2679685652256012,-0.86181640625,-0.404296875,-0.28369140625
2023-07-29T20:36:18.401205,0.9632419347763062,-0.011006034910678864,-0.015386682003736496,0.2679685652256012,-0.8623046875,-0.3974609375,-0.26953125
2023-07-29T20:36:18.402346,0.9630939364433289,-0.011008413508534431,-0.016674920916557312,0.268422931432724,-0.8623046875,-0.3974609375,-0.26953125
2023-07-29T20:36:18.408617,0.9630939364433289,-0.011008413508534431,-0.016674920916557312,0.268422931432724,-0.86083984375,-0.39697265625,-0.267578125
2023-07-29T20:36:18.409614,0.9629415273666382,-0.011128459125757217,-0.01791381649672985,0.26888442039489746,-0.86083984375,-0.39697265625,-0.267578125
2023-07-29T20:36:18.424287,0.9629415273666382,-0.011128459125757217,-0.01791381649672985,0.26888442039489746,-0.8642578125,-0.3935546875,-0.26611328125
2023-07-29T20:36:18.424287,0.9627654552459717,-0.011417877860367298,-0.018986312672495842,0.2694286108016968,-0.8642578125,-0.3935546875,-0.26611328125
2023-07-29T20:36:18.431269,0.9627654552459717,-0.011417877860367298,-0.018986312672495842,0.2694286108016968,-0.86865234375,-0.376953125,-0.2822265625
2023-07-29T20:36:18.432382,0.9625893831253052,-0.011597677133977413,-0.020229697227478027,0.26995909214019775,-0.86865234375,-0.376953125,-0.2822265625
2023-07-29T20:36:18.438606,0.9625893831253052,-0.011597677133977413,-0.020229697227478027,0.26995909214019775,-0.8681640625,-0.365234375,-0.2841796875
2023-07-29T20:36:18.439604,0.962432861328125,-0.011645723134279251,-0.021683664992451668,0.2704019546508789,-0.8681640625,-0.365234375,-0.2841796875
2023-07-29T20:36:18.454219,0.962432861328125,-0.011645723134279251,-0.021683664992451668,0.2704019546508789,-0.8720703125,-0.36376953125,-0.283203125
2023-07-29T20:36:18.454219,0.9622848629951477,-0.011687412858009338,-0.02327338047325611,0.2707943618297577,-0.8720703125,-0.36376953125,-0.283203125
2023-07-29T20:36:18.461201,0.9622848629951477,-0.011687412858009338,-0.02327338047325611,0.2707943618297577,-0.8798828125,-0.35693359375,-0.27978515625
2023-07-29T20:36:18.462341,0.9621414542198181,-0.011875491589307785,-0.025096505880355835,0.27113261818885803,-0.8798828125,-0.35693359375,-0.27978515625
2023-07-29T20:36:18.468446,0.9621414542198181,-0.011875491589307785,-0.025096505880355835,0.27113261818885803,-0.88623046875,-0.3466796875,-0.29833984375
2023-07-29T20:36:18.469444,0.9619718790054321,-0.012155875563621521,-0.02767804078757763,0.27147048711776733,-0.88623046875,-0.3466796875,-0.29833984375
2023-07-29T20:36:18.484235,0.9619718790054321,-0.012155875563621521,-0.02767804078757763,0.27147048711776733,-0.8857421875,-0.3564453125,-0.28955078125
2023-07-29T20:36:18.484235,0.9617858529090881,-0.0122663090005517,-0.03055110201239586,0.27181655168533325,-0.8857421875,-0.3564453125,-0.28955078125
2023-07-29T20:36:18.491718,0.9617858529090881,-0.0122663090005517,-0.03055110201239586,0.27181655168533325,-0.88623046875,-0.37353515625,-0.22998046875
2023-07-29T20:36:18.492221,0.9616294503211975,-0.012423994019627571,-0.0328255258500576,0.2720973491668701,-0.88623046875,-0.37353515625,-0.22998046875
2023-07-29T20:36:18.498217,0.9616294503211975,-0.012423994019627571,-0.0328255258500576,0.2720973491668701,-0.89208984375,-0.39013671875,-0.1982421875
2023-07-29T20:36:18.499517,0.9615115523338318,-0.01255837082862854,-0.03430715203285217,0.2723248600959778,-0.89208984375,-0.39013671875,-0.1982421875
2023-07-29T20:36:18.514453,0.9615115523338318,-0.01255837082862854,-0.03430715203285217,0.2723248600959778,-0.8916015625,-0.38623046875,-0.205078125
2023-07-29T20:36:18.514453,0.9614054560661316,-0.012722908519208431,-0.03527751564979553,0.2725675404071808,-0.8916015625,-0.38623046875,-0.205078125
2023-07-29T20:36:18.521937,0.9614054560661316,-0.012722908519208431,-0.03527751564979553,0.2725675404071808,-0.89306640625,-0.3701171875,-0.22509765625
2023-07-29T20:36:18.521937,0.9613107442855835,-0.012984870932996273,-0.03619471192359924,0.27276891469955444,-0.89306640625,-0.3701171875,-0.22509765625
2023-07-29T20:36:18.529123,0.9613107442855835,-0.012984870932996273,-0.03619471192359924,0.27276891469955444,-0.89306640625,-0.3642578125,-0.26171875
2023-07-29T20:36:18.529123,0.9612218141555786,-0.013254907913506031,-0.03756964951753616,0.27288350462913513,-0.89306640625,-0.3642578125,-0.26171875
2023-07-29T20:36:18.544525,0.9612218141555786,-0.013254907913506031,-0.03756964951753616,0.27288350462913513,-0.884765625,-0.3798828125,-0.2666015625
2023-07-29T20:36:18.544525,0.9611096978187561,-0.014052346348762512,-0.03924667090177536,0.2730024755001068,-0.884765625,-0.3798828125,-0.2666015625
2023-07-29T20:36:18.552016,0.9611096978187561,-0.014052346348762512,-0.03924667090177536,0.2730024755001068,-0.88232421875,-0.37939453125,-0.2919921875
2023-07-29T20:36:18.552016,0.9609690308570862,-0.014895046129822731,-0.0412689670920372,0.2731548547744751,-0.88232421875,-0.37939453125,-0.2919921875
2023-07-29T20:36:18.559099,0.9609690308570862,-0.014895046129822731,-0.0412689670920372,0.2731548547744751,-0.88134765625,-0.3857421875,-0.2783203125
2023-07-29T20:36:18.559099,0.9608480930328369,-0.015479564666748047,-0.04327445104718208,0.27323734760284424,-0.88134765625,-0.3857421875,-0.2783203125
2023-07-29T20:36:18.566330,0.9608480930328369,-0.015479564666748047,-0.04327445104718208,0.27323734760284424,-0.87744140625,-0.396484375,-0.24072265625
2023-07-29T20:36:18.574324,0.9607293605804443,-0.015809178352355957,-0.04496045038104057,0.27336376905441284,-0.87744140625,-0.396484375,-0.24072265625
2023-07-29T20:36:18.581306,0.9607293605804443,-0.015809178352355957,-0.04496045038104057,0.27336376905441284,-0.8857421875,-0.39697265625,-0.22314453125
2023-07-29T20:36:18.582340,0.9606034755706787,-0.01606878452003002,-0.046532440930604935,0.27352797985076904,-0.8857421875,-0.39697265625,-0.22314453125
2023-07-29T20:36:18.589334,0.9606034755706787,-0.01606878452003002,-0.046532440930604935,0.27352797985076904,-0.88623046875,-0.3974609375,-0.193359375
2023-07-29T20:36:18.589334,0.9604853987693787,-0.01632421649992466,-0.047758009284734726,0.27371618151664734,-0.88623046875,-0.3974609375,-0.193359375
2023-07-29T20:36:18.596721,0.9604853987693787,-0.01632421649992466,-0.047758009284734726,0.27371618151664734,-0.8837890625,-0.4013671875,-0.1640625
2023-07-29T20:36:18.604437,0.9603637456893921,-0.01687154918909073,-0.04880868270993233,0.27392423152923584,-0.8837890625,-0.4013671875,-0.1640625
2023-07-29T20:36:18.611922,0.9603637456893921,-0.01687154918909073,-0.04880868270993233,0.27392423152923584,-0.880859375,-0.39599609375,-0.17578125
2023-07-29T20:36:18.611922,0.9602127075195312,-0.018165474757552147,-0.04995514824986458,0.2741643786430359,-0.880859375,-0.39599609375,-0.17578125
2023-07-29T20:36:18.619201,0.9602127075195312,-0.018165474757552147,-0.04995514824986458,0.2741643786430359,-0.888671875,-0.3515625,-0.263671875
2023-07-29T20:36:18.619201,0.960027277469635,-0.01999308355152607,-0.05212610960006714,0.27428215742111206,-0.888671875,-0.3515625,-0.263671875
2023-07-29T20:36:18.626367,0.960027277469635,-0.01999308355152607,-0.05212610960006714,0.27428215742111206,-0.87646484375,-0.359375,-0.32421875
2023-07-29T20:36:18.627365,0.9598132967948914,-0.021855581551790237,-0.05509287118911743,0.27430927753448486,-0.87646484375,-0.359375,-0.32421875
2023-07-29T20:36:18.641920,0.9598132967948914,-0.021855581551790237,-0.05509287118911743,0.27430927753448486,-0.86865234375,-0.404296875,-0.31201171875
2023-07-29T20:36:18.641920,0.9595279097557068,-0.023493342101573944,-0.05821031704545021,0.27452826499938965,-0.86865234375,-0.404296875,-0.31201171875
2023-07-29T20:36:18.649030,0.9595279097557068,-0.023493342101573944,-0.05821031704545021,0.27452826499938965,-0.87158203125,-0.41552734375,-0.265625
2023-07-29T20:36:18.649030,0.9591034054756165,-0.02502860315144062,-0.06132837384939194,0.2751964032649994,-0.87158203125,-0.41552734375,-0.265625
2023-07-29T20:36:18.656385,0.9591034054756165,-0.02502860315144062,-0.06132837384939194,0.2751964032649994,-0.8857421875,-0.3955078125,-0.2470703125
2023-07-29T20:36:18.657383,0.9586057662963867,-0.026256723329424858,-0.06443517655134201,0.2761043906211853,-0.8857421875,-0.3955078125,-0.2470703125
2023-07-29T20:36:18.672046,0.9586057662963867,-0.026256723329424858,-0.06443517655134201,0.2761043906211853,-0.904296875,-0.3701171875,-0.23095703125
2023-07-29T20:36:18.672046,0.9580879211425781,-0.02727733552455902,-0.06725805252790451,0.2771280109882355,-0.904296875,-0.3701171875,-0.23095703125
2023-07-29T20:36:18.679111,0.9580879211425781,-0.02727733552455902,-0.06725805252790451,0.2771280109882355,-0.9248046875,-0.34423828125,-0.1865234375
2023-07-29T20:36:18.679111,0.9576143026351929,-0.028527401387691498,-0.06966453045606613,0.27804306149482727,-0.9248046875,-0.34423828125,-0.1865234375
2023-07-29T20:36:18.686227,0.9576143026351929,-0.028527401387691498,-0.06966453045606613,0.27804306149482727,-0.9375,-0.2978515625,-0.197265625
2023-07-29T20:36:18.687223,0.9572346210479736,-0.02974691241979599,-0.07191881537437439,0.2786478102207184,-0.9375,-0.2978515625,-0.197265625
2023-07-29T20:36:18.702221,0.9572346210479736,-0.02974691241979599,-0.07191881537437439,0.2786478102207184,-0.9296875,-0.29443359375,-0.22119140625
2023-07-29T20:36:18.702221,0.9569351077079773,-0.030889473855495453,-0.07398157566785812,0.2790118455886841,-0.9296875,-0.29443359375,-0.22119140625
2023-07-29T20:36:18.709259,0.9569351077079773,-0.030889473855495453,-0.07398157566785812,0.2790118455886841,-0.92529296875,-0.294921875,-0.2216796875
2023-07-29T20:36:18.716369,0.9566893577575684,-0.03234928101301193,-0.07589562237262726,0.27917516231536865,-0.92529296875,-0.294921875,-0.2216796875
2023-07-29T20:36:18.717367,0.9566893577575684,-0.03234928101301193,-0.07589562237262726,0.27917516231536865,-0.9248046875,-0.2978515625,-0.24951171875
2023-07-29T20:36:18.718364,0.9564754366874695,-0.03351707383990288,-0.07801824808120728,0.27918538451194763,-0.9248046875,-0.2978515625,-0.24951171875
2023-07-29T20:36:18.731784,0.9564754366874695,-0.03351707383990288,-0.07801824808120728,0.27918538451194763,-0.91015625,-0.3017578125,-0.236328125
2023-07-29T20:36:18.732288,0.9563021659851074,-0.034105245023965836,-0.07997091859579086,0.27915525436401367,-0.91015625,-0.3017578125,-0.236328125
2023-07-29T20:36:18.739279,0.9563021659851074,-0.034105245023965836,-0.07997091859579086,0.27915525436401367,-0.9111328125,-0.30810546875,-0.2109375
2023-07-29T20:36:18.739279,0.9561487436294556,-0.034304890781641006,-0.08170068264007568,0.2791554629802704,-0.9111328125,-0.30810546875,-0.2109375
2023-07-29T20:36:18.747207,0.9561487436294556,-0.034304890781641006,-0.08170068264007568,0.2791554629802704,-0.92041015625,-0.3037109375,-0.20458984375
2023-07-29T20:36:18.747207,0.9560449719429016,-0.034315064549446106,-0.0832621157169342,0.27904820442199707,-0.92041015625,-0.3037109375,-0.20458984375
2023-07-29T20:36:18.761189,0.9560449719429016,-0.034315064549446106,-0.0832621157169342,0.27904820442199707,-0.93359375,-0.30126953125,-0.18359375
2023-07-29T20:36:18.763271,0.9560367465019226,-0.03424707055091858,-0.08474837988615036,0.2786370515823364,-0.93359375,-0.30126953125,-0.18359375
2023-07-29T20:36:18.769257,0.9560367465019226,-0.03424707055091858,-0.08474837988615036,0.2786370515823364,-0.9169921875,-0.3271484375,-0.13623046875
2023-07-29T20:36:18.769257,0.9560657739639282,-0.03450632840394974,-0.08578985929489136,0.27818629145622253,-0.9169921875,-0.3271484375,-0.13623046875
2023-07-29T20:36:18.776982,0.9560657739639282,-0.03450632840394974,-0.08578985929489136,0.27818629145622253,-0.91259765625,-0.33544921875,-0.14208984375
2023-07-29T20:36:18.776982,0.9560955762863159,-0.03486752510070801,-0.08646663278341293,0.2778291404247284,-0.91259765625,-0.33544921875,-0.14208984375
2023-07-29T20:36:18.791992,0.9560955762863159,-0.03486752510070801,-0.08646663278341293,0.2778291404247284,-0.908203125,-0.35498046875,-0.14453125
2023-07-29T20:36:18.791992,0.9561293125152588,-0.03510962054133415,-0.08660201728343964,0.27764028310775757,-0.908203125,-0.35498046875,-0.14453125
2023-07-29T20:36:18.798986,0.9561293125152588,-0.03510962054133415,-0.08660201728343964,0.27764028310775757,-0.90625,-0.36474609375,-0.1640625
2023-07-29T20:36:18.799983,0.956178605556488,-0.0350261852145195,-0.08608123660087585,0.2776430547237396,-0.90625,-0.36474609375,-0.1640625
2023-07-29T20:36:18.805999,0.956178605556488,-0.0350261852145195,-0.08608123660087585,0.2776430547237396,-0.9033203125,-0.365234375,-0.15625
2023-07-29T20:36:18.806994,0.956306517124176,-0.034507788717746735,-0.08474643528461456,0.277677983045578,-0.9033203125,-0.365234375,-0.15625
2023-07-29T20:36:18.822061,0.956306517124176,-0.034507788717746735,-0.08474643528461456,0.277677983045578,-0.8935546875,-0.3779296875,-0.18115234375
2023-07-29T20:36:18.823060,0.9565044045448303,-0.03321162611246109,-0.08268531411886215,0.27777591347694397,-0.8935546875,-0.3779296875,-0.18115234375
2023-07-29T20:36:18.829044,0.9565044045448303,-0.03321162611246109,-0.08268531411886215,0.27777591347694397,-0.88916015625,-0.37890625,-0.12841796875
2023-07-29T20:36:18.830042,0.9567397236824036,-0.03182859718799591,-0.07990019768476486,0.2779427170753479,-0.88916015625,-0.37890625,-0.12841796875
2023-07-29T20:36:18.838208,0.9567397236824036,-0.03182859718799591,-0.07990019768476486,0.2779427170753479,-0.9130859375,-0.33447265625,-0.15625
2023-07-29T20:36:18.838208,0.9570022821426392,-0.03080722503364086,-0.07733381539583206,0.2778797149658203,-0.9130859375,-0.33447265625,-0.15625
2023-07-29T20:36:18.851320,0.9570022821426392,-0.03080722503364086,-0.07733381539583206,0.2778797149658203,-0.90966796875,-0.31494140625,-0.27490234375
2023-07-29T20:36:18.852341,0.9571438431739807,-0.03033037669956684,-0.07589354366064072,0.2778415083885193,-0.90966796875,-0.31494140625,-0.27490234375
2023-07-29T20:36:18.858707,0.9571438431739807,-0.03033037669956684,-0.07589354366064072,0.2778415083885193,-0.91015625,-0.3076171875,-0.35205078125
2023-07-29T20:36:18.859703,0.9572852253913879,-0.02945784665644169,-0.0754844918847084,0.277559369802475,-0.91015625,-0.3076171875,-0.35205078125
2023-07-29T20:36:18.866226,0.9572852253913879,-0.02945784665644169,-0.0754844918847084,0.277559369802475,-0.9130859375,-0.32666015625,-0.28466796875
2023-07-29T20:36:18.868221,0.957454264163971,-0.028416236862540245,-0.07533569633960724,0.2771250903606415,-0.9130859375,-0.32666015625,-0.28466796875
2023-07-29T20:36:18.873465,0.957454264163971,-0.028416236862540245,-0.07533569633960724,0.2771250903606415,-0.91015625,-0.361328125,-0.22412109375
2023-07-29T20:36:18.881950,0.9576358199119568,-0.027085192501544952,-0.07507076859474182,0.27670276165008545,-0.91015625,-0.361328125,-0.22412109375
2023-07-29T20:36:18.889312,0.9576358199119568,-0.027085192501544952,-0.07507076859474182,0.27670276165008545,-0.9140625,-0.375,-0.18408203125
2023-07-29T20:36:18.889312,0.957855761051178,-0.02543753758072853,-0.07434875518083572,0.27629247307777405,-0.9140625,-0.375,-0.18408203125
2023-07-29T20:36:18.897330,0.957855761051178,-0.02543753758072853,-0.07434875518083572,0.27629247307777405,-0.9072265625,-0.38134765625,-0.12353515625
2023-07-29T20:36:18.897330,0.9581546783447266,-0.023822477087378502,-0.0728863999247551,0.2757892906665802,-0.9072265625,-0.38134765625,-0.12353515625
2023-07-29T20:36:18.904423,0.9581546783447266,-0.023822477087378502,-0.0728863999247551,0.2757892906665802,-0.8837890625,-0.3955078125,-0.1123046875
2023-07-29T20:36:18.911406,0.9584026336669922,-0.02230931632220745,-0.07088516652584076,0.27557575702667236,-0.8837890625,-0.3955078125,-0.1123046875
2023-07-29T20:36:18.919413,0.9584026336669922,-0.02230931632220745,-0.07088516652584076,0.27557575702667236,-0.8740234375,-0.3896484375,-0.0986328125
2023-07-29T20:36:18.920411,0.9585580229759216,-0.020955802872776985,-0.06879176199436188,0.2756718397140503,-0.8740234375,-0.3896484375,-0.0986328125
2023-07-29T20:36:18.926909,0.9585580229759216,-0.020955802872776985,-0.06879176199436188,0.2756718397140503,-0.86669921875,-0.3876953125,-0.08544921875
2023-07-29T20:36:18.926909,0.9584433436393738,-0.02067691646516323,-0.06731344014406204,0.27645573019981384,-0.86669921875,-0.3876953125,-0.08544921875
2023-07-29T20:36:18.933921,0.9584433436393738,-0.02067691646516323,-0.06731344014406204,0.27645573019981384,-0.86474609375,-0.328125,-0.12451171875
2023-07-29T20:36:18.934917,0.9577966928482056,-0.022680027410387993,-0.06780358403921127,0.27841269969940186,-0.86474609375,-0.328125,-0.12451171875
2023-07-29T20:36:18.951056,0.9577966928482056,-0.022680027410387993,-0.06780358403921127,0.27841269969940186,-0.88037109375,-0.32763671875,-0.18603515625
2023-07-29T20:36:18.952038,0.9567084312438965,-0.025595802813768387,-0.0710388645529747,0.28108251094818115,-0.88037109375,-0.32763671875,-0.18603515625
2023-07-29T20:36:18.956445,0.9567084312438965,-0.025595802813768387,-0.0710388645529747,0.28108251094818115,-0.89990234375,-0.32666015625,-0.18896484375
2023-07-29T20:36:18.957443,0.9552883505821228,-0.029162243008613586,-0.07666026800870895,0.2840719223022461,-0.89990234375,-0.32666015625,-0.18896484375
2023-07-29T20:36:18.964037,0.9552883505821228,-0.029162243008613586,-0.07666026800870895,0.2840719223022461,-0.921875,-0.29345703125,-0.19921875
2023-07-29T20:36:18.965034,0.9538260102272034,-0.03427998349070549,-0.0833955928683281,0.28650644421577454,-0.921875,-0.29345703125,-0.19921875
2023-07-29T20:36:18.985131,0.9538260102272034,-0.03427998349070549,-0.0833955928683281,0.28650644421577454,-0.89892578125,-0.34326171875,-0.21875
2023-07-29T20:36:18.986128,0.9523841142654419,-0.04035700857639313,-0.0902300551533699,0.2884344756603241,-0.89892578125,-0.34326171875,-0.21875
2023-07-29T20:36:18.986128,0.9523841142654419,-0.04035700857639313,-0.0902300551533699,0.2884344756603241,-0.89599609375,-0.39208984375,-0.1923828125
2023-07-29T20:36:18.987127,0.9511540532112122,-0.045676086097955704,-0.09537027031183243,0.2900417447090149,-0.89599609375,-0.39208984375,-0.1923828125
2023-07-29T20:36:18.994248,0.9511540532112122,-0.045676086097955704,-0.09537027031183243,0.2900417447090149,-0.89111328125,-0.3916015625,-0.07421875
2023-07-29T20:36:18.994248,0.9499881863594055,-0.05054083466529846,-0.09871020168066025,0.291932076215744,-0.89111328125,-0.3916015625,-0.07421875
2023-07-29T20:36:19.009426,0.9499881863594055,-0.05054083466529846,-0.09871020168066025,0.291932076215744,-0.9013671875,-0.3720703125,-0.06591796875
2023-07-29T20:36:19.010424,0.9488983750343323,-0.054727472364902496,-0.1005220115184784,0.29409536719322205,-0.9013671875,-0.3720703125,-0.06591796875
2023-07-29T20:36:19.016293,0.9488983750343323,-0.054727472364902496,-0.1005220115184784,0.29409536719322205,-0.89306640625,-0.353515625,-0.10546875
2023-07-29T20:36:19.017291,0.9478330016136169,-0.05850498750805855,-0.10076922178268433,0.29670748114585876,-0.89306640625,-0.353515625,-0.10546875
2023-07-29T20:36:19.024404,0.9478330016136169,-0.05850498750805855,-0.10076922178268433,0.29670748114585876,-0.91064453125,-0.3037109375,-0.21337890625
2023-07-29T20:36:19.024404,0.9470073580741882,-0.061950914561748505,-0.10042321681976318,0.29875463247299194,-0.91064453125,-0.3037109375,-0.21337890625
2023-07-29T20:36:19.058435,0.9470073580741882,-0.061950914561748505,-0.10042321681976318,0.29875463247299194,-0.9140625,-0.2919921875,-0.296875
2023-07-29T20:36:19.059433,0.9463555216789246,-0.06502141058444977,-0.0997191071510315,0.3003990352153778,-0.9140625,-0.2919921875,-0.296875
2023-07-29T20:36:19.059433,0.9463555216789246,-0.06502141058444977,-0.0997191071510315,0.3003990352153778,-0.93359375,-0.26904296875,-0.341796875
2023-07-29T20:36:19.060432,0.9456963539123535,-0.06753198802471161,-0.09934378415346146,0.30204084515571594,-0.93359375,-0.26904296875,-0.341796875
2023-07-29T20:36:19.061428,0.9456963539123535,-0.06753198802471161,-0.09934378415346146,0.30204084515571594,-0.95068359375,-0.236328125,-0.38525390625
2023-07-29T20:36:19.061931,0.9450190663337708,-0.06951307505369186,-0.09979704022407532,0.3035578727722168,-0.95068359375,-0.236328125,-0.38525390625
2023-07-29T20:36:19.069925,0.9450190663337708,-0.06951307505369186,-0.09979704022407532,0.3035578727722168,-0.94873046875,-0.259765625,-0.32080078125
2023-07-29T20:36:19.069925,0.9445203542709351,-0.07077840715646744,-0.1001226082444191,0.3047083616256714,-0.94873046875,-0.259765625,-0.32080078125
2023-07-29T20:36:19.077136,0.9445203542709351,-0.07077840715646744,-0.1001226082444191,0.3047083616256714,-0.951171875,-0.31103515625,-0.23095703125
2023-07-29T20:36:19.077136,0.9442407488822937,-0.07115877419710159,-0.09953600913286209,0.30567705631256104,-0.951171875,-0.31103515625,-0.23095703125
2023-07-29T20:36:19.084248,0.9442407488822937,-0.07115877419710159,-0.09953600913286209,0.30567705631256104,-0.95458984375,-0.3203125,-0.22021484375
2023-07-29T20:36:19.085245,0.9441336393356323,-0.07100589573383331,-0.09802287071943283,0.3065311312675476,-0.95458984375,-0.3203125,-0.22021484375
2023-07-29T20:36:19.099280,0.9441336393356323,-0.07100589573383331,-0.09802287071943283,0.3065311312675476,-0.95458984375,-0.2958984375,-0.19921875
2023-07-29T20:36:19.100278,0.944309413433075,-0.07045790553092957,-0.09497325122356415,0.3070757985115051,-0.95458984375,-0.2958984375,-0.19921875
2023-07-29T20:36:19.107310,0.944309413433075,-0.07045790553092957,-0.09497325122356415,0.3070757985115051,-0.95703125,-0.27978515625,-0.22265625
2023-07-29T20:36:19.108309,0.9446244239807129,-0.0694960281252861,-0.0909961685538292,0.3075300455093384,-0.95703125,-0.27978515625,-0.22265625
2023-07-29T20:36:19.114306,0.9446244239807129,-0.0694960281252861,-0.0909961685538292,0.3075300455093384,-0.9697265625,-0.1962890625,-0.26708984375
2023-07-29T20:36:19.115303,0.9451708793640137,-0.06802881509065628,-0.086820587515831,0.3073861002922058,-0.9697265625,-0.1962890625,-0.26708984375
2023-07-29T20:36:19.129288,0.9451708793640137,-0.06802881509065628,-0.086820587515831,0.3073861002922058,-0.96728515625,-0.17822265625,-0.2978515625
2023-07-29T20:36:19.130284,0.9457449316978455,-0.06667023152112961,-0.08328129351139069,0.3068970739841461,-0.96728515625,-0.17822265625,-0.2978515625
2023-07-29T20:36:19.136180,0.9457449316978455,-0.06667023152112961,-0.08328129351139069,0.3068970739841461,-0.94970703125,-0.19287109375,-0.34423828125
2023-07-29T20:36:19.137177,0.9463204145431519,-0.06519491225481033,-0.08029524236917496,0.3062351644039154,-0.94970703125,-0.19287109375,-0.34423828125
2023-07-29T20:36:19.144291,0.9463204145431519,-0.06519491225481033,-0.08029524236917496,0.3062351644039154,-0.93798828125,-0.216796875,-0.31884765625
2023-07-29T20:36:19.144291,0.9468710422515869,-0.06335849314928055,-0.07781421393156052,0.30555835366249084,-0.93798828125,-0.216796875,-0.31884765625
2023-07-29T20:36:19.151273,0.9468710422515869,-0.06335849314928055,-0.07781421393156052,0.30555835366249084,-0.919921875,-0.263671875,-0.27294921875
2023-07-29T20:36:19.159316,0.9473363757133484,-0.060891978442668915,-0.07508370280265808,0.3053004741668701,-0.919921875,-0.263671875,-0.27294921875
2023-07-29T20:36:19.166153,0.9473363757133484,-0.060891978442668915,-0.07508370280265808,0.3053004741668701,-0.9296875,-0.24267578125,-0.26171875
2023-07-29T20:36:19.167151,0.947845458984375,-0.05794034153223038,-0.07193858176469803,0.3050518333911896,-0.9296875,-0.24267578125,-0.26171875
2023-07-29T20:36:19.174340,0.947845458984375,-0.05794034153223038,-0.07193858176469803,0.3050518333911896,-0.94580078125,-0.21435546875,-0.2255859375
2023-07-29T20:36:19.175337,0.9485241174697876,-0.05515487119555473,-0.0687180906534195,0.30420026183128357,-0.94580078125,-0.21435546875,-0.2255859375
2023-07-29T20:36:19.183830,0.9485241174697876,-0.05515487119555473,-0.0687180906534195,0.30420026183128357,-0.92138671875,-0.263671875,-0.18017578125
2023-07-29T20:36:19.184826,0.9493175745010376,-0.05263533070683479,-0.0649072453379631,0.3030061423778534,-0.92138671875,-0.263671875,-0.18017578125
2023-07-29T20:36:19.196325,0.9493175745010376,-0.05263533070683479,-0.0649072453379631,0.3030061423778534,-0.92138671875,-0.26123046875,-0.19970703125
2023-07-29T20:36:19.197324,0.9501230716705322,-0.050219714641571045,-0.061009157449007034,0.30169856548309326,-0.92138671875,-0.26123046875,-0.19970703125
2023-07-29T20:36:19.204623,0.9501230716705322,-0.050219714641571045,-0.061009157449007034,0.30169856548309326,-0.9267578125,-0.22216796875,-0.2626953125
2023-07-29T20:36:19.205619,0.9508147835731506,-0.048201218247413635,-0.05796373263001442,0.300446480512619,-0.9267578125,-0.22216796875,-0.2626953125
2023-07-29T20:36:19.212114,0.9508147835731506,-0.048201218247413635,-0.05796373263001442,0.300446480512619,-0.92333984375,-0.20458984375,-0.31005859375
2023-07-29T20:36:19.212114,0.9513994455337524,-0.046797025948762894,-0.05659554526209831,0.29907524585723877,-0.92333984375,-0.20458984375,-0.31005859375
2023-07-29T20:36:19.227118,0.9513994455337524,-0.046797025948762894,-0.05659554526209831,0.29907524585723877,-0.89599609375,-0.27197265625,-0.25244140625
2023-07-29T20:36:19.227118,0.9518659710884094,-0.0457686223089695,-0.05586063489317894,0.297885924577713,-0.89599609375,-0.27197265625,-0.25244140625
2023-07-29T20:36:19.234336,0.9518659710884094,-0.0457686223089695,-0.05586063489317894,0.297885924577713,-0.8779296875,-0.3271484375,-0.17822265625
2023-07-29T20:36:19.234336,0.9522290825843811,-0.04487558826804161,-0.05471258610486984,0.29707327485084534,-0.8779296875,-0.3271484375,-0.17822265625
2023-07-29T20:36:19.242338,0.9522290825843811,-0.04487558826804161,-0.05471258610486984,0.29707327485084534,-0.88330078125,-0.31884765625,-0.17138671875
2023-07-29T20:36:19.242338,0.9524469971656799,-0.04425634443759918,-0.0535210482776165,0.2966843247413635,-0.88330078125,-0.31884765625,-0.17138671875
2023-07-29T20:36:19.257098,0.9524469971656799,-0.04425634443759918,-0.0535210482776165,0.2966843247413635,-0.8994140625,-0.29296875,-0.17431640625
2023-07-29T20:36:19.257098,0.9524568319320679,-0.04493691027164459,-0.053084101527929306,0.29662883281707764,-0.8994140625,-0.29296875,-0.17431640625
2023-07-29T20:36:19.266234,0.9524568319320679,-0.04493691027164459,-0.053084101527929306,0.29662883281707764,-0.92041015625,-0.2568359375,-0.23974609375
2023-07-29T20:36:19.267233,0.9523435831069946,-0.046843454241752625,-0.05400780215859413,0.2965308427810669,-0.92041015625,-0.2568359375,-0.23974609375
2023-07-29T20:36:19.271221,0.9523435831069946,-0.046843454241752625,-0.05400780215859413,0.2965308427810669,-0.9326171875,-0.25244140625,-0.30859375
2023-07-29T20:36:19.272338,0.952196478843689,-0.04963165894150734,-0.05624687671661377,0.29613304138183594,-0.9326171875,-0.25244140625,-0.30859375
2023-07-29T20:36:19.288936,0.952196478843689,-0.04963165894150734,-0.05624687671661377,0.29613304138183594,-0.9033203125,-0.29833984375,-0.28466796875
2023-07-29T20:36:19.288936,0.9519097805023193,-0.05352669581770897,-0.0592167004942894,0.2957972586154938,-0.9033203125,-0.29833984375,-0.28466796875
2023-07-29T20:36:19.297023,0.9519097805023193,-0.05352669581770897,-0.0592167004942894,0.2957972586154938,-0.8759765625,-0.3701171875,-0.259765625
2023-07-29T20:36:19.299014,0.9514212012290955,-0.05759768560528755,-0.06212044134736061,0.2960088849067688,-0.8759765625,-0.3701171875,-0.259765625
2023-07-29T20:36:19.302072,0.9514212012290955,-0.05759768560528755,-0.06212044134736061,0.2960088849067688,-0.87939453125,-0.3837890625,-0.26708984375
2023-07-29T20:36:19.303230,0.9509439468383789,-0.06056923791766167,-0.0639374628663063,0.29656195640563965,-0.87939453125,-0.3837890625,-0.26708984375
2023-07-29T20:36:19.319061,0.9509439468383789,-0.06056923791766167,-0.0639374628663063,0.29656195640563965,-0.904296875,-0.34375,-0.27392578125
2023-07-29T20:36:19.320057,0.9504603743553162,-0.06299640983343124,-0.06509889662265778,0.2973525822162628,-0.904296875,-0.34375,-0.27392578125
2023-07-29T20:36:19.327157,0.9504603743553162,-0.06299640983343124,-0.06509889662265778,0.2973525822162628,-0.9267578125,-0.28857421875,-0.298828125
2023-07-29T20:36:19.328154,0.9500572681427002,-0.06502819061279297,-0.06582179665565491,0.29804348945617676,-0.9267578125,-0.28857421875,-0.298828125
2023-07-29T20:36:19.332154,0.9500572681427002,-0.06502819061279297,-0.06582179665565491,0.29804348945617676,-0.93505859375,-0.26904296875,-0.318359375
2023-07-29T20:36:19.333166,0.9497658610343933,-0.06635800749063492,-0.0661807507276535,0.2985992133617401,-0.93505859375,-0.26904296875,-0.318359375
2023-07-29T20:36:19.348159,0.9497658610343933,-0.06635800749063492,-0.0661807507276535,0.2985992133617401,-0.9423828125,-0.23828125,-0.326171875
2023-07-29T20:36:19.349156,0.9496447443962097,-0.0670246109366417,-0.06636829674243927,0.29879382252693176,-0.9423828125,-0.23828125,-0.326171875
2023-07-29T20:36:19.358161,0.9496447443962097,-0.0670246109366417,-0.06636829674243927,0.29879382252693176,-0.93798828125,-0.23046875,-0.3115234375
2023-07-29T20:36:19.358161,0.9496015310287476,-0.0675424113869667,-0.06660816073417664,0.2987609803676605,-0.93798828125,-0.23046875,-0.3115234375
2023-07-29T20:36:19.377163,0.9496015310287476,-0.0675424113869667,-0.06660816073417664,0.2987609803676605,-0.93115234375,-0.24560546875,-0.2998046875
2023-07-29T20:36:19.377163,0.9497081637382507,-0.0675615444779396,-0.06650028377771378,0.2984418570995331,-0.93115234375,-0.24560546875,-0.2998046875
2023-07-29T20:36:19.378161,0.9497081637382507,-0.0675615444779396,-0.06650028377771378,0.2984418570995331,-0.9267578125,-0.27685546875,-0.2802734375
2023-07-29T20:36:19.379157,0.9499801993370056,-0.06701874732971191,-0.06583601236343384,0.29784509539604187,-0.9267578125,-0.27685546875,-0.2802734375
2023-07-29T20:36:19.385167,0.9499801993370056,-0.06701874732971191,-0.06583601236343384,0.29784509539604187,-0.90966796875,-0.3251953125,-0.22998046875
2023-07-29T20:36:19.387162,0.9502804279327393,-0.06641809642314911,-0.06462576985359192,0.29728639125823975,-0.90966796875,-0.3251953125,-0.22998046875
2023-07-29T20:36:19.395166,0.9502804279327393,-0.06641809642314911,-0.06462576985359192,0.29728639125823975,-0.8935546875,-0.3486328125,-0.22998046875
2023-07-29T20:36:19.395166,0.950562596321106,-0.06564459949731827,-0.06314118951559067,0.29687485098838806,-0.8935546875,-0.3486328125,-0.22998046875
2023-07-29T20:36:19.407162,0.950562596321106,-0.06564459949731827,-0.06314118951559067,0.29687485098838806,-0.880859375,-0.3447265625,-0.20849609375
2023-07-29T20:36:19.409156,0.9508424401283264,-0.0649072602391243,-0.06106757000088692,0.29657456278800964,-0.880859375,-0.3447265625,-0.20849609375
2023-07-29T20:36:19.415340,0.9508424401283264,-0.0649072602391243,-0.06106757000088692,0.29657456278800964,-0.88427734375,-0.333984375,-0.21875
2023-07-29T20:36:19.416338,0.9510475993156433,-0.06439816206693649,-0.05868452414870262,0.2965085506439209,-0.88427734375,-0.333984375,-0.21875
2023-07-29T20:36:19.445373,0.9510475993156433,-0.06439816206693649,-0.05868452414870262,0.2965085506439209,-0.90283203125,-0.2880859375,-0.314453125
2023-07-29T20:36:19.446368,0.9511197209358215,-0.06385188549757004,-0.05739123001694679,0.2966487407684326,-0.90283203125,-0.2880859375,-0.314453125
2023-07-29T20:36:19.450358,0.9511197209358215,-0.06385188549757004,-0.05739123001694679,0.2966487407684326,-0.90234375,-0.267578125,-0.34912109375
2023-07-29T20:36:19.450358,0.9511889219284058,-0.06334181874990463,-0.056412264704704285,0.2967239320278168,-0.90234375,-0.267578125,-0.34912109375
2023-07-29T20:36:19.451355,0.9511889219284058,-0.06334181874990463,-0.056412264704704285,0.2967239320278168,-0.90380859375,-0.2685546875,-0.3505859375
2023-07-29T20:36:19.452365,0.9512848258018494,-0.06234239786863327,-0.055688466876745224,0.29676491022109985,-0.90380859375,-0.2685546875,-0.3505859375
2023-07-29T20:36:19.454375,0.9512848258018494,-0.06234239786863327,-0.055688466876745224,0.29676491022109985,-0.916015625,-0.24755859375,-0.33251953125
2023-07-29T20:36:19.454375,0.9514915347099304,-0.06060587242245674,-0.05475865676999092,0.2966349422931671,-0.916015625,-0.24755859375,-0.33251953125
2023-07-29T20:36:19.459362,0.9514915347099304,-0.06060587242245674,-0.05475865676999092,0.2966349422931671,-0.9287109375,-0.23095703125,-0.29052734375
2023-07-29T20:36:19.475285,0.9518318176269531,-0.05849204212427139,-0.053953297436237335,0.29611438512802124,-0.9287109375,-0.23095703125,-0.29052734375
2023-07-29T20:36:19.476283,0.9518318176269531,-0.05849204212427139,-0.053953297436237335,0.29611438512802124,-0.9091796875,-0.27392578125,-0.25146484375
2023-07-29T20:36:19.477280,0.9522597789764404,-0.056161362677812576,-0.05270946025848389,0.2954128682613373,-0.9091796875,-0.27392578125,-0.25146484375
2023-07-29T20:36:19.481773,0.9522597789764404,-0.056161362677812576,-0.05270946025848389,0.2954128682613373,-0.9033203125,-0.296875,-0.24755859375
2023-07-29T20:36:19.482277,0.9527100324630737,-0.05388806760311127,-0.05115063861012459,0.294657826423645,-0.9033203125,-0.296875,-0.24755859375
2023-07-29T20:36:19.489424,0.9527100324630737,-0.05388806760311127,-0.05115063861012459,0.294657826423645,-0.8994140625,-0.30810546875,-0.23779296875
2023-07-29T20:36:19.489424,0.9530975222587585,-0.05222940817475319,-0.049726348370313644,0.29394641518592834,-0.8994140625,-0.30810546875,-0.23779296875
2023-07-29T20:36:19.504576,0.9530975222587585,-0.05222940817475319,-0.049726348370313644,0.29394641518592834,-0.87646484375,-0.3427734375,-0.22998046875
2023-07-29T20:36:19.504576,0.9532433152198792,-0.05127900838851929,-0.04879740998148918,0.29379674792289734,-0.87646484375,-0.3427734375,-0.22998046875
2023-07-29T20:36:19.511069,0.9532433152198792,-0.05127900838851929,-0.04879740998148918,0.29379674792289734,-0.8681640625,-0.35400390625,-0.2529296875
2023-07-29T20:36:19.512067,0.9531874656677246,-0.05041351169347763,-0.04841833934187889,0.2941899597644806,-0.8681640625,-0.35400390625,-0.2529296875
2023-07-29T20:36:19.519081,0.9531874656677246,-0.05041351169347763,-0.04841833934187889,0.2941899597644806,-0.8740234375,-0.3349609375,-0.263671875
2023-07-29T20:36:19.520078,0.9529595375061035,-0.05002480372786522,-0.048519015312194824,0.2949773073196411,-0.8740234375,-0.3349609375,-0.263671875
2023-07-29T20:36:19.534503,0.9529595375061035,-0.05002480372786522,-0.048519015312194824,0.2949773073196411,-0.8916015625,-0.302734375,-0.294921875
2023-07-29T20:36:19.534503,0.9526243805885315,-0.05009639635682106,-0.04950399324297905,0.2958827018737793,-0.8916015625,-0.302734375,-0.294921875
2023-07-29T20:36:19.545194,0.9526243805885315,-0.05009639635682106,-0.04950399324297905,0.2958827018737793,-0.8916015625,-0.29443359375,-0.30615234375
2023-07-29T20:36:19.545194,0.9521056413650513,-0.050633978098630905,-0.05129566788673401,0.29715266823768616,-0.8916015625,-0.29443359375,-0.30615234375
2023-07-29T20:36:19.549183,0.9521056413650513,-0.050633978098630905,-0.05129566788673401,0.29715266823768616,-0.9072265625,-0.28076171875,-0.32666015625
2023-07-29T20:36:19.549183,0.9515770673751831,-0.05089415982365608,-0.053442638367414474,0.2984201908111572,-0.9072265625,-0.28076171875,-0.32666015625
2023-07-29T20:36:19.564221,0.9515770673751831,-0.05089415982365608,-0.053442638367414474,0.2984201908111572,-0.91259765625,-0.2666015625,-0.33251953125
2023-07-29T20:36:19.564221,0.951032817363739,-0.05099254101514816,-0.05594232305884361,0.2996775805950165,-0.91259765625,-0.2666015625,-0.33251953125
2023-07-29T20:36:19.571203,0.951032817363739,-0.05099254101514816,-0.05594232305884361,0.2996775805950165,-0.92236328125,-0.28125,-0.25927734375
2023-07-29T20:36:19.572258,0.9505770802497864,-0.05105658620595932,-0.05806674063205719,0.30070677399635315,-0.92236328125,-0.28125,-0.25927734375
2023-07-29T20:36:19.579251,0.9505770802497864,-0.05105658620595932,-0.05806674063205719,0.30070677399635315,-0.91943359375,-0.31103515625,-0.197265625
2023-07-29T20:36:19.580248,0.9501522183418274,-0.051170866936445236,-0.059687238186597824,0.30171144008636475,-0.91943359375,-0.31103515625,-0.197265625
2023-07-29T20:36:19.594356,0.9501522183418274,-0.051170866936445236,-0.059687238186597824,0.30171144008636475,-0.91357421875,-0.31396484375,-0.18408203125
2023-07-29T20:36:19.594356,0.9497774839401245,-0.051356732845306396,-0.06064071133732796,0.302668035030365,-0.91357421875,-0.31396484375,-0.18408203125
2023-07-29T20:36:19.601337,0.9497774839401245,-0.051356732845306396,-0.06064071133732796,0.302668035030365,-0.90625,-0.31494140625,-0.19580078125
2023-07-29T20:36:19.603004,0.9494612216949463,-0.05176256597042084,-0.06086316704750061,0.30354535579681396,-0.90625,-0.31494140625,-0.19580078125
2023-07-29T20:36:19.608992,0.9494612216949463,-0.05176256597042084,-0.06086316704750061,0.30354535579681396,-0.90576171875,-0.3017578125,-0.2333984375
2023-07-29T20:36:19.609988,0.9491227865219116,-0.05266735330224037,-0.061027996242046356,0.304413765668869,-0.90576171875,-0.3017578125,-0.2333984375
2023-07-29T20:36:19.624194,0.9491227865219116,-0.05266735330224037,-0.061027996242046356,0.304413765668869,-0.90087890625,-0.3017578125,-0.27978515625
2023-07-29T20:36:19.624194,0.948759913444519,-0.05342388525605202,-0.06101999059319496,0.3054128885269165,-0.90087890625,-0.3017578125,-0.27978515625
2023-07-29T20:36:19.631176,0.948759913444519,-0.05342388525605202,-0.06101999059319496,0.3054128885269165,-0.90283203125,-0.27880859375,-0.27734375
2023-07-29T20:36:19.632519,0.94838547706604,-0.05430742725729942,-0.06104651838541031,0.3064132034778595,-0.90283203125,-0.27880859375,-0.27734375
2023-07-29T20:36:19.639502,0.94838547706604,-0.05430742725729942,-0.06104651838541031,0.3064132034778595,-0.927734375,-0.2578125,-0.283203125
2023-07-29T20:36:19.639502,0.9480062127113342,-0.05530134215950966,-0.06145191937685013,0.3073265850543976,-0.927734375,-0.2578125,-0.283203125
2023-07-29T20:36:19.654062,0.9480062127113342,-0.05530134215950966,-0.06145191937685013,0.3073265850543976,-0.9423828125,-0.23388671875,-0.32861328125
2023-07-29T20:36:19.654062,0.9476261734962463,-0.05617078021168709,-0.06281799077987671,0.30806389451026917,-0.9423828125,-0.23388671875,-0.32861328125
2023-07-29T20:36:19.661042,0.9476261734962463,-0.05617078021168709,-0.06281799077987671,0.30806389451026917,-0.9248046875,-0.25244140625,-0.2958984375
2023-07-29T20:36:19.662338,0.9473696947097778,-0.05650728568434715,-0.06421753019094467,0.308502197265625,-0.9248046875,-0.25244140625,-0.2958984375
2023-07-29T20:36:19.669443,0.9473696947097778,-0.05650728568434715,-0.06421753019094467,0.308502197265625,-0.9150390625,-0.27783203125,-0.23486328125
2023-07-29T20:36:19.670420,0.9472377896308899,-0.05643413960933685,-0.06490181386470795,0.3087772727012634,-0.9150390625,-0.27783203125,-0.23486328125
2023-07-29T20:36:19.684023,0.9472377896308899,-0.05643413960933685,-0.06490181386470795,0.3087772727012634,-0.91796875,-0.28564453125,-0.2001953125
2023-07-29T20:36:19.684023,0.9471333026885986,-0.05643276125192642,-0.06521646678447723,0.3090319335460663,-0.91796875,-0.28564453125,-0.2001953125
2023-07-29T20:36:19.691513,0.9471333026885986,-0.05643276125192642,-0.06521646678447723,0.3090319335460663,-0.916015625,-0.2783203125,-0.2099609375
2023-07-29T20:36:19.692020,0.9470792412757874,-0.05645894631743431,-0.06533873081207275,0.3091670572757721,-0.916015625,-0.2783203125,-0.2099609375
2023-07-29T20:36:19.699189,0.9470792412757874,-0.05645894631743431,-0.06533873081207275,0.3091670572757721,-0.90478515625,-0.296875,-0.2138671875
2023-07-29T20:36:19.699189,0.9469587802886963,-0.05665242299437523,-0.06530667096376419,0.3095070719718933,-0.90478515625,-0.296875,-0.2138671875
2023-07-29T20:36:19.714410,0.9469587802886963,-0.05665242299437523,-0.06530667096376419,0.3095070719718933,-0.8974609375,-0.302734375,-0.20947265625
2023-07-29T20:36:19.714410,0.9468459486961365,-0.05671160668134689,-0.06490415334701538,0.3099256455898285,-0.8974609375,-0.302734375,-0.20947265625
2023-07-29T20:36:19.722400,0.9468459486961365,-0.05671160668134689,-0.06490415334701538,0.3099256455898285,-0.89404296875,-0.3125,-0.20458984375
2023-07-29T20:36:19.722400,0.9467269778251648,-0.05674883350729942,-0.06421114504337311,0.31042635440826416,-0.89404296875,-0.3125,-0.20458984375
2023-07-29T20:36:19.728546,0.9467269778251648,-0.05674883350729942,-0.06421114504337311,0.31042635440826416,-0.89208984375,-0.30224609375,-0.22607421875
2023-07-29T20:36:19.729543,0.946594774723053,-0.056979455053806305,-0.06314033269882202,0.31100645661354065,-0.89208984375,-0.30224609375,-0.22607421875
2023-07-29T20:36:19.736543,0.946594774723053,-0.056979455053806305,-0.06314033269882202,0.31100645661354065,-0.91162109375,-0.2607421875,-0.26123046875
2023-07-29T20:36:19.744161,0.9464548826217651,-0.057110052555799484,-0.06222677603363991,0.31159186363220215,-0.91162109375,-0.2607421875,-0.26123046875
2023-07-29T20:36:19.751144,0.9464548826217651,-0.057110052555799484,-0.06222677603363991,0.31159186363220215,-0.92529296875,-0.2197265625,-0.29052734375
2023-07-29T20:36:19.752389,0.9463014006614685,-0.057463813573122025,-0.06216929107904434,0.312004029750824,-0.92529296875,-0.2197265625,-0.29052734375
2023-07-29T20:36:19.758547,0.9463014006614685,-0.057463813573122025,-0.06216929107904434,0.312004029750824,-0.927734375,-0.22705078125,-0.283203125
2023-07-29T20:36:19.759539,0.9461460709571838,-0.05789956450462341,-0.06271401792764664,0.31228548288345337,-0.927734375,-0.22705078125,-0.283203125
2023-07-29T20:36:19.766536,0.9461460709571838,-0.05789956450462341,-0.06271401792764664,0.31228548288345337,-0.921875,-0.25,-0.25634765625
2023-07-29T20:36:19.774510,0.946056604385376,-0.05805720388889313,-0.06298233568668365,0.3124733567237854,-0.921875,-0.25,-0.25634765625
2023-07-29T20:36:19.781016,0.946056604385376,-0.05805720388889313,-0.06298233568668365,0.3124733567237854,-0.9150390625,-0.267578125,-0.2294921875
2023-07-29T20:36:19.782076,0.9460294842720032,-0.05790484696626663,-0.06269743293523788,0.3126406967639923,-0.9150390625,-0.267578125,-0.2294921875
2023-07-29T20:36:19.789279,0.9460294842720032,-0.05790484696626663,-0.06269743293523788,0.3126406967639923,-0.92041015625,-0.26416015625,-0.23388671875
2023-07-29T20:36:19.789279,0.9460071921348572,-0.057589273899793625,-0.06217791140079498,0.3128701448440552,-0.92041015625,-0.26416015625,-0.23388671875
2023-07-29T20:36:19.796557,0.9460071921348572,-0.057589273899793625,-0.06217791140079498,0.3128701448440552,-0.921875,-0.2568359375,-0.22998046875
2023-07-29T20:36:19.796557,0.9459793567657471,-0.057479970157146454,-0.06149107217788696,0.3131100833415985,-0.921875,-0.2568359375,-0.22998046875
2023-07-29T20:36:19.811046,0.9459793567657471,-0.057479970157146454,-0.06149107217788696,0.3131100833415985,-0.923828125,-0.2529296875,-0.24951171875
2023-07-29T20:36:19.812045,0.9459656476974487,-0.0573992095887661,-0.060795243829488754,0.3133021891117096,-0.923828125,-0.2529296875,-0.24951171875
2023-07-29T20:36:19.819119,0.9459656476974487,-0.0573992095887661,-0.060795243829488754,0.3133021891117096,-0.92626953125,-0.2509765625,-0.26220703125
2023-07-29T20:36:19.819119,0.945936381816864,-0.05739559233188629,-0.06021806225180626,0.3135024905204773,-0.92626953125,-0.2509765625,-0.26220703125
2023-07-29T20:36:19.826290,0.945936381816864,-0.05739559233188629,-0.06021806225180626,0.3135024905204773,-0.92724609375,-0.24853515625,-0.28076171875
2023-07-29T20:36:19.827286,0.9458767175674438,-0.05738410726189613,-0.05993463099002838,0.3137389123439789,-0.92724609375,-0.24853515625,-0.28076171875
2023-07-29T20:36:19.842012,0.9458767175674438,-0.05738410726189613,-0.05993463099002838,0.3137389123439789,-0.92041015625,-0.25341796875,-0.27392578125
2023-07-29T20:36:19.842012,0.9458122253417969,-0.057251982390880585,-0.05974893644452095,0.3139928877353668,-0.92041015625,-0.25341796875,-0.27392578125
2023-07-29T20:36:19.849446,0.9458122253417969,-0.057251982390880585,-0.05974893644452095,0.3139928877353668,-0.92626953125,-0.25732421875,-0.26904296875
2023-07-29T20:36:19.849446,0.9457792043685913,-0.0572475865483284,-0.05954783409833908,0.31413140892982483,-0.92626953125,-0.25732421875,-0.26904296875
2023-07-29T20:36:19.855941,0.9457792043685913,-0.0572475865483284,-0.05954783409833908,0.31413140892982483,-0.92529296875,-0.2509765625,-0.28076171875
2023-07-29T20:36:19.856939,0.9457578659057617,-0.057157017290592194,-0.059380125254392624,0.31424379348754883,-0.92529296875,-0.2509765625,-0.28076171875
2023-07-29T20:36:19.871017,0.9457578659057617,-0.057157017290592194,-0.059380125254392624,0.31424379348754883,-0.92138671875,-0.25244140625,-0.26708984375
2023-07-29T20:36:19.872362,0.9457960724830627,-0.05665077641606331,-0.05910693109035492,0.3142717480659485,-0.92138671875,-0.25244140625,-0.26708984375
2023-07-29T20:36:19.878596,0.9457960724830627,-0.05665077641606331,-0.05910693109035492,0.3142717480659485,-0.92138671875,-0.26708984375,-0.2373046875
2023-07-29T20:36:19.879593,0.945904552936554,-0.05552354082465172,-0.05841617286205292,0.31427568197250366,-0.92138671875,-0.26708984375,-0.2373046875
2023-07-29T20:36:19.886138,0.945904552936554,-0.05552354082465172,-0.05841617286205292,0.31427568197250366,-0.92578125,-0.25439453125,-0.2314453125
2023-07-29T20:36:19.887135,0.9461362957954407,-0.05403007194399834,-0.05720120668411255,0.3140619695186615,-0.92578125,-0.25439453125,-0.2314453125
2023-07-29T20:36:19.901283,0.9461362957954407,-0.05403007194399834,-0.05720120668411255,0.3140619695186615,-0.92041015625,-0.265625,-0.23095703125
2023-07-29T20:36:19.902282,0.9464191794395447,-0.05219149589538574,-0.055407825857400894,0.31384193897247314,-0.92041015625,-0.265625,-0.23095703125
2023-07-29T20:36:19.908592,0.9464191794395447,-0.05219149589538574,-0.055407825857400894,0.31384193897247314,-0.92041015625,-0.23779296875,-0.23876953125
2023-07-29T20:36:19.909589,0.9468774795532227,-0.05022577568888664,-0.053533218801021576,0.31310465931892395,-0.92041015625,-0.23779296875,-0.23876953125
2023-07-29T20:36:19.916135,0.9468774795532227,-0.05022577568888664,-0.053533218801021576,0.31310465931892395,-0.904296875,-0.28369140625,-0.22216796875
2023-07-29T20:36:19.917133,0.9473087787628174,-0.04869328811764717,-0.05155545473098755,0.31237295269966125,-0.904296875,-0.28369140625,-0.22216796875
2023-07-29T20:36:19.932030,0.9473087787628174,-0.04869328811764717,-0.05155545473098755,0.31237295269966125,-0.89599609375,-0.30224609375,-0.28466796875
2023-07-29T20:36:19.932101,0.9475092887878418,-0.047676652669906616,-0.05024819076061249,0.31213483214378357,-0.89599609375,-0.30224609375,-0.28466796875
2023-07-29T20:36:19.939084,0.9475092887878418,-0.047676652669906616,-0.05024819076061249,0.31213483214378357,-0.91064453125,-0.27294921875,-0.30419921875
2023-07-29T20:36:19.940082,0.9476099014282227,-0.047204889357089996,-0.04997686296701431,0.3119449019432068,-0.91064453125,-0.27294921875,-0.30419921875
2023-07-29T20:36:19.946226,0.9476099014282227,-0.047204889357089996,-0.04997686296701431,0.3119449019432068,-0.916015625,-0.28564453125,-0.29541015625
2023-07-29T20:36:19.947223,0.9475918412208557,-0.04719102010130882,-0.050270870327949524,0.3119543492794037,-0.916015625,-0.28564453125,-0.29541015625
2023-07-29T20:36:19.961205,0.9475918412208557,-0.04719102010130882,-0.050270870327949524,0.3119543492794037,-0.9130859375,-0.29833984375,-0.2763671875
2023-07-29T20:36:19.962393,0.9475493431091309,-0.046820830553770065,-0.050374507904052734,0.31212255358695984,-0.9130859375,-0.29833984375,-0.2763671875
2023-07-29T20:36:19.968620,0.9475493431091309,-0.046820830553770065,-0.050374507904052734,0.31212255358695984,-0.91796875,-0.26611328125,-0.2587890625
2023-07-29T20:36:19.969616,0.9475921392440796,-0.0461609847843647,-0.04998897388577461,0.3121526837348938,-0.91796875,-0.26611328125,-0.2587890625
2023-07-29T20:36:19.976220,0.9475921392440796,-0.0461609847843647,-0.04998897388577461,0.3121526837348938,-0.927734375,-0.25634765625,-0.21484375
2023-07-29T20:36:19.977218,0.9476942420005798,-0.04551239684224129,-0.04932501167058945,0.3120437562465668,-0.927734375,-0.25634765625,-0.21484375
2023-07-29T20:36:19.991892,0.9476942420005798,-0.04551239684224129,-0.04932501167058945,0.3120437562465668,-0.9189453125,-0.26953125,-0.2099609375
2023-07-29T20:36:19.992395,0.9478332996368408,-0.04492909833788872,-0.04805835708975792,0.31190353631973267,-0.9189453125,-0.26953125,-0.2099609375
2023-07-29T20:36:19.998857,0.9478332996368408,-0.04492909833788872,-0.04805835708975792,0.31190353631973267,-0.9189453125,-0.24267578125,-0.25341796875
2023-07-29T20:36:19.999855,0.9480924010276794,-0.0441463440656662,-0.046746350824832916,0.3114267885684967,-0.9189453125,-0.24267578125,-0.25341796875
2023-07-29T20:36:20.006506,0.9480924010276794,-0.0441463440656662,-0.046746350824832916,0.3114267885684967,-0.91552734375,-0.2666015625,-0.26953125
2023-07-29T20:36:20.006506,0.9483122825622559,-0.043583501130342484,-0.04530747979879379,0.3110489249229431,-0.91552734375,-0.2666015625,-0.26953125
2023-07-29T20:36:20.014081,0.9483122825622559,-0.043583501130342484,-0.04530747979879379,0.3110489249229431,-0.91064453125,-0.25439453125,-0.337890625
2023-07-29T20:36:20.021988,0.9485167860984802,-0.04317476972937584,-0.04435371235013008,0.31061986088752747,-0.91064453125,-0.25439453125,-0.337890625
2023-07-29T20:36:20.029296,0.9485167860984802,-0.04317476972937584,-0.04435371235013008,0.31061986088752747,-0.90576171875,-0.26025390625,-0.349609375
2023-07-29T20:36:20.029296,0.9486960172653198,-0.04294804483652115,-0.044070951640605927,0.3101435899734497,-0.90576171875,-0.26025390625,-0.349609375
2023-07-29T20:36:20.036295,0.9486960172653198,-0.04294804483652115,-0.044070951640605927,0.3101435899734497,-0.90625,-0.294921875,-0.30810546875
2023-07-29T20:36:20.037293,0.9488050937652588,-0.042870182543992996,-0.04382507875561714,0.30985549092292786,-0.90625,-0.294921875,-0.30810546875
2023-07-29T20:36:20.044116,0.9488050937652588,-0.042870182543992996,-0.04382507875561714,0.30985549092292786,-0.9130859375,-0.27880859375,-0.32080078125
2023-07-29T20:36:20.044116,0.9488577842712402,-0.0428902730345726,-0.044165484607219696,0.30964305996894836,-0.9130859375,-0.27880859375,-0.32080078125
2023-07-29T20:36:20.059095,0.9488577842712402,-0.0428902730345726,-0.044165484607219696,0.30964305996894836,-0.90673828125,-0.29248046875,-0.29150390625
2023-07-29T20:36:20.059095,0.9488478302955627,-0.043026722967624664,-0.04457228630781174,0.30959638953208923,-0.90673828125,-0.29248046875,-0.29150390625
2023-07-29T20:36:20.066195,0.9488478302955627,-0.043026722967624664,-0.04457228630781174,0.30959638953208923,-0.90966796875,-0.30859375,-0.26611328125
2023-07-29T20:36:20.067193,0.9488508105278015,-0.04296102002263069,-0.04455084726214409,0.30959948897361755,-0.90966796875,-0.30859375,-0.26611328125
2023-07-29T20:36:20.074186,0.9488508105278015,-0.04296102002263069,-0.04455084726214409,0.30959948897361755,-0.91748046875,-0.28662109375,-0.291015625
2023-07-29T20:36:20.074186,0.9489328265190125,-0.04249134659767151,-0.04421360045671463,0.3094610273838043,-0.91748046875,-0.28662109375,-0.291015625
2023-07-29T20:36:20.089159,0.9489328265190125,-0.04249134659767151,-0.04421360045671463,0.3094610273838043,-0.91748046875,-0.2841796875,-0.29345703125
2023-07-29T20:36:20.089159,0.9490720629692078,-0.04193122312426567,-0.04346600919961929,0.30921614170074463,-0.91748046875,-0.2841796875,-0.29345703125
2023-07-29T20:36:20.096437,0.9490720629692078,-0.04193122312426567,-0.04346600919961929,0.30921614170074463,-0.91845703125,-0.2666015625,-0.3173828125
2023-07-29T20:36:20.097433,0.9492624402046204,-0.04108718782663345,-0.04282844066619873,0.30883386731147766,-0.91845703125,-0.2666015625,-0.3173828125
2023-07-29T20:36:20.104316,0.9492624402046204,-0.04108718782663345,-0.04282844066619873,0.30883386731147766,-0.92236328125,-0.26123046875,-0.310546875
2023-07-29T20:36:20.104316,0.9495065808296204,-0.040111243724823,-0.04229066148400307,0.30828526616096497,-0.92236328125,-0.26123046875,-0.310546875
2023-07-29T20:36:20.119289,0.9495065808296204,-0.040111243724823,-0.04229066148400307,0.30828526616096497,-0.9189453125,-0.2861328125,-0.2890625
2023-07-29T20:36:20.119289,0.9497727751731873,-0.03913860768079758,-0.041735779494047165,0.3076653480529785,-0.9189453125,-0.2861328125,-0.2890625
2023-07-29T20:36:20.126286,0.9497727751731873,-0.03913860768079758,-0.041735779494047165,0.3076653480529785,-0.9130859375,-0.287109375,-0.29833984375
2023-07-29T20:36:20.127283,0.9500834941864014,-0.03795266151428223,-0.041263122111558914,0.3069174289703369,-0.9130859375,-0.287109375,-0.29833984375
2023-07-29T20:36:20.134529,0.9500834941864014,-0.03795266151428223,-0.041263122111558914,0.3069174289703369,-0.9091796875,-0.29296875,-0.29345703125
2023-07-29T20:36:20.134529,0.9503623843193054,-0.036874957382678986,-0.04103367030620575,0.30621543526649475,-0.9091796875,-0.29296875,-0.29345703125
2023-07-29T20:36:20.149082,0.9503623843193054,-0.036874957382678986,-0.04103367030620575,0.30621543526649475,-0.90283203125,-0.30224609375,-0.2880859375
2023-07-29T20:36:20.150079,0.9505885243415833,-0.036074452102184296,-0.041192103177309036,0.3055868446826935,-0.90283203125,-0.30224609375,-0.2880859375
2023-07-29T20:36:20.156081,0.9505885243415833,-0.036074452102184296,-0.041192103177309036,0.3055868446826935,-0.888671875,-0.32666015625,-0.23876953125
2023-07-29T20:36:20.157078,0.9507648944854736,-0.035423394292593,-0.04100745543837547,0.3051387071609497,-0.888671875,-0.32666015625,-0.23876953125
2023-07-29T20:36:20.164149,0.9507648944854736,-0.035423394292593,-0.04100745543837547,0.3051387071609497,-0.88134765625,-0.3408203125,-0.21875
2023-07-29T20:36:20.165147,0.9509432911872864,-0.034531593322753906,-0.04008806496858597,0.3048070967197418,-0.88134765625,-0.3408203125,-0.21875
2023-07-29T20:36:20.178556,0.9509432911872864,-0.034531593322753906,-0.04008806496858597,0.3048070967197418,-0.89599609375,-0.3076171875,-0.24853515625
2023-07-29T20:36:20.179552,0.9510807991027832,-0.03357531130313873,-0.03917483612895012,0.3046036958694458,-0.89599609375,-0.3076171875,-0.24853515625
2023-07-29T20:36:20.186664,0.9510807991027832,-0.03357531130313873,-0.03917483612895012,0.3046036958694458,-0.89599609375,-0.2978515625,-0.23974609375
2023-07-29T20:36:20.186664,0.9512014389038086,-0.032666727900505066,-0.038152482360601425,0.3044554889202118,-0.89599609375,-0.2978515625,-0.23974609375
2023-07-29T20:36:20.193599,0.9512014389038086,-0.032666727900505066,-0.038152482360601425,0.3044554889202118,-0.89306640625,-0.30078125,-0.24462890625
2023-07-29T20:36:20.194596,0.9513193964958191,-0.03180814906954765,-0.03716287761926651,0.3043000102043152,-0.89306640625,-0.30078125,-0.24462890625
2023-07-29T20:36:20.208574,0.9513193964958191,-0.03180814906954765,-0.03716287761926651,0.3043000102043152,-0.8955078125,-0.3056640625,-0.2529296875
2023-07-29T20:36:20.209571,0.9514167904853821,-0.031247584149241447,-0.036455292254686356,0.30413901805877686,-0.8955078125,-0.3056640625,-0.2529296875
2023-07-29T20:36:20.216572,0.9514167904853821,-0.031247584149241447,-0.036455292254686356,0.30413901805877686,-0.89111328125,-0.3154296875,-0.2666015625
2023-07-29T20:36:20.216572,0.9514691233634949,-0.030866825953125954,-0.03605044260621071,0.30406296253204346,-0.89111328125,-0.3154296875,-0.2666015625
2023-07-29T20:36:20.224134,0.9514691233634949,-0.030866825953125954,-0.03605044260621071,0.30406296253204346,-0.89404296875,-0.31494140625,-0.27685546875
2023-07-29T20:36:20.225130,0.9514729976654053,-0.03074662946164608,-0.03601203113794327,0.3040675222873688,-0.89404296875,-0.31494140625,-0.27685546875
2023-07-29T20:36:20.239150,0.9514729976654053,-0.03074662946164608,-0.03601203113794327,0.3040675222873688,-0.8994140625,-0.3115234375,-0.2744140625
2023-07-29T20:36:20.241145,0.9514316916465759,-0.03066123090684414,-0.03606294095516205,0.30419912934303284,-0.8994140625,-0.3115234375,-0.2744140625
2023-07-29T20:36:20.246237,0.9514316916465759,-0.03066123090684414,-0.03606294095516205,0.30419912934303284,-0.90478515625,-0.29931640625,-0.2646484375
2023-07-29T20:36:20.247235,0.9514138698577881,-0.030547726899385452,-0.03583293408155441,0.30429351329803467,-0.90478515625,-0.29931640625,-0.2646484375
2023-07-29T20:36:20.253691,0.9514138698577881,-0.030547726899385452,-0.03583293408155441,0.30429351329803467,-0.9189453125,-0.27734375,-0.26708984375
2023-07-29T20:36:20.254687,0.9514301419258118,-0.030316516757011414,-0.035554785281419754,0.3042984902858734,-0.9189453125,-0.27734375,-0.26708984375
2023-07-29T20:36:20.269207,0.9514301419258118,-0.030316516757011414,-0.035554785281419754,0.3042984902858734,-0.92529296875,-0.26513671875,-0.2578125
2023-07-29T20:36:20.269207,0.9515105485916138,-0.030140738934278488,-0.035076241940259933,0.3041195869445801,-0.92529296875,-0.26513671875,-0.2578125
2023-07-29T20:36:20.276203,0.9515105485916138,-0.030140738934278488,-0.035076241940259933,0.3041195869445801,-0.91943359375,-0.27587890625,-0.25830078125
2023-07-29T20:36:20.277201,0.9516160488128662,-0.030058206990361214,-0.034553162753582,0.3038576543331146,-0.91943359375,-0.27587890625,-0.25830078125
2023-07-29T20:36:20.284358,0.9516160488128662,-0.030058206990361214,-0.034553162753582,0.3038576543331146,-0.91845703125,-0.283203125,-0.27783203125
2023-07-29T20:36:20.284358,0.9517329335212708,-0.029591085389256477,-0.03383507952094078,0.3036182224750519,-0.91845703125,-0.283203125,-0.27783203125
2023-07-29T20:36:20.291840,0.9517329335212708,-0.029591085389256477,-0.03383507952094078,0.3036182224750519,-0.9189453125,-0.26171875,-0.28173828125
2023-07-29T20:36:20.299333,0.9518605470657349,-0.02919500693678856,-0.033235806971788406,0.30332252383232117,-0.9189453125,-0.26171875,-0.28173828125
2023-07-29T20:36:20.306652,0.9518605470657349,-0.02919500693678856,-0.033235806971788406,0.30332252383232117,-0.912109375,-0.27490234375,-0.26806640625
2023-07-29T20:36:20.306652,0.9519359469413757,-0.028994908556342125,-0.03275955095887184,0.30315646529197693,-0.912109375,-0.27490234375,-0.26806640625
2023-07-29T20:36:20.314237,0.9519359469413757,-0.028994908556342125,-0.03275955095887184,0.30315646529197693,-0.91796875,-0.26904296875,-0.2890625
2023-07-29T20:36:20.314237,0.9520178437232971,-0.029005421325564384,-0.0327070951461792,0.3029041290283203,-0.91796875,-0.26904296875,-0.2890625
2023-07-29T20:36:20.321755,0.9520178437232971,-0.029005421325564384,-0.0327070951461792,0.3029041290283203,-0.91845703125,-0.27294921875,-0.30859375
2023-07-29T20:36:20.322258,0.9520732760429382,-0.029246164485812187,-0.033008284866809845,0.30267390608787537,-0.91845703125,-0.27294921875,-0.30859375
2023-07-29T20:36:20.336517,0.9520732760429382,-0.029246164485812187,-0.033008284866809845,0.30267390608787537,-0.90966796875,-0.2861328125,-0.31201171875
2023-07-29T20:36:20.337514,0.9521282315254211,-0.02939264103770256,-0.033517610281705856,0.30243104696273804,-0.90966796875,-0.2861328125,-0.31201171875
2023-07-29T20:36:20.344032,0.9521282315254211,-0.02939264103770256,-0.033517610281705856,0.30243104696273804,-0.9072265625,-0.29345703125,-0.29638671875
2023-07-29T20:36:20.344032,0.9521905779838562,-0.029376542195677757,-0.033969856798648834,0.30218565464019775,-0.9072265625,-0.29345703125,-0.29638671875
2023-07-29T20:36:20.351015,0.9521905779838562,-0.029376542195677757,-0.033969856798648834,0.30218565464019775,-0.912109375,-0.29443359375,-0.28173828125
2023-07-29T20:36:20.352072,0.952274739742279,-0.029377233237028122,-0.03416995331645012,0.30189788341522217,-0.912109375,-0.29443359375,-0.28173828125
2023-07-29T20:36:20.367058,0.952274739742279,-0.029377233237028122,-0.03416995331645012,0.30189788341522217,-0.9111328125,-0.283203125,-0.291015625
2023-07-29T20:36:20.367058,0.9523939490318298,-0.02928001619875431,-0.03444316238164902,0.3014999032020569,-0.9111328125,-0.283203125,-0.291015625
2023-07-29T20:36:20.374235,0.9523939490318298,-0.02928001619875431,-0.03444316238164902,0.3014999032020569,-0.89990234375,-0.302734375,-0.26171875
2023-07-29T20:36:20.374235,0.9524970650672913,-0.029226409271359444,-0.03458401933312416,0.3011630177497864,-0.89990234375,-0.302734375,-0.26171875
2023-07-29T20:36:20.381217,0.9524970650672913,-0.029226409271359444,-0.03458401933312416,0.3011630177497864,-0.89990234375,-0.3203125,-0.25634765625
2023-07-29T20:36:20.382279,0.9525582790374756,-0.029254138469696045,-0.034739792346954346,0.30094850063323975,-0.89990234375,-0.3203125,-0.25634765625
2023-07-29T20:36:20.396815,0.9525582790374756,-0.029254138469696045,-0.034739792346954346,0.30094850063323975,-0.9111328125,-0.30078125,-0.28759765625
2023-07-29T20:36:20.396815,0.9526424407958984,-0.029297977685928345,-0.035097893327474594,0.3006363809108734,-0.9111328125,-0.30078125,-0.28759765625
2023-07-29T20:36:20.404322,0.9526424407958984,-0.029297977685928345,-0.035097893327474594,0.3006363809108734,-0.89697265625,-0.32666015625,-0.28173828125
2023-07-29T20:36:20.404322,0.9527089595794678,-0.029222814366221428,-0.03531578555703163,0.30040714144706726,-0.89697265625,-0.32666015625,-0.28173828125
2023-07-29T20:36:20.411304,0.9527089595794678,-0.029222814366221428,-0.03531578555703163,0.30040714144706726,-0.8935546875,-0.31787109375,-0.287109375
2023-07-29T20:36:20.412361,0.9528110027313232,-0.028849778696894646,-0.03547976166009903,0.3001003563404083,-0.8935546875,-0.31787109375,-0.287109375
2023-07-29T20:36:20.426350,0.9528110027313232,-0.028849778696894646,-0.03547976166009903,0.3001003563404083,-0.89453125,-0.31591796875,-0.26220703125
2023-07-29T20:36:20.427348,0.9529382586479187,-0.028434917330741882,-0.03536447137594223,0.29974910616874695,-0.89453125,-0.31591796875,-0.26220703125
2023-07-29T20:36:20.434348,0.9529382586479187,-0.028434917330741882,-0.03536447137594223,0.29974910616874695,-0.89892578125,-0.3115234375,-0.2666015625
2023-07-29T20:36:20.434348,0.9530606865882874,-0.02817350998520851,-0.03540835157036781,0.2993788421154022,-0.89892578125,-0.3115234375,-0.2666015625
2023-07-29T20:36:20.441331,0.9530606865882874,-0.02817350998520851,-0.03540835157036781,0.2993788421154022,-0.90185546875,-0.29296875,-0.28271484375
2023-07-29T20:36:20.442461,0.953188955783844,-0.028116462752223015,-0.03579511120915413,0.2989300787448883,-0.90185546875,-0.29296875,-0.28271484375
2023-07-29T20:36:20.456719,0.953188955783844,-0.028116462752223015,-0.03579511120915413,0.2989300787448883,-0.8984375,-0.29833984375,-0.26513671875
2023-07-29T20:36:20.456719,0.9533262848854065,-0.0282756295055151,-0.036312758922576904,0.29841363430023193,-0.8984375,-0.29833984375,-0.26513671875
2023-07-29T20:36:20.472206,0.9533262848854065,-0.0282756295055151,-0.036312758922576904,0.29841363430023193,-0.90966796875,-0.3037109375,-0.27587890625
2023-07-29T20:36:20.472206,0.9535126686096191,-0.02834290638566017,-0.03674136474728584,0.2977588474750519,-0.90966796875,-0.3037109375,-0.27587890625
2023-07-29T20:36:20.473284,0.9535126686096191,-0.02834290638566017,-0.03674136474728584,0.2977588474750519,-0.91455078125,-0.29345703125,-0.30322265625
2023-07-29T20:36:20.479269,0.9537513256072998,-0.02816697023808956,-0.03722760081291199,0.2969493269920349,-0.91455078125,-0.29345703125,-0.30322265625
2023-07-29T20:36:20.486629,0.9537513256072998,-0.02816697023808956,-0.03722760081291199,0.2969493269920349,-0.900390625,-0.3095703125,-0.27783203125
2023-07-29T20:36:20.487629,0.9540029168128967,-0.02790488675236702,-0.03757684677839279,0.29612109065055847,-0.900390625,-0.3095703125,-0.27783203125
2023-07-29T20:36:20.493630,0.9540029168128967,-0.02790488675236702,-0.03757684677839279,0.29612109065055847,-0.89697265625,-0.3330078125,-0.25634765625
2023-07-29T20:36:20.494627,0.954219400882721,-0.027563029900193214,-0.03777540475130081,0.2954295873641968,-0.89697265625,-0.3330078125,-0.25634765625
2023-07-29T20:36:20.502120,0.954219400882721,-0.027563029900193214,-0.03777540475130081,0.2954295873641968,-0.89990234375,-0.32421875,-0.25
2023-07-29T20:36:20.502624,0.9543949961662292,-0.02735668234527111,-0.037922464311122894,0.2948620319366455,-0.89990234375,-0.32421875,-0.25
2023-07-29T20:36:20.516267,0.9543949961662292,-0.02735668234527111,-0.037922464311122894,0.2948620319366455,-0.8984375,-0.31396484375,-0.2626953125
2023-07-29T20:36:20.517265,0.9545717835426331,-0.027268435806035995,-0.038148123770952225,0.29426810145378113,-0.8984375,-0.31396484375,-0.2626953125
2023-07-29T20:36:20.524463,0.9545717835426331,-0.027268435806035995,-0.038148123770952225,0.29426810145378113,-0.90185546875,-0.30126953125,-0.2685546875
2023-07-29T20:36:20.524463,0.9547713398933411,-0.027212806046009064,-0.03843444585800171,0.2935877740383148,-0.90185546875,-0.30126953125,-0.2685546875
2023-07-29T20:36:20.531949,0.9547713398933411,-0.027212806046009064,-0.03843444585800171,0.2935877740383148,-0.896484375,-0.31689453125,-0.26806640625
2023-07-29T20:36:20.531949,0.9550130367279053,-0.027116650715470314,-0.038663726300001144,0.2927793860435486,-0.896484375,-0.31689453125,-0.26806640625
2023-07-29T20:36:20.546441,0.9550130367279053,-0.027116650715470314,-0.038663726300001144,0.2927793860435486,-0.900390625,-0.32177734375,-0.29296875
2023-07-29T20:36:20.547438,0.9552818536758423,-0.026882555335760117,-0.039041366428136826,0.2918725311756134,-0.900390625,-0.32177734375,-0.29296875
2023-07-29T20:36:20.553991,0.9552818536758423,-0.026882555335760117,-0.039041366428136826,0.2918725311756134,-0.89404296875,-0.33984375,-0.28955078125
2023-07-29T20:36:20.554986,0.9555161595344543,-0.02644488215446472,-0.039435144513845444,0.2910914719104767,-0.89404296875,-0.33984375,-0.28955078125
2023-07-29T20:36:20.561987,0.9555161595344543,-0.02644488215446472,-0.039435144513845444,0.2910914719104767,-0.88427734375,-0.3671875,-0.25048828125
2023-07-29T20:36:20.561987,0.9556562900543213,-0.02616836503148079,-0.03994360566139221,0.29058676958084106,-0.88427734375,-0.3671875,-0.25048828125
2023-07-29T20:36:20.569424,0.9556562900543213,-0.02616836503148079,-0.03994360566139221,0.29058676958084106,-0.88818359375,-0.36181640625,-0.23486328125
2023-07-29T20:36:20.576166,0.9557558298110962,-0.026181766763329506,-0.04030926153063774,0.2902078926563263,-0.88818359375,-0.36181640625,-0.23486328125
2023-07-29T20:36:20.583866,0.9557558298110962,-0.026181766763329506,-0.04030926153063774,0.2902078926563263,-0.88720703125,-0.345703125,-0.24755859375
2023-07-29T20:36:20.584867,0.9558298587799072,-0.026394957676529884,-0.04069427028298378,0.28989046812057495,-0.88720703125,-0.345703125,-0.24755859375
2023-07-29T20:36:20.591359,0.9558298587799072,-0.026394957676529884,-0.04069427028298378,0.28989046812057495,-0.89013671875,-0.33349609375,-0.24560546875
2023-07-29T20:36:20.592358,0.9559167623519897,-0.02672279067337513,-0.0410941019654274,0.2895174026489258,-0.89013671875,-0.33349609375,-0.24560546875
2023-07-29T20:36:20.598849,0.9559167623519897,-0.02672279067337513,-0.0410941019654274,0.2895174026489258,-0.89599609375,-0.33154296875,-0.24853515625
2023-07-29T20:36:20.606686,0.9560247659683228,-0.026993975043296814,-0.04147394374012947,0.28908103704452515,-0.89599609375,-0.33154296875,-0.24853515625
2023-07-29T20:36:20.614267,0.9560247659683228,-0.026993975043296814,-0.04147394374012947,0.28908103704452515,-0.90576171875,-0.30322265625,-0.28466796875
2023-07-29T20:36:20.614267,0.9562058448791504,-0.027073780074715614,-0.042049188166856766,0.2883908450603485,-0.90576171875,-0.30322265625,-0.28466796875
2023-07-29T20:36:20.621249,0.9562058448791504,-0.027073780074715614,-0.042049188166856766,0.2883908450603485,-0.90087890625,-0.3046875,-0.28564453125
2023-07-29T20:36:20.622346,0.9564183354377747,-0.026844633743166924,-0.04296497628092766,0.28757160902023315,-0.90087890625,-0.3046875,-0.28564453125
2023-07-29T20:36:20.629040,0.9564183354377747,-0.026844633743166924,-0.04296497628092766,0.28757160902023315,-0.892578125,-0.32568359375,-0.26318359375
2023-07-29T20:36:20.629040,0.956685483455658,-0.026240449398756027,-0.04397328943014145,0.28658464550971985,-0.892578125,-0.32568359375,-0.26318359375
2023-07-29T20:36:20.644203,0.956685483455658,-0.026240449398756027,-0.04397328943014145,0.28658464550971985,-0.888671875,-0.35205078125,-0.22314453125
2023-07-29T20:36:20.644203,0.9569659233093262,-0.025708364322781563,-0.044685058295726776,0.2855847179889679,-0.888671875,-0.35205078125,-0.22314453125
2023-07-29T20:36:20.651182,0.9569659233093262,-0.025708364322781563,-0.044685058295726776,0.2855847179889679,-0.88232421875,-0.37744140625,-0.21240234375
2023-07-29T20:36:20.652258,0.9572184681892395,-0.025259308516979218,-0.04515308514237404,0.2847035527229309,-0.88232421875,-0.37744140625,-0.21240234375
2023-07-29T20:36:20.659279,0.9572184681892395,-0.025259308516979218,-0.04515308514237404,0.2847035527229309,-0.876953125,-0.38671875,-0.212890625
2023-07-29T20:36:20.659279,0.9574394226074219,-0.024904079735279083,-0.045253098011016846,0.28397488594055176,-0.876953125,-0.38671875,-0.212890625
2023-07-29T20:36:20.674289,0.9574394226074219,-0.024904079735279083,-0.045253098011016846,0.28397488594055176,-0.8759765625,-0.37255859375,-0.2353515625
2023-07-29T20:36:20.674289,0.9576412439346313,-0.024699995294213295,-0.04556707665324211,0.28326091170310974,-0.8759765625,-0.37255859375,-0.2353515625
2023-07-29T20:36:20.682277,0.9576412439346313,-0.024699995294213295,-0.04556707665324211,0.28326091170310974,-0.86865234375,-0.38671875,-0.22998046875
2023-07-29T20:36:20.682277,0.9578015208244324,-0.024571998044848442,-0.045919157564640045,0.2826727330684662,-0.86865234375,-0.38671875,-0.22998046875
2023-07-29T20:36:20.689402,0.9578015208244324,-0.024571998044848442,-0.045919157564640045,0.2826727330684662,-0.8623046875,-0.4052734375,-0.212890625
2023-07-29T20:36:20.689402,0.9578534960746765,-0.024468859657645226,-0.04623759537935257,0.28245389461517334,-0.8623046875,-0.4052734375,-0.212890625
2023-07-29T20:36:20.704223,0.9578534960746765,-0.024468859657645226,-0.04623759537935257,0.28245389461517334,-0.8583984375,-0.40771484375,-0.20849609375
2023-07-29T20:36:20.704223,0.9578866958618164,-0.02436542697250843,-0.046365801244974136,0.2823290526866913,-0.8583984375,-0.40771484375,-0.20849609375
2023-07-29T20:36:20.711205,0.9578866958618164,-0.02436542697250843,-0.046365801244974136,0.2823290526866913,-0.8544921875,-0.41748046875,-0.18505859375
2023-07-29T20:36:20.712255,0.9579156041145325,-0.02446625754237175,-0.04621772840619087,0.28224650025367737,-0.8544921875,-0.41748046875,-0.18505859375
2023-07-29T20:36:20.719408,0.9579156041145325,-0.02446625754237175,-0.04621772840619087,0.28224650025367737,-0.853515625,-0.42724609375,-0.17431640625
2023-07-29T20:36:20.719408,0.9579068422317505,-0.024673892185091972,-0.045732226222753525,0.28233689069747925,-0.853515625,-0.42724609375,-0.17431640625
2023-07-29T20:36:20.734427,0.9579068422317505,-0.024673892185091972,-0.045732226222753525,0.28233689069747925,-0.8564453125,-0.38916015625,-0.203125
2023-07-29T20:36:20.734427,0.9579094648361206,-0.024929646402597427,-0.04562681168317795,0.2823227345943451,-0.8564453125,-0.38916015625,-0.203125
2023-07-29T20:36:20.741408,0.9579094648361206,-0.024929646402597427,-0.04562681168317795,0.2823227345943451,-0.845703125,-0.4072265625,-0.1884765625
2023-07-29T20:36:20.741965,0.9578959941864014,-0.025220895186066628,-0.045447029173374176,0.2823716402053833,-0.845703125,-0.4072265625,-0.1884765625
2023-07-29T20:36:20.749359,0.9578959941864014,-0.025220895186066628,-0.045447029173374176,0.2823716402053833,-0.81982421875,-0.4755859375,-0.13427734375
2023-07-29T20:36:20.749359,0.9578418135643005,-0.02537316083908081,-0.044781483709812164,0.28264787793159485,-0.81982421875,-0.4755859375,-0.13427734375
2023-07-29T20:36:20.764147,0.9578418135643005,-0.02537316083908081,-0.044781483709812164,0.28264787793159485,-0.794921875,-0.5283203125,-0.08544921875
2023-07-29T20:36:20.764147,0.9576994180679321,-0.025506850332021713,-0.0435272641479969,0.2833137512207031,-0.794921875,-0.5283203125,-0.08544921875
2023-07-29T20:36:20.771128,0.9576994180679321,-0.025506850332021713,-0.0435272641479969,0.2833137512207031,-0.7734375,-0.58349609375,-0.06494140625
2023-07-29T20:36:20.772360,0.957353949546814,-0.025920772925019264,-0.04128124564886093,0.2847762703895569,-0.7734375,-0.58349609375,-0.06494140625
2023-07-29T20:36:20.779603,0.957353949546814,-0.025920772925019264,-0.04128124564886093,0.2847762703895569,-0.78173828125,-0.546875,-0.13134765625
2023-07-29T20:36:20.779603,0.9567991495132446,-0.026780666783452034,-0.038651030510663986,0.2869220972061157,-0.78173828125,-0.546875,-0.13134765625
2023-07-29T20:36:20.794218,0.9567991495132446,-0.026780666783452034,-0.038651030510663986,0.2869220972061157,-0.81982421875,-0.45068359375,-0.24560546875
2023-07-29T20:36:20.794218,0.9561183452606201,-0.028063824400305748,-0.036290064454078674,0.28936678171157837,-0.81982421875,-0.45068359375,-0.24560546875
2023-07-29T20:36:20.801199,0.9561183452606201,-0.028063824400305748,-0.036290064454078674,0.28936678171157837,-0.8408203125,-0.3974609375,-0.2685546875
2023-07-29T20:36:20.802341,0.9554094076156616,-0.02949000895023346,-0.034066908061504364,0.2918262779712677,-0.8408203125,-0.3974609375,-0.2685546875
2023-07-29T20:36:20.809439,0.9554094076156616,-0.02949000895023346,-0.034066908061504364,0.2918262779712677,-0.869140625,-0.3359375,-0.27099609375
2023-07-29T20:36:20.809439,0.9547063708305359,-0.03092252090573311,-0.031733188778162,0.294232040643692,-0.869140625,-0.3359375,-0.27099609375
2023-07-29T20:36:20.824041,0.9547063708305359,-0.03092252090573311,-0.031733188778162,0.294232040643692,-0.8955078125,-0.29541015625,-0.27099609375
2023-07-29T20:36:20.824041,0.9540382623672485,-0.03211354836821556,-0.0291863102465868,0.2965262532234192,-0.8955078125,-0.29541015625,-0.27099609375
2023-07-29T20:36:20.832043,0.9540382623672485,-0.03211354836821556,-0.0291863102465868,0.2965262532234192,-0.923828125,-0.248046875,-0.29345703125
2023-07-29T20:36:20.832043,0.9534382820129395,-0.03326500952243805,-0.026400133967399597,0.29858314990997314,-0.923828125,-0.248046875,-0.29345703125
2023-07-29T20:36:20.839084,0.9534382820129395,-0.03326500952243805,-0.026400133967399597,0.29858314990997314,-0.9501953125,-0.19189453125,-0.37353515625
2023-07-29T20:36:20.839084,0.9529630541801453,-0.034068312495946884,-0.023926254361867905,0.30021384358406067,-0.9501953125,-0.19189453125,-0.37353515625
2023-07-29T20:36:20.853522,0.9529630541801453,-0.034068312495946884,-0.023926254361867905,0.30021384358406067,-0.9599609375,-0.173828125,-0.39794921875
2023-07-29T20:36:20.854518,0.9525802731513977,-0.03454311564564705,-0.021831901744008064,0.3015308976173401,-0.9599609375,-0.173828125,-0.39794921875
2023-07-29T20:36:20.862002,0.9525802731513977,-0.03454311564564705,-0.021831901744008064,0.3015308976173401,-0.9697265625,-0.142578125,-0.36474609375
2023-07-29T20:36:20.862002,0.9523098468780518,-0.03502251207828522,-0.019882621243596077,0.30246320366859436,-0.9697265625,-0.142578125,-0.36474609375
2023-07-29T20:36:20.869315,0.9523098468780518,-0.03502251207828522,-0.019882621243596077,0.30246320366859436,-0.99951171875,-0.09619140625,-0.40966796875
2023-07-29T20:36:20.869315,0.952222466468811,-0.035825908184051514,-0.018717177212238312,0.30271849036216736,-0.99951171875,-0.09619140625,-0.40966796875
2023-07-29T20:36:20.876323,0.952222466468811,-0.035825908184051514,-0.018717177212238312,0.30271849036216736,-0.994140625,-0.0966796875,-0.419921875
2023-07-29T20:36:20.884383,0.9523436427116394,-0.036525048315525055,-0.017724420875310898,0.3023134469985962,-0.994140625,-0.0966796875,-0.419921875
2023-07-29T20:36:20.891868,0.9523436427116394,-0.036525048315525055,-0.017724420875310898,0.3023134469985962,-0.98828125,-0.1376953125,-0.5
2023-07-29T20:36:20.892374,0.9525142908096313,-0.036816444247961044,-0.017534103244543076,0.3017508387565613,-0.98828125,-0.1376953125,-0.5
2023-07-29T20:36:20.898789,0.9525142908096313,-0.036816444247961044,-0.017534103244543076,0.3017508387565613,-0.97021484375,-0.185546875,-0.4619140625
2023-07-29T20:36:20.899786,0.9527106881141663,-0.03635504096746445,-0.017307912930846214,0.30119943618774414,-0.97021484375,-0.185546875,-0.4619140625
