Time,w,x,y,z,ax,ay,az
2023-07-29T21:33:55.876778,0.25981661677360535,0.599770188331604,0.21181850135326385,-0.7265698909759521,0.37548828125,0.65380859375,0.70654296875
2023-07-29T21:33:55.883066,0.25981661677360535,0.599770188331604,0.21181850135326385,-0.7265698909759521,0.3544921875,0.67041015625,0.67919921875
2023-07-29T21:33:55.884061,0.261138916015625,0.6002810001373291,0.21269609034061432,-0.725416898727417,0.3544921875,0.67041015625,0.67919921875
2023-07-29T21:33:55.890800,0.261138916015625,0.6002810001373291,0.21269609034061432,-0.725416898727417,0.33154296875,0.6689453125,0.64306640625
2023-07-29T21:33:55.891798,0.999999463558197,-0.0006391695933416486,0.000697738432791084,0.0004793845000676811,0.33154296875,0.6689453125,0.64306640625
2023-07-29T21:33:55.965781,0.999999463558197,-0.0006391695933416486,0.000697738432791084,0.0004793845000676811,0.3525390625,0.56982421875,0.7421875
2023-07-29T21:33:55.966782,0.999995231628418,-0.002279549138620496,0.0015923120081424713,0.0013321933802217245,0.3525390625,0.56982421875,0.7421875
2023-07-29T21:33:55.973186,0.999995231628418,-0.002279549138620496,0.0015923120081424713,0.0013321933802217245,0.34716796875,0.58984375,0.7265625
2023-07-29T21:33:55.974184,0.999990701675415,-0.0028635950293391943,0.00240920833311975,0.002141859382390976,0.34716796875,0.58984375,0.7265625
2023-07-29T21:33:55.980681,0.999990701675415,-0.0028635950293391943,0.00240920833311975,0.002141859382390976,0.3525390625,0.62646484375,0.70947265625
2023-07-29T21:33:55.981678,0.9999862313270569,-0.003216205397620797,0.0030786446295678616,0.0027513704262673855,0.3525390625,0.62646484375,0.70947265625
2023-07-29T21:33:55.995883,0.9999862313270569,-0.003216205397620797,0.0030786446295678616,0.0027513704262673855,0.35400390625,0.6484375,0.6982421875
2023-07-29T21:33:55.996889,0.9999827146530151,-0.0034584703389555216,0.0035581495612859726,0.003129551885649562,0.35400390625,0.6484375,0.6982421875
2023-07-29T21:33:56.003882,0.9999827146530151,-0.0034584703389555216,0.0035581495612859726,0.003129551885649562,0.3515625,0.63916015625,0.701171875
2023-07-29T21:33:56.003882,0.9999802112579346,-0.003611259162425995,0.0038953812327235937,0.003381580812856555,0.3515625,0.63916015625,0.701171875
2023-07-29T21:33:56.011054,0.9999802112579346,-0.003611259162425995,0.0038953812327235937,0.003381580812856555,0.34326171875,0.63232421875,0.69482421875
2023-07-29T21:33:56.011054,0.9999808073043823,-0.0032800554763525724,0.004017531406134367,0.0033798515796661377,0.34326171875,0.63232421875,0.69482421875
2023-07-29T21:33:56.026031,0.9999808073043823,-0.0032800554763525724,0.004017531406134367,0.0033798515796661377,0.3427734375,0.63525390625,0.689453125
2023-07-29T21:33:56.026535,0.9999842047691345,-0.0024485134053975344,0.0038829906843602657,0.003234842326492071,0.3427734375,0.63525390625,0.689453125
2023-07-29T21:33:56.039595,0.9999842047691345,-0.0024485134053975344,0.0038829906843602657,0.003234842326492071,0.35302734375,0.63330078125,0.70703125
2023-07-29T21:33:56.040593,0.9999880194664001,-0.0011169167701154947,0.0036684232763946056,0.003043779172003269,0.35302734375,0.63330078125,0.70703125
2023-07-29T21:33:56.044582,0.9999880194664001,-0.0011169167701154947,0.0036684232763946056,0.003043779172003269,0.36572265625,0.61962890625,0.72705078125
2023-07-29T21:33:56.044582,0.9999890327453613,0.00027304678224027157,0.003551555098965764,0.0030388140585273504,0.36572265625,0.61962890625,0.72705078125
2023-07-29T21:33:56.056138,0.9999890327453613,0.00027304678224027157,0.003551555098965764,0.0030388140585273504,0.37109375,0.63623046875,0.736328125
2023-07-29T21:33:56.056647,0.9999880790710449,0.0005840703961439431,0.0036155791021883488,0.003221953520551324,0.37109375,0.63623046875,0.736328125
2023-07-29T21:33:56.062852,0.9999880790710449,0.0005840703961439431,0.0036155791021883488,0.003221953520551324,0.36767578125,0.63232421875,0.73095703125
2023-07-29T21:33:56.063850,0.9999862313270569,0.00014277503942139447,0.003803377505391836,0.003623694647103548,0.36767578125,0.63232421875,0.73095703125
2023-07-29T21:33:56.070765,0.9999862313270569,0.00014277503942139447,0.003803377505391836,0.003623694647103548,0.36279296875,0.62109375,0.7275390625
2023-07-29T21:33:56.070765,0.9999828934669495,-0.000577275175601244,0.0040690964087843895,0.004158094059675932,0.36279296875,0.62109375,0.7275390625
2023-07-29T21:33:56.085745,0.9999828934669495,-0.000577275175601244,0.0040690964087843895,0.004158094059675932,0.3642578125,0.63330078125,0.7109375
2023-07-29T21:33:56.086754,0.9999787211418152,-0.0015393579378724098,0.0042864172719419,0.004667183849960566,0.3642578125,0.63330078125,0.7109375
2023-07-29T21:33:56.092991,0.9999787211418152,-0.0015393579378724098,0.0042864172719419,0.004667183849960566,0.35986328125,0.64404296875,0.69873046875
2023-07-29T21:33:56.093989,0.9999752044677734,-0.0023755484726279974,0.004398721270263195,0.004960085265338421,0.35986328125,0.64404296875,0.69873046875
2023-07-29T21:33:56.101005,0.9999752044677734,-0.0023755484726279974,0.004398721270263195,0.004960085265338421,0.3525390625,0.65185546875,0.69140625
2023-07-29T21:33:56.101005,0.9999738335609436,-0.0028975224122405052,0.004396131727844477,0.004962380975484848,0.3525390625,0.65185546875,0.69140625
2023-07-29T21:33:56.115715,0.9999738335609436,-0.0028975224122405052,0.004396131727844477,0.004962380975484848,0.35107421875,0.6484375,0.69677734375
2023-07-29T21:33:56.117737,0.9999733567237854,-0.003418747568503022,0.0042878007516264915,0.004812333732843399,0.35107421875,0.6484375,0.69677734375
2023-07-29T21:33:56.122970,0.9999733567237854,-0.003418747568503022,0.0042878007516264915,0.004812333732843399,0.35302734375,0.6357421875,0.72119140625
2023-07-29T21:33:56.123968,0.9999718070030212,-0.004245060496032238,0.004109465051442385,0.0046322462148964405,0.35302734375,0.6357421875,0.72119140625
2023-07-29T21:33:56.130481,0.9999718070030212,-0.004245060496032238,0.004109465051442385,0.0046322462148964405,0.349609375,0.60595703125,0.728515625
2023-07-29T21:33:56.131480,0.9999704957008362,-0.004912943579256535,0.003842490492388606,0.004478204995393753,0.349609375,0.60595703125,0.728515625
2023-07-29T21:33:56.144654,0.9999704957008362,-0.004912943579256535,0.003842490492388606,0.004478204995393753,0.34619140625,0.5947265625,0.7255859375
2023-07-29T21:33:56.146161,0.9999720454216003,-0.004996867850422859,0.0034580305218696594,0.004368563648313284,0.34619140625,0.5947265625,0.7255859375
2023-07-29T21:33:56.152731,0.9999720454216003,-0.004996867850422859,0.0034580305218696594,0.004368563648313284,0.35595703125,0.59814453125,0.7333984375
2023-07-29T21:33:56.153728,0.9999746680259705,-0.004762893542647362,0.003055676817893982,0.004292282275855541,0.35595703125,0.59814453125,0.7333984375
2023-07-29T21:33:56.160728,0.9999746680259705,-0.004762893542647362,0.003055676817893982,0.004292282275855541,0.37060546875,0.591796875,0.74267578125
2023-07-29T21:33:56.160728,0.9999781250953674,-0.0041928403079509735,0.002726734383031726,0.004344759974628687,0.37060546875,0.591796875,0.74267578125
2023-07-29T21:33:56.191315,0.9999781250953674,-0.0041928403079509735,0.002726734383031726,0.004344759974628687,0.375,0.6083984375,0.74169921875
2023-07-29T21:33:56.192313,0.9999785423278809,-0.004017670638859272,0.0025071613490581512,0.004529436584562063,0.375,0.6083984375,0.74169921875
2023-07-29T21:33:56.192313,0.9999785423278809,-0.004017670638859272,0.0025071613490581512,0.004529436584562063,0.3642578125,0.62109375,0.72021484375
2023-07-29T21:33:56.193308,0.9999796748161316,-0.0035849111154675484,0.00232340837828815,0.0047155264765024185,0.3642578125,0.62109375,0.72021484375
2023-07-29T21:33:56.194307,0.9999796748161316,-0.0035849111154675484,0.00232340837828815,0.0047155264765024185,0.3671875,0.6591796875,0.7099609375
2023-07-29T21:33:56.194307,0.9999794363975525,-0.003668251447379589,0.002170563442632556,0.004779431503266096,0.3671875,0.6591796875,0.7099609375
2023-07-29T21:33:56.198322,0.9999794363975525,-0.003668251447379589,0.002170563442632556,0.004779431503266096,0.36865234375,0.65478515625,0.71337890625
2023-07-29T21:33:56.205813,0.9999779462814331,-0.004141431767493486,0.0020577332470566034,0.004780865274369717,0.36865234375,0.65478515625,0.71337890625
2023-07-29T21:33:56.213001,0.9999779462814331,-0.004141431767493486,0.0020577332470566034,0.004780865274369717,0.3662109375,0.6240234375,0.72216796875
2023-07-29T21:33:56.213999,0.9999757409095764,-0.004677722230553627,0.0019340729340910912,0.004782470408827066,0.3662109375,0.6240234375,0.72216796875
2023-07-29T21:33:56.222186,0.9999757409095764,-0.004677722230553627,0.0019340729340910912,0.004782470408827066,0.3623046875,0.609375,0.7314453125
2023-07-29T21:33:56.222186,0.9999732375144958,-0.005229877773672342,0.0018261272925883532,0.004784031305462122,0.3623046875,0.609375,0.7314453125
2023-07-29T21:33:56.228742,0.9999732375144958,-0.005229877773672342,0.0018261272925883532,0.004784031305462122,0.36279296875,0.59765625,0.72900390625
2023-07-29T21:33:56.229739,0.9999719262123108,-0.005523944739252329,0.001682570669800043,0.00478531327098608,0.36279296875,0.59765625,0.72900390625
2023-07-29T21:33:56.258832,0.9999719262123108,-0.005523944739252329,0.001682570669800043,0.00478531327098608,0.3623046875,0.58740234375,0.73974609375
2023-07-29T21:33:56.259829,0.999971866607666,-0.00546472379937768,0.0015928888460621238,0.004897568374872208,0.3623046875,0.58740234375,0.73974609375
2023-07-29T21:33:56.259829,0.999971866607666,-0.00546472379937768,0.0015928888460621238,0.004897568374872208,0.361328125,0.59228515625,0.73193359375
2023-07-29T21:33:56.260828,0.9999722242355347,-0.005200808402150869,0.0015163724310696125,0.0051133837550878525,0.361328125,0.59228515625,0.73193359375
2023-07-29T21:33:56.260828,0.9999722242355347,-0.005200808402150869,0.0015163724310696125,0.0051133837550878525,0.3662109375,0.623046875,0.72265625
2023-07-29T21:33:56.261826,0.9999722838401794,-0.0049841133877635,0.0014133512740954757,0.005339934024959803,0.3662109375,0.623046875,0.72265625
2023-07-29T21:33:56.273003,0.9999722838401794,-0.0049841133877635,0.0014133512740954757,0.005339934024959803,0.373046875,0.62841796875,0.72802734375
2023-07-29T21:33:56.278344,0.9999731779098511,-0.004594322293996811,0.0014164281310513616,0.005539396777749062,0.373046875,0.62841796875,0.72802734375
2023-07-29T21:33:56.289356,0.9999731779098511,-0.004594322293996811,0.0014164281310513616,0.005539396777749062,0.36962890625,0.6318359375,0.7216796875
2023-07-29T21:33:56.294342,0.9999732375144958,-0.004394090734422207,0.0014182132435962558,0.0056864917278289795,0.36962890625,0.6318359375,0.7216796875
2023-07-29T21:33:56.295847,0.9999732375144958,-0.004394090734422207,0.0014182132435962558,0.0056864917278289795,0.3662109375,0.62109375,0.72265625
2023-07-29T21:33:56.297363,0.9999739527702332,-0.004067601636052132,0.0014205083716660738,0.005786034744232893,0.3662109375,0.62109375,0.72265625
2023-07-29T21:33:56.309689,0.9999739527702332,-0.004067601636052132,0.0014205083716660738,0.005786034744232893,0.36376953125,0.6064453125,0.72607421875
2023-07-29T21:33:56.310685,0.9999760985374451,-0.003298954339697957,0.0014254255220293999,0.005900738760828972,0.36376953125,0.6064453125,0.72607421875
2023-07-29T21:33:56.311683,0.9999760985374451,-0.003298954339697957,0.0014254255220293999,0.005900738760828972,0.357421875,0.60546875,0.72705078125
2023-07-29T21:33:56.312683,0.999978244304657,-0.0023303211200982332,0.0014314522268250585,0.005994098260998726,0.357421875,0.60546875,0.72705078125
2023-07-29T21:33:56.317694,0.999978244304657,-0.0023303211200982332,0.0014314522268250585,0.005994098260998726,0.3623046875,0.61181640625,0.728515625
2023-07-29T21:33:56.318694,0.9999792575836182,-0.0013926998944953084,0.0014373438898473978,0.006109933834522963,0.3623046875,0.61181640625,0.728515625
2023-07-29T21:33:56.334171,0.9999792575836182,-0.0013926998944953084,0.0014373438898473978,0.006109933834522963,0.36669921875,0.6171875,0.7275390625
2023-07-29T21:33:56.337844,0.999979555606842,-0.0005240705795586109,0.0014427818823605776,0.006203426979482174,0.36669921875,0.6171875,0.7275390625
2023-07-29T21:33:56.342830,0.999979555606842,-0.0005240705795586109,0.0014427818823605776,0.006203426979482174,0.365234375,0.62890625,0.71923828125
2023-07-29T21:33:56.343827,0.99997878074646,0.00016566738486289978,0.0014471336035057902,0.006344546563923359,0.365234375,0.62890625,0.71923828125
2023-07-29T21:33:56.358112,0.99997878074646,0.00016566738486289978,0.0014471336035057902,0.006344546563923359,0.3701171875,0.6318359375,0.716796875
2023-07-29T21:33:56.359110,0.9999772906303406,0.0006870407378301024,0.0014504080172628164,0.006533278618007898,0.3701171875,0.6318359375,0.716796875
2023-07-29T21:33:56.363098,0.9999772906303406,0.0006870407378301024,0.0014504080172628164,0.006533278618007898,0.3671875,0.64306640625,0.7109375
2023-07-29T21:33:56.364096,0.9999762177467346,0.0009552455740049481,0.0015152128180488944,0.006648730020970106,0.3671875,0.64306640625,0.7109375
2023-07-29T21:33:56.373580,0.9999762177467346,0.0009552455740049481,0.0015152128180488944,0.006648730020970106,0.3701171875,0.64599609375,0.7138671875
2023-07-29T21:33:56.374578,0.9999762773513794,0.000754786713514477,0.0015822767745703459,0.0066490983590483665,0.3701171875,0.64599609375,0.7138671875
2023-07-29T21:33:56.439073,0.9999762773513794,0.000754786713514477,0.0015822767745703459,0.0066490983590483665,0.37060546875,0.62060546875,0.7177734375
2023-07-29T21:33:56.440072,0.9999763369560242,0.000548959244042635,0.0016650962643325329,0.006649486254900694,0.37060546875,0.62060546875,0.7177734375
2023-07-29T21:33:56.441068,0.9999763369560242,0.000548959244042635,0.0016650962643325329,0.006649486254900694,0.36328125,0.61328125,0.71923828125
2023-07-29T21:33:56.441068,0.999976396560669,0.00044776787399314344,0.0016644233837723732,0.006649654824286699,0.36328125,0.61328125,0.71923828125
2023-07-29T21:33:56.443064,0.999976396560669,0.00044776787399314344,0.0016644233837723732,0.006649654824286699,0.361328125,0.61328125,0.7216796875
2023-07-29T21:33:56.443064,0.999976396560669,0.00044776787399314344,0.0016644233837723732,0.006649654824286699,0.361328125,0.61328125,0.7216796875
2023-07-29T21:33:56.445059,0.999976396560669,0.00044776787399314344,0.0016644233837723732,0.006649654824286699,0.36181640625,0.6103515625,0.72412109375
2023-07-29T21:33:56.446055,0.9999762773513794,0.0007056899485178292,0.0016661385307088494,0.0066492254845798016,0.36181640625,0.6103515625,0.72412109375
2023-07-29T21:33:56.447965,0.9999762773513794,0.0007056899485178292,0.0016661385307088494,0.0066492254845798016,0.36083984375,0.61572265625,0.7197265625
2023-07-29T21:33:56.448966,0.9999759197235107,0.001196257071569562,0.001589468913152814,0.006648351904004812,0.36083984375,0.61572265625,0.7197265625
2023-07-29T21:33:56.449962,0.9999759197235107,0.001196257071569562,0.001589468913152814,0.006648351904004812,0.36572265625,0.62255859375,0.72216796875
2023-07-29T21:33:56.450959,0.9999751448631287,0.0017232028767466545,0.00159297208301723,0.006647513248026371,0.36572265625,0.62255859375,0.72216796875
2023-07-29T21:33:56.450959,0.9999751448631287,0.0017232028767466545,0.00159297208301723,0.006647513248026371,0.373046875,0.62255859375,0.724609375
2023-07-29T21:33:56.451957,0.9999739527702332,0.002275880891829729,0.0015966458013281226,0.00664663128554821,0.373046875,0.62255859375,0.724609375
2023-07-29T21:33:56.452954,0.9999739527702332,0.002275880891829729,0.0015966458013281226,0.00664663128554821,0.36865234375,0.6220703125,0.716796875
2023-07-29T21:33:56.456451,0.9999719262123108,0.0030070629436522722,0.0016699021216481924,0.006645617075264454,0.36865234375,0.6220703125,0.716796875
2023-07-29T21:33:56.461950,0.9999719262123108,0.0030070629436522722,0.0016699021216481924,0.006645617075264454,0.35986328125,0.63427734375,0.720703125
2023-07-29T21:33:56.462948,0.999970018863678,0.003527992404997349,0.0018331290921196342,0.006645224988460541,0.35986328125,0.63427734375,0.720703125
2023-07-29T21:33:56.528260,0.999970018863678,0.003527992404997349,0.0018331290921196342,0.006645224988460541,0.36181640625,0.63427734375,0.7314453125
2023-07-29T21:33:56.529260,0.9999690055847168,0.0037108950782567263,0.002034334000200033,0.006645592860877514,0.36181640625,0.63427734375,0.7314453125
2023-07-29T21:33:56.529260,0.9999690055847168,0.0037108950782567263,0.002034334000200033,0.006645592860877514,0.3583984375,0.62255859375,0.72900390625
2023-07-29T21:33:56.530256,0.9999695420265198,0.003446366637945175,0.00223782891407609,0.006646890193223953,0.3583984375,0.62255859375,0.72900390625
2023-07-29T21:33:56.530256,0.9999695420265198,0.003446366637945175,0.00223782891407609,0.006646890193223953,0.35400390625,0.61376953125,0.72119140625
2023-07-29T21:33:56.532252,0.9999688863754272,0.0035242089070379734,0.0024067533668130636,0.006647293921560049,0.35400390625,0.61376953125,0.72119140625
2023-07-29T21:33:56.533249,0.9999688863754272,0.0035242089070379734,0.0024067533668130636,0.006647293921560049,0.3544921875,0.6259765625,0.71337890625
2023-07-29T21:33:56.535751,0.9999680519104004,0.003844550345093012,0.0024881227873265743,0.006557319313287735,0.3544921875,0.6259765625,0.71337890625
2023-07-29T21:33:56.535751,0.9999680519104004,0.003844550345093012,0.0024881227873265743,0.006557319313287735,0.3505859375,0.619140625,0.71630859375
2023-07-29T21:33:56.536750,0.9999665021896362,0.004375895019620657,0.002492033177986741,0.006445461884140968,0.3505859375,0.619140625,0.71630859375
2023-07-29T21:33:56.538253,0.9999665021896362,0.004375895019620657,0.002492033177986741,0.006445461884140968,0.3564453125,0.6181640625,0.73046875
2023-07-29T21:33:56.542242,0.9999638795852661,0.005069959443062544,0.002560193184763193,0.006317682098597288,0.3564453125,0.6181640625,0.73046875
2023-07-29T21:33:56.542242,0.9999638795852661,0.005069959443062544,0.002560193184763193,0.006317682098597288,0.365234375,0.61181640625,0.72998046875
2023-07-29T21:33:56.564221,0.9999597072601318,0.005868224892765284,0.0026507258880883455,0.006257477682083845,0.365234375,0.61181640625,0.72998046875
2023-07-29T21:33:56.565728,0.9999597072601318,0.005868224892765284,0.0026507258880883455,0.006257477682083845,0.36572265625,0.63134765625,0.7197265625
2023-07-29T21:33:56.566728,0.9999560713768005,0.006404510233551264,0.0027487948536872864,0.006256609223783016,0.36572265625,0.63134765625,0.7197265625
2023-07-29T21:33:56.567231,0.9999560713768005,0.006404510233551264,0.0027487948536872864,0.006256609223783016,0.369140625,0.63818359375,0.712890625
2023-07-29T21:33:56.572220,0.9999532699584961,0.006803946569561958,0.0028460072353482246,0.006256116554141045,0.369140625,0.63818359375,0.712890625
2023-07-29T21:33:56.573217,0.9999532699584961,0.006803946569561958,0.0028460072353482246,0.006256116554141045,0.3720703125,0.62890625,0.71533203125
2023-07-29T21:33:56.579221,0.9999515414237976,0.006861240137368441,0.0030033444054424763,0.006388611160218716,0.3720703125,0.62890625,0.71533203125
2023-07-29T21:33:56.584208,0.9999515414237976,0.006861240137368441,0.0030033444054424763,0.006388611160218716,0.36181640625,0.6220703125,0.703125
2023-07-29T21:33:56.594204,0.9999468326568604,0.00735058169811964,0.003100169124081731,0.006535165011882782,0.36181640625,0.6220703125,0.703125
2023-07-29T21:33:56.594204,0.9999468326568604,0.00735058169811964,0.003100169124081731,0.006535165011882782,0.36767578125,0.638671875,0.7021484375
2023-07-29T21:33:56.595711,0.9999412894248962,0.007934920489788055,0.0031555441673845053,0.006675850134342909,0.36767578125,0.638671875,0.7021484375
2023-07-29T21:33:56.596713,0.9999412894248962,0.007934920489788055,0.0031555441673845053,0.006675850134342909,0.37255859375,0.6435546875,0.70556640625
2023-07-29T21:33:56.601210,0.9999374151229858,0.008298514410853386,0.0031569241546094418,0.00680628651753068,0.37255859375,0.6435546875,0.70556640625
2023-07-29T21:33:56.601210,0.9999374151229858,0.008298514410853386,0.0031569241546094418,0.00680628651753068,0.37109375,0.642578125,0.71337890625
2023-07-29T21:33:56.603204,0.9999374151229858,0.00813324935734272,0.0032503569964319468,0.006962061859667301,0.37109375,0.642578125,0.71337890625
2023-07-29T21:33:56.612209,0.9999374151229858,0.00813324935734272,0.0032503569964319468,0.006962061859667301,0.3642578125,0.64013671875,0.69580078125
2023-07-29T21:33:56.613207,0.9999365210533142,0.008133187890052795,0.003307365346699953,0.007067799102514982,0.3642578125,0.64013671875,0.69580078125
2023-07-29T21:33:56.637978,0.9999365210533142,0.008133187890052795,0.003307365346699953,0.007067799102514982,0.365234375,0.63623046875,0.69091796875
2023-07-29T21:33:56.638974,0.999935507774353,0.008196583949029446,0.0033072554506361485,0.007136012893170118,0.365234375,0.63623046875,0.69091796875
2023-07-29T21:33:56.638974,0.999935507774353,0.008196583949029446,0.0033072554506361485,0.007136012893170118,0.3662109375,0.64697265625,0.69287109375
2023-07-29T21:33:56.640969,0.9999344944953918,0.00834975577890873,0.0032346267253160477,0.007134903687983751,0.3662109375,0.64697265625,0.69287109375
2023-07-29T21:33:56.642964,0.9999344944953918,0.00834975577890873,0.0032346267253160477,0.007134903687983751,0.37255859375,0.67041015625,0.6904296875
2023-07-29T21:33:56.644959,0.9999381303787231,0.008134078234434128,0.0031242838595062494,0.006924146320670843,0.37255859375,0.67041015625,0.6904296875
2023-07-29T21:33:56.650264,0.9999381303787231,0.008134078234434128,0.0031242838595062494,0.006924146320670843,0.3701171875,0.66162109375,0.69287109375
2023-07-29T21:33:56.658264,0.9999463558197021,0.007339484989643097,0.002978778211399913,0.006662304047495127,0.3701171875,0.66162109375,0.69287109375
2023-07-29T21:33:56.659261,0.9999463558197021,0.007339484989643097,0.002978778211399913,0.006662304047495127,0.3662109375,0.63427734375,0.70703125
2023-07-29T21:33:56.660258,0.9999541640281677,0.006523487623780966,0.002880578162148595,0.0063903420232236385,0.3662109375,0.63427734375,0.70703125
2023-07-29T21:33:56.670769,0.9999541640281677,0.006523487623780966,0.002880578162148595,0.0063903420232236385,0.3642578125,0.626953125,0.71435546875
2023-07-29T21:33:56.672764,0.9999587535858154,0.006128953769803047,0.0028106968384236097,0.006098081357777119,0.3642578125,0.626953125,0.71435546875
2023-07-29T21:33:56.679775,0.9999587535858154,0.006128953769803047,0.0028106968384236097,0.006098081357777119,0.36083984375,0.61083984375,0.7197265625
2023-07-29T21:33:56.680772,0.9999599456787109,0.006128787063062191,0.00275909504853189,0.005924065597355366,0.36083984375,0.61083984375,0.7197265625
2023-07-29T21:33:56.685759,0.9999599456787109,0.006128787063062191,0.00275909504853189,0.005924065597355366,0.35546875,0.6103515625,0.71875
2023-07-29T21:33:56.688830,0.9999578595161438,0.0064818826504051685,0.002687464002519846,0.0059226397424936295,0.35546875,0.6103515625,0.71875
2023-07-29T21:33:56.700685,0.9999578595161438,0.0064818826504051685,0.002687464002519846,0.0059226397424936295,0.35595703125,0.615234375,0.716796875
2023-07-29T21:33:56.702680,0.9999546408653259,0.006935395300388336,0.002588499104604125,0.005984680727124214,0.35595703125,0.615234375,0.716796875
2023-07-29T21:33:56.708117,0.9999546408653259,0.006935395300388336,0.002588499104604125,0.005984680727124214,0.3681640625,0.62158203125,0.724609375
2023-07-29T21:33:56.710115,0.9999527931213379,0.007126771379262209,0.0025890341494232416,0.006072006653994322,0.3681640625,0.62158203125,0.724609375
2023-07-29T21:33:56.736083,0.9999527931213379,0.007126771379262209,0.0025890341494232416,0.006072006653994322,0.3642578125,0.6455078125,0.7138671875
2023-07-29T21:33:56.736587,0.9999515414237976,0.007300472818315029,0.0025900888722389936,0.0060715568251907825,0.3642578125,0.6455078125,0.7138671875
2023-07-29T21:33:56.737813,0.9999515414237976,0.007300472818315029,0.0025900888722389936,0.0060715568251907825,0.3642578125,0.638671875,0.70751953125
2023-07-29T21:33:56.738809,0.9999496936798096,0.007553125265985727,0.002591622993350029,0.006070902571082115,0.3642578125,0.638671875,0.70751953125
2023-07-29T21:33:56.756988,0.9999496936798096,0.007553125265985727,0.002591622993350029,0.006070902571082115,0.3671875,0.62646484375,0.71240234375
2023-07-29T21:33:56.756988,0.999944806098938,0.008170975372195244,0.0025953734293580055,0.006069299764931202,0.3671875,0.62646484375,0.71240234375
2023-07-29T21:33:56.758091,0.999944806098938,0.008170975372195244,0.0025953734293580055,0.006069299764931202,0.35986328125,0.6328125,0.7080078125
2023-07-29T21:33:56.758091,0.9999420642852783,0.008549782447516918,0.0025981897488236427,0.0060051558539271355,0.35986328125,0.6328125,0.7080078125
2023-07-29T21:33:56.759088,0.9999420642852783,0.008549782447516918,0.0025981897488236427,0.0060051558539271355,0.36083984375,0.63232421875,0.712890625
2023-07-29T21:33:56.777198,0.9999402165412903,0.008823281154036522,0.0026005085092037916,0.005925494711846113,0.36083984375,0.63232421875,0.712890625
2023-07-29T21:33:56.777198,0.9999402165412903,0.008823281154036522,0.0026005085092037916,0.005925494711846113,0.36474609375,0.62744140625,0.72021484375
2023-07-29T21:33:56.779195,0.9999428987503052,0.008534368127584457,0.0025040211621671915,0.0059254104271531105,0.36474609375,0.62744140625,0.72021484375
2023-07-29T21:33:56.780193,0.9999428987503052,0.008534368127584457,0.0025040211621671915,0.0059254104271531105,0.37646484375,0.6181640625,0.72412109375
2023-07-29T21:33:56.783184,0.9999479055404663,0.007882324978709221,0.0024310240987688303,0.006005409173667431,0.37646484375,0.6181640625,0.72412109375
2023-07-29T21:33:56.784181,0.9999479055404663,0.007882324978709221,0.0024310240987688303,0.006005409173667431,0.38134765625,0.62890625,0.72607421875
2023-07-29T21:33:56.784181,0.9999560117721558,0.006624819245189428,0.002422056859359145,0.006187417544424534,0.38134765625,0.62890625,0.72607421875
2023-07-29T21:33:56.798978,0.9999560117721558,0.006624819245189428,0.002422056859359145,0.006187417544424534,0.37646484375,0.65771484375,0.71875
2023-07-29T21:33:56.799975,0.9999664425849915,0.004408400971442461,0.002575306687504053,0.006409684661775827,0.37646484375,0.65771484375,0.71875
2023-07-29T21:33:56.805960,0.9999664425849915,0.004408400971442461,0.002575306687504053,0.006409684661775827,0.3701171875,0.66845703125,0.69482421875
2023-07-29T21:33:56.807044,0.9999723434448242,0.0021170726977288723,0.00277830776758492,0.006565664894878864,0.3701171875,0.66845703125,0.69482421875
2023-07-29T21:33:56.817042,0.9999723434448242,0.0021170726977288723,0.00277830776758492,0.006565664894878864,0.36865234375,0.6552734375,0.69775390625
2023-07-29T21:33:56.817042,0.9999731183052063,-0.0005739736370742321,0.0030130636878311634,0.006663128267973661,0.36865234375,0.6552734375,0.69775390625
2023-07-29T21:33:56.828793,0.9999731183052063,-0.0005739736370742321,0.0030130636878311634,0.006663128267973661,0.38037109375,0.62060546875,0.72021484375
2023-07-29T21:33:56.829790,0.9999679327011108,-0.002996989991515875,0.0032705909106880426,0.006670246832072735,0.38037109375,0.62060546875,0.72021484375
2023-07-29T21:33:56.878663,0.9999679327011108,-0.002996989991515875,0.0032705909106880426,0.006670246832072735,0.38232421875,0.6015625,0.732421875
2023-07-29T21:33:56.878663,0.9999615550041199,-0.004520275164395571,0.0035549888852983713,0.006616431754082441,0.38232421875,0.6015625,0.732421875
2023-07-29T21:33:56.879661,0.9999615550041199,-0.004520275164395571,0.0035549888852983713,0.006616431754082441,0.369140625,0.58837890625,0.724609375
2023-07-29T21:33:56.899077,0.9999507069587708,-0.006252855993807316,0.003749314695596695,0.006742709781974554,0.369140625,0.58837890625,0.724609375
2023-07-29T21:33:56.900074,0.9999507069587708,-0.006252855993807316,0.003749314695596695,0.006742709781974554,0.3662109375,0.595703125,0.73193359375
2023-07-29T21:33:56.917054,0.9999383687973022,-0.007706382777541876,0.00397225609049201,0.006936182733625174,0.3662109375,0.595703125,0.73193359375
2023-07-29T21:33:56.918056,0.9999383687973022,-0.007706382777541876,0.00397225609049201,0.006936182733625174,0.3564453125,0.6123046875,0.72265625
2023-07-29T21:33:56.919057,0.9999216794967651,-0.009391136467456818,0.004156900569796562,0.007151895202696323,0.3564453125,0.6123046875,0.72265625
2023-07-29T21:33:56.920053,0.9999216794967651,-0.009391136467456818,0.004156900569796562,0.007151895202696323,0.35205078125,0.6083984375,0.720703125
2023-07-29T21:33:56.920053,0.999905526638031,-0.010728104040026665,0.004323510453104973,0.0074242400005459785,0.35205078125,0.6083984375,0.720703125
2023-07-29T21:33:56.921050,0.999905526638031,-0.010728104040026665,0.004323510453104973,0.0074242400005459785,0.34765625,0.6298828125,0.71923828125
2023-07-29T21:33:56.922048,0.9998878836631775,-0.012086136266589165,0.004432904068380594,0.007647213526070118,0.34765625,0.6298828125,0.71923828125
2023-07-29T21:33:56.923045,0.9998878836631775,-0.012086136266589165,0.004432904068380594,0.007647213526070118,0.35302734375,0.6396484375,0.720703125
2023-07-29T21:33:56.924043,0.9998642802238464,-0.013806979171931744,0.0044845775701105595,0.007796171586960554,0.35302734375,0.6396484375,0.720703125
2023-07-29T21:33:56.925056,0.9998642802238464,-0.013806979171931744,0.0044845775701105595,0.007796171586960554,0.36181640625,0.61279296875,0.73095703125
2023-07-29T21:33:56.925056,0.9998376369476318,-0.015548384748399258,0.004472804721444845,0.007935546338558197,0.36181640625,0.61279296875,0.73095703125
2023-07-29T21:33:56.951042,0.9998376369476318,-0.015548384748399258,0.004472804721444845,0.007935546338558197,0.36669921875,0.59375,0.74169921875
2023-07-29T21:33:56.952041,0.999806821346283,-0.01731010712683201,0.004462368320673704,0.008172420784831047,0.36669921875,0.59375,0.74169921875
2023-07-29T21:33:56.979393,0.999806821346283,-0.01731010712683201,0.004462368320673704,0.008172420784831047,0.3740234375,0.5986328125,0.7392578125
2023-07-29T21:33:56.980390,0.9997701048851013,-0.019203800708055496,0.004379529505968094,0.008471367880702019,0.3740234375,0.5986328125,0.7392578125
2023-07-29T21:33:56.980390,0.9997701048851013,-0.019203800708055496,0.004379529505968094,0.008471367880702019,0.3798828125,0.61474609375,0.73876953125
2023-07-29T21:33:56.981387,0.9997218251228333,-0.021497325971722603,0.004363715648651123,0.00867084413766861,0.3798828125,0.61474609375,0.73876953125
2023-07-29T21:33:56.982384,0.9997218251228333,-0.021497325971722603,0.004363715648651123,0.00867084413766861,0.3779296875,0.619140625,0.732421875
2023-07-29T21:33:56.983389,0.9996516108512878,-0.024509934708476067,0.004265835043042898,0.008818688802421093,0.3779296875,0.619140625,0.732421875
2023-07-29T21:33:56.999885,0.9996516108512878,-0.024509934708476067,0.004265835043042898,0.008818688802421093,0.36962890625,0.5888671875,0.73681640625
2023-07-29T21:33:56.999885,0.9995784163475037,-0.02727491781115532,0.004068403504788876,0.009076894260942936,0.36962890625,0.5888671875,0.73681640625
2023-07-29T21:33:57.000884,0.9995784163475037,-0.02727491781115532,0.004068403504788876,0.009076894260942936,0.361328125,0.57373046875,0.74609375
2023-07-29T21:33:57.001881,0.9995165467262268,-0.029408270493149757,0.00386060937307775,0.009322382509708405,0.361328125,0.57373046875,0.74609375
2023-07-29T21:33:57.001881,0.9995165467262268,-0.029408270493149757,0.00386060937307775,0.009322382509708405,0.36962890625,0.5673828125,0.75830078125
2023-07-29T21:33:57.002879,0.999457836151123,-0.0312790647149086,0.0036276322789490223,0.00961302686482668,0.36962890625,0.5673828125,0.75830078125
2023-07-29T21:33:57.003875,0.999457836151123,-0.0312790647149086,0.0036276322789490223,0.00961302686482668,0.373046875,0.58642578125,0.767578125
2023-07-29T21:33:57.004875,0.9993917346000671,-0.033290594816207886,0.003458657069131732,0.009795555844902992,0.373046875,0.58642578125,0.767578125
2023-07-29T21:33:57.005871,0.9993917346000671,-0.033290594816207886,0.003458657069131732,0.009795555844902992,0.3681640625,0.5888671875,0.75732421875
2023-07-29T21:33:57.005871,0.9993130564689636,-0.03555053845047951,0.003288273699581623,0.009939952753484249,0.3681640625,0.5888671875,0.75732421875
2023-07-29T21:33:57.007759,0.9993130564689636,-0.03555053845047951,0.003288273699581623,0.009939952753484249,0.37646484375,0.57958984375,0.7587890625
2023-07-29T21:33:57.008757,0.9992668628692627,-0.03686906769871712,0.003066222881898284,0.00984638649970293,0.37646484375,0.57958984375,0.7587890625
2023-07-29T21:33:57.015740,0.9992668628692627,-0.03686906769871712,0.003066222881898284,0.00984638649970293,0.38427734375,0.572265625,0.7421875
2023-07-29T21:33:57.017067,0.999174952507019,-0.03926875814795494,0.002695332048460841,0.010008751414716244,0.38427734375,0.572265625,0.7421875
2023-07-29T21:33:57.023180,0.999174952507019,-0.03926875814795494,0.002695332048460841,0.010008751414716244,0.38134765625,0.58740234375,0.75341796875
2023-07-29T21:33:57.023180,0.9990737438201904,-0.04176047816872597,0.0022802185267210007,0.010126729495823383,0.38134765625,0.58740234375,0.75341796875
2023-07-29T21:33:57.030225,0.9990737438201904,-0.04176047816872597,0.0022802185267210007,0.010126729495823383,0.38134765625,0.58642578125,0.75439453125
2023-07-29T21:33:57.038219,0.9989644289016724,-0.04425273463129997,0.001782045466825366,0.010415557771921158,0.38134765625,0.58642578125,0.75439453125
2023-07-29T21:33:57.045710,0.9989644289016724,-0.04425273463129997,0.001782045466825366,0.010415557771921158,0.3837890625,0.54833984375,0.767578125
2023-07-29T21:33:57.045710,0.9987812638282776,-0.04812134802341461,0.0012358116218820214,0.010897885076701641,0.3837890625,0.54833984375,0.767578125
2023-07-29T21:33:57.053199,0.9987812638282776,-0.04812134802341461,0.0012358116218820214,0.010897885076701641,0.384765625,0.55419921875,0.77978515625
2023-07-29T21:33:57.054197,0.99860680103302,-0.05154958367347717,0.0008457618532702327,0.011240487918257713,0.384765625,0.55419921875,0.77978515625
2023-07-29T21:33:57.060158,0.99860680103302,-0.05154958367347717,0.0008457618532702327,0.011240487918257713,0.3720703125,0.7060546875,0.73095703125
2023-07-29T21:33:57.068153,0.9989114999771118,-0.04571807384490967,0.0005343552911654115,0.009241575375199318,0.3720703125,0.7060546875,0.73095703125
2023-07-29T21:33:57.076637,0.9989114999771118,-0.04571807384490967,0.0005343552911654115,0.009241575375199318,0.41552734375,0.6181640625,0.80126953125
2023-07-29T21:33:57.077644,0.9986211061477661,-0.05182632431387901,0.0003367417957633734,0.00835015345364809,0.41552734375,0.6181640625,0.80126953125
2023-07-29T21:33:57.082629,0.9986211061477661,-0.05182632431387901,0.0003367417957633734,0.00835015345364809,0.3955078125,0.46142578125,0.66357421875
2023-07-29T21:33:57.083628,0.9981141686439514,-0.06102437898516655,-0.0009127455996349454,0.006579665932804346,0.3955078125,0.46142578125,0.66357421875
2023-07-29T21:33:57.090868,0.9981141686439514,-0.06102437898516655,-0.0009127455996349454,0.006579665932804346,0.306640625,0.7490234375,0.58837890625
2023-07-29T21:33:57.090868,0.9989053606987,-0.046449195593595505,-0.001971850637346506,0.005152879748493433,0.306640625,0.7490234375,0.58837890625
2023-07-29T21:33:57.105895,0.9989053606987,-0.046449195593595505,-0.001971850637346506,0.005152879748493433,0.462890625,0.62451171875,0.99951171875
2023-07-29T21:33:57.107399,0.9984063506126404,-0.0562305673956871,-0.0019310384523123503,0.004375609569251537,0.462890625,0.62451171875,0.99951171875
2023-07-29T21:33:57.113386,0.9984063506126404,-0.0562305673956871,-0.0019310384523123503,0.004375609569251537,0.4267578125,0.32177734375,0.8720703125
2023-07-29T21:33:57.113386,0.9979513883590698,-0.06383814662694931,-0.001794561743736267,0.0038187545724213123,0.4267578125,0.32177734375,0.8720703125
2023-07-29T21:33:57.122990,0.9979513883590698,-0.06383814662694931,-0.001794561743736267,0.0038187545724213123,0.32666015625,0.33349609375,0.73583984375
2023-07-29T21:33:57.123986,0.9980159997940063,-0.06276097148656845,-0.0021358358208090067,0.004523173440247774,0.32666015625,0.33349609375,0.73583984375
2023-07-29T21:33:57.141053,0.9980159997940063,-0.06276097148656845,-0.0021358358208090067,0.004523173440247774,0.3662109375,0.43994140625,0.83203125
2023-07-29T21:33:57.141053,0.9980100989341736,-0.06281747668981552,-0.0025424787309020758,0.004854495637118816,0.3662109375,0.43994140625,0.83203125
2023-07-29T21:33:57.143047,0.9980100989341736,-0.06281747668981552,-0.0025424787309020758,0.004854495637118816,0.365234375,0.51904296875,0.8017578125
2023-07-29T21:33:57.144044,0.9982005953788757,-0.05970451608300209,-0.003002542769536376,0.004686620086431503,0.365234375,0.51904296875,0.8017578125
2023-07-29T21:33:57.151015,0.9982005953788757,-0.05970451608300209,-0.003002542769536376,0.004686620086431503,0.35693359375,0.54248046875,0.74072265625
2023-07-29T21:33:57.152011,0.9984662532806396,-0.05504942312836647,-0.003804299281910062,0.004507263191044331,0.35693359375,0.54248046875,0.74072265625
2023-07-29T21:33:57.165994,0.9984662532806396,-0.05504942312836647,-0.003804299281910062,0.004507263191044331,0.3916015625,0.52099609375,0.81298828125
2023-07-29T21:33:57.166870,0.9983382225036621,-0.05717655271291733,-0.004589627031236887,0.005523457191884518,0.3916015625,0.52099609375,0.81298828125
2023-07-29T21:33:57.173105,0.9983382225036621,-0.05717655271291733,-0.004589627031236887,0.005523457191884518,0.3720703125,0.49169921875,0.85302734375
2023-07-29T21:33:57.174102,0.998205840587616,-0.05930023267865181,-0.005153035279363394,0.006467896979302168,0.3720703125,0.49169921875,0.85302734375
2023-07-29T21:33:57.180703,0.998205840587616,-0.05930023267865181,-0.005153035279363394,0.006467896979302168,0.34765625,0.53369140625,0.787109375
2023-07-29T21:33:57.181703,0.9982174634933472,-0.05894408002495766,-0.005662329960614443,0.007443951442837715,0.34765625,0.53369140625,0.787109375
2023-07-29T21:33:57.195680,0.9982174634933472,-0.05894408002495766,-0.005662329960614443,0.007443951442837715,0.35791015625,0.55908203125,0.8046875
2023-07-29T21:33:57.195680,0.9980875253677368,-0.060942403972148895,-0.006079440005123615,0.008389603346586227,0.35791015625,0.55908203125,0.8046875
2023-07-29T21:33:57.203513,0.9980875253677368,-0.060942403972148895,-0.006079440005123615,0.008389603346586227,0.373046875,0.53662109375,0.80126953125
2023-07-29T21:33:57.203513,0.9979305863380432,-0.06326612830162048,-0.006556520704180002,0.009431634098291397,0.373046875,0.53662109375,0.80126953125
2023-07-29T21:33:57.210033,0.9979305863380432,-0.06326612830162048,-0.006556520704180002,0.009431634098291397,0.37060546875,0.52685546875,0.76220703125
2023-07-29T21:33:57.211030,0.9978075623512268,-0.06492548435926437,-0.007296455558389425,0.010558309964835644,0.37060546875,0.52685546875,0.76220703125
2023-07-29T21:33:57.225771,0.9978075623512268,-0.06492548435926437,-0.007296455558389425,0.010558309964835644,0.3828125,0.5087890625,0.7783203125
2023-07-29T21:33:57.225771,0.9975849986076355,-0.06792242079973221,-0.008206231519579887,0.011970484629273415,0.3828125,0.5087890625,0.7783203125
2023-07-29T21:33:57.233413,0.9975849986076355,-0.06792242079973221,-0.008206231519579887,0.011970484629273415,0.38623046875,0.52392578125,0.787109375
2023-07-29T21:33:57.233413,0.9973754286766052,-0.07058781385421753,-0.009151172824203968,0.01326088048517704,0.38623046875,0.52392578125,0.787109375
2023-07-29T21:33:57.240411,0.9973754286766052,-0.07058781385421753,-0.009151172824203968,0.01326088048517704,0.37548828125,0.5537109375,0.7802734375
2023-07-29T21:33:57.241409,0.9971848726272583,-0.0728505402803421,-0.010265038348734379,0.014477463439106941,0.37548828125,0.5537109375,0.7802734375
2023-07-29T21:33:57.255898,0.9971848726272583,-0.0728505402803421,-0.010265038348734379,0.014477463439106941,0.36767578125,0.57080078125,0.7705078125
2023-07-29T21:33:57.255898,0.9970296025276184,-0.07459384948015213,-0.011456911452114582,0.015377613715827465,0.36767578125,0.57080078125,0.7705078125
2023-07-29T21:33:57.263393,0.9970296025276184,-0.07459384948015213,-0.011456911452114582,0.015377613715827465,0.36572265625,0.57568359375,0.8037109375
2023-07-29T21:33:57.264387,0.9968592524528503,-0.0765458270907402,-0.012522466480731964,0.015986701473593712,0.36572265625,0.57568359375,0.8037109375
2023-07-29T21:33:57.271158,0.9968592524528503,-0.0765458270907402,-0.012522466480731964,0.015986701473593712,0.35400390625,0.546875,0.81787109375
2023-07-29T21:33:57.271158,0.9965882301330566,-0.0797792375087738,-0.013380913995206356,0.016371989622712135,0.35400390625,0.546875,0.81787109375
2023-07-29T21:33:57.286970,0.9965882301330566,-0.0797792375087738,-0.013380913995206356,0.016371989622712135,0.35302734375,0.5146484375,0.82470703125
2023-07-29T21:33:57.287492,0.9963027238845825,-0.08309318870306015,-0.013943247497081757,0.016790052875876427,0.35302734375,0.5146484375,0.82470703125
2023-07-29T21:33:57.293480,0.9963027238845825,-0.08309318870306015,-0.013943247497081757,0.016790052875876427,0.3623046875,0.490234375,0.84716796875
2023-07-29T21:33:57.294484,0.9959822297096252,-0.08671682327985764,-0.014282590709626675,0.017192622646689415,0.3623046875,0.490234375,0.84716796875
2023-07-29T21:33:57.300410,0.9959822297096252,-0.08671682327985764,-0.014282590709626675,0.017192622646689415,0.37109375,0.47216796875,0.81005859375
2023-07-29T21:33:57.301408,0.9956663250923157,-0.09012608975172043,-0.014720112085342407,0.01758282072842121,0.37109375,0.47216796875,0.81005859375
2023-07-29T21:33:57.315909,0.9956663250923157,-0.09012608975172043,-0.014720112085342407,0.01758282072842121,0.4052734375,0.4521484375,0.80224609375
2023-07-29T21:33:57.315909,0.9954575896263123,-0.09222614765167236,-0.015376811847090721,0.017945868894457817,0.4052734375,0.4521484375,0.80224609375
2023-07-29T21:33:57.323916,0.9954575896263123,-0.09222614765167236,-0.015376811847090721,0.017945868894457817,0.41064453125,0.48681640625,0.77880859375
2023-07-29T21:33:57.323916,0.9953874349594116,-0.09275463223457336,-0.01641479879617691,0.01819123700261116,0.41064453125,0.48681640625,0.77880859375
2023-07-29T21:33:57.330459,0.9953874349594116,-0.09275463223457336,-0.01641479879617691,0.01819123700261116,0.40283203125,0.52001953125,0.76025390625
2023-07-29T21:33:57.332456,0.9953206181526184,-0.09320756793022156,-0.01772288978099823,0.01830444112420082,0.40283203125,0.52001953125,0.76025390625
2023-07-29T21:33:57.338458,0.9953206181526184,-0.09320756793022156,-0.01772288978099823,0.01830444112420082,0.41015625,0.529296875,0.8046875
2023-07-29T21:33:57.345948,0.9952523708343506,-0.09368744492530823,-0.019077833741903305,0.01820470206439495,0.41015625,0.529296875,0.8046875
2023-07-29T21:33:57.353217,0.9952523708343506,-0.09368744492530823,-0.019077833741903305,0.01820470206439495,0.39306640625,0.51611328125,0.7861328125
2023-07-29T21:33:57.354216,0.9951320290565491,-0.09471374750137329,-0.020483283326029778,0.01794491522014141,0.39306640625,0.51611328125,0.7861328125
2023-07-29T21:33:57.360889,0.9951320290565491,-0.09471374750137329,-0.020483283326029778,0.01794491522014141,0.39990234375,0.5048828125,0.806640625
2023-07-29T21:33:57.361886,0.9950961470603943,-0.09488768130540848,-0.021687956526875496,0.017595170065760612,0.39990234375,0.5048828125,0.806640625
2023-07-29T21:33:57.368162,0.9950961470603943,-0.09488768130540848,-0.021687956526875496,0.017595170065760612,0.41064453125,0.48291015625,0.84814453125
2023-07-29T21:33:57.369205,0.9950137734413147,-0.09560435265302658,-0.022613821551203728,0.017206043004989624,0.41064453125,0.48291015625,0.84814453125
2023-07-29T21:33:57.382769,0.9950137734413147,-0.09560435265302658,-0.022613821551203728,0.017206043004989624,0.41162109375,0.451171875,0.84619140625
2023-07-29T21:33:57.383766,0.9949119687080383,-0.09655195474624634,-0.023341737687587738,0.01682419702410698,0.41162109375,0.451171875,0.84619140625
2023-07-29T21:33:57.391078,0.9949119687080383,-0.09655195474624634,-0.023341737687587738,0.01682419702410698,0.41552734375,0.43408203125,0.82958984375
2023-07-29T21:33:57.391078,0.9949213862419128,-0.09635458886623383,-0.023978598415851593,0.016499290242791176,0.41552734375,0.43408203125,0.82958984375
2023-07-29T21:33:57.398230,0.9949213862419128,-0.09635458886623383,-0.023978598415851593,0.016499290242791176,0.4169921875,0.45703125,0.814453125
2023-07-29T21:33:57.398230,0.9949437975883484,-0.0960346907377243,-0.024606864899396896,0.016081491485238075,0.4169921875,0.45703125,0.814453125
2023-07-29T21:33:57.412796,0.9949437975883484,-0.0960346907377243,-0.024606864899396896,0.016081491485238075,0.41845703125,0.45751953125,0.81982421875
2023-07-29T21:33:57.413794,0.9949263334274292,-0.09608729928731918,-0.025316832587122917,0.01574636809527874,0.41845703125,0.45751953125,0.81982421875
2023-07-29T21:33:57.421130,0.9949263334274292,-0.09608729928731918,-0.025316832587122917,0.01574636809527874,0.4150390625,0.45263671875,0.82275390625
2023-07-29T21:33:57.421130,0.9949213862419128,-0.0960107296705246,-0.02597353234887123,0.015451907180249691,0.4150390625,0.45263671875,0.82275390625
2023-07-29T21:33:57.427626,0.9949213862419128,-0.0960107296705246,-0.02597353234887123,0.015451907180249691,0.40869140625,0.4423828125,0.83447265625
2023-07-29T21:33:57.428623,0.9948270320892334,-0.09686172753572464,-0.026518886908888817,0.015285104513168335,0.40869140625,0.4423828125,0.83447265625
2023-07-29T21:33:57.442632,0.9948270320892334,-0.09686172753572464,-0.026518886908888817,0.015285104513168335,0.4052734375,0.4345703125,0.8359375
2023-07-29T21:33:57.443629,0.9947684407234192,-0.09735015779733658,-0.026971915736794472,0.015202854759991169,0.4052734375,0.4345703125,0.8359375
2023-07-29T21:33:57.450897,0.9947684407234192,-0.09735015779733658,-0.026971915736794472,0.015202854759991169,0.4130859375,0.44921875,0.84912109375
2023-07-29T21:33:57.451893,0.9947022795677185,-0.09794279932975769,-0.027258578687906265,0.015213827602565289,0.4130859375,0.44921875,0.84912109375
2023-07-29T21:33:57.458262,0.9947022795677185,-0.09794279932975769,-0.027258578687906265,0.015213827602565289,0.42529296875,0.44775390625,0.85888671875
2023-07-29T21:33:57.458262,0.994650661945343,-0.09843087196350098,-0.027341065928339958,0.015297744423151016,0.42529296875,0.44775390625,0.85888671875
2023-07-29T21:33:57.473246,0.994650661945343,-0.09843087196350098,-0.027341065928339958,0.015297744423151016,0.41259765625,0.43212890625,0.84228515625
2023-07-29T21:33:57.473246,0.9945446252822876,-0.09946386516094208,-0.027331963181495667,0.015520831570029259,0.41259765625,0.43212890625,0.84228515625
2023-07-29T21:33:57.480243,0.9945446252822876,-0.09946386516094208,-0.027331963181495667,0.015520831570029259,0.4052734375,0.41796875,0.8310546875
2023-07-29T21:33:57.481241,0.9945034384727478,-0.09982945770025253,-0.027302436530590057,0.015861786901950836,0.4052734375,0.41796875,0.8310546875
2023-07-29T21:33:57.488240,0.9945034384727478,-0.09982945770025253,-0.027302436530590057,0.015861786901950836,0.41650390625,0.427734375,0.83935546875
2023-07-29T21:33:57.488240,0.9944577813148499,-0.10023237764835358,-0.027270859107375145,0.016227904707193375,0.41650390625,0.427734375,0.83935546875
2023-07-29T21:33:57.502777,0.9944577813148499,-0.10023237764835358,-0.027270859107375145,0.016227904707193375,0.41748046875,0.44482421875,0.82275390625
2023-07-29T21:33:57.503775,0.9944490790367126,-0.10023847967386246,-0.027376387268304825,0.01654522493481636,0.41748046875,0.44482421875,0.82275390625
2023-07-29T21:33:57.511317,0.9944490790367126,-0.10023847967386246,-0.027376387268304825,0.01654522493481636,0.42041015625,0.478515625,0.8056640625
2023-07-29T21:33:57.511317,0.9945057034492493,-0.09957821667194366,-0.02761867642402649,0.016726385802030563,0.42041015625,0.478515625,0.8056640625
2023-07-29T21:33:57.517918,0.9945057034492493,-0.09957821667194366,-0.02761867642402649,0.016726385802030563,0.41943359375,0.47900390625,0.81201171875
2023-07-29T21:33:57.518913,0.9945318102836609,-0.09918955713510513,-0.027957560494542122,0.016921516507864,0.41943359375,0.47900390625,0.81201171875
2023-07-29T21:33:57.533001,0.9945318102836609,-0.09918955713510513,-0.027957560494542122,0.016921516507864,0.41552734375,0.46337890625,0.818359375
2023-07-29T21:33:57.533998,0.9945358633995056,-0.0990438163280487,-0.02819804474711418,0.01714020036160946,0.41552734375,0.46337890625,0.818359375
2023-07-29T21:33:57.541375,0.9945358633995056,-0.0990438163280487,-0.02819804474711418,0.01714020036160946,0.40966796875,0.48193359375,0.82080078125
2023-07-29T21:33:57.541375,0.9945407509803772,-0.09891064465045929,-0.028347624465823174,0.017370659857988358,0.40966796875,0.48193359375,0.82080078125
2023-07-29T21:33:57.548379,0.9945407509803772,-0.09891064465045929,-0.028347624465823174,0.017370659857988358,0.41015625,0.4873046875,0.82421875
2023-07-29T21:33:57.548379,0.9945085644721985,-0.09920871257781982,-0.028335563838481903,0.017535056918859482,0.41015625,0.4873046875,0.82421875
2023-07-29T21:33:57.563189,0.9945085644721985,-0.09920871257781982,-0.028335563838481903,0.017535056918859482,0.42041015625,0.45263671875,0.83056640625
2023-07-29T21:33:57.564186,0.9944947957992554,-0.09930206090211868,-0.028306936845183372,0.017834585160017014,0.42041015625,0.45263671875,0.83056640625
2023-07-29T21:33:57.570927,0.9944947957992554,-0.09930206090211868,-0.028306936845183372,0.017834585160017014,0.416015625,0.43701171875,0.81884765625
2023-07-29T21:33:57.570927,0.9945175051689148,-0.09901485592126846,-0.028263622894883156,0.01822325587272644,0.416015625,0.43701171875,0.81884765625
2023-07-29T21:33:57.578145,0.9945175051689148,-0.09901485592126846,-0.028263622894883156,0.01822325587272644,0.41455078125,0.47412109375,0.80029296875
2023-07-29T21:33:57.578930,0.994502067565918,-0.09909629076719284,-0.028217962011694908,0.01869245246052742,0.41455078125,0.47412109375,0.80029296875
2023-07-29T21:33:57.592796,0.994502067565918,-0.09909629076719284,-0.028217962011694908,0.01869245246052742,0.42138671875,0.50732421875,0.806640625
2023-07-29T21:33:57.593875,0.9944779872894287,-0.09931186586618423,-0.02813085913658142,0.018955713137984276,0.42138671875,0.50732421875,0.806640625
2023-07-29T21:33:57.600945,0.9944779872894287,-0.09931186586618423,-0.02813085913658142,0.018955713137984276,0.4208984375,0.48583984375,0.7998046875
2023-07-29T21:33:57.601943,0.994408130645752,-0.09997252374887466,-0.028120845556259155,0.019162287935614586,0.4208984375,0.48583984375,0.7998046875
2023-07-29T21:33:57.608107,0.994408130645752,-0.09997252374887466,-0.028120845556259155,0.019162287935614586,0.41455078125,0.45263671875,0.81103515625
2023-07-29T21:33:57.609108,0.994337260723114,-0.10062180459499359,-0.028162462636828423,0.019379649311304092,0.41455078125,0.45263671875,0.81103515625
2023-07-29T21:33:57.616087,0.994337260723114,-0.10062180459499359,-0.028162462636828423,0.019379649311304092,0.41357421875,0.4365234375,0.82275390625
2023-07-29T21:33:57.623581,0.9943195581436157,-0.10070275515317917,-0.02833542972803116,0.01961684785783291,0.41357421875,0.4365234375,0.82275390625
2023-07-29T21:33:57.630444,0.9943195581436157,-0.10070275515317917,-0.02833542972803116,0.01961684785783291,0.41796875,0.44580078125,0.82470703125
2023-07-29T21:33:57.631443,0.9943309426307678,-0.10048767924308777,-0.028566543012857437,0.019805416464805603,0.41796875,0.44580078125,0.82470703125
2023-07-29T21:33:57.638989,0.9943309426307678,-0.10048767924308777,-0.028566543012857437,0.019805416464805603,0.4130859375,0.46875,0.81884765625
2023-07-29T21:33:57.639965,0.9943675994873047,-0.10001090914011002,-0.028811784461140633,0.02001931704580784,0.4130859375,0.46875,0.81884765625
2023-07-29T21:33:57.645947,0.9943675994873047,-0.10001090914011002,-0.028811784461140633,0.02001931704580784,0.41650390625,0.4619140625,0.81689453125
2023-07-29T21:33:57.646450,0.9943855404853821,-0.0997031182050705,-0.029069779440760612,0.020292751491069794,0.41650390625,0.4619140625,0.81689453125
2023-07-29T21:33:57.660940,0.9943855404853821,-0.0997031182050705,-0.029069779440760612,0.020292751491069794,0.42041015625,0.46142578125,0.814453125
2023-07-29T21:33:57.660940,0.9943483471870422,-0.09989268332719803,-0.029389159753918648,0.020714858546853065,0.42041015625,0.46142578125,0.814453125
2023-07-29T21:33:57.668968,0.9943483471870422,-0.09989268332719803,-0.029389159753918648,0.020714858546853065,0.41748046875,0.47119140625,0.80859375
2023-07-29T21:33:57.668968,0.9942678809165955,-0.10046138614416122,-0.029740778729319572,0.021313989534974098,0.41748046875,0.47119140625,0.80859375
2023-07-29T21:33:57.675935,0.9942678809165955,-0.10046138614416122,-0.029740778729319572,0.021313989534974098,0.421875,0.4794921875,0.8056640625
2023-07-29T21:33:57.676438,0.9941765666007996,-0.10108350962400436,-0.03016718477010727,0.022019432857632637,0.421875,0.4794921875,0.8056640625
2023-07-29T21:33:57.690974,0.9941765666007996,-0.10108350962400436,-0.03016718477010727,0.022019432857632637,0.423828125,0.47412109375,0.81103515625
2023-07-29T21:33:57.690974,0.9940797686576843,-0.10171426832675934,-0.03069162182509899,0.022750340402126312,0.423828125,0.47412109375,0.81103515625
2023-07-29T21:33:57.698971,0.9940797686576843,-0.10171426832675934,-0.03069162182509899,0.022750340402126312,0.419921875,0.43798828125,0.7734375
2023-07-29T21:33:57.699968,0.9939483404159546,-0.10220101475715637,-0.03247535973787308,0.02380966767668724,0.419921875,0.43798828125,0.7734375
2023-07-29T21:33:57.705954,0.9939483404159546,-0.10220101475715637,-0.03247535973787308,0.02380966767668724,0.44677734375,0.453125,0.8857421875
2023-07-29T21:33:57.705954,0.9941405653953552,-0.10010062158107758,-0.03277335315942764,0.02429482899606228,0.44677734375,0.453125,0.8857421875
2023-07-29T21:33:57.721435,0.9941405653953552,-0.10010062158107758,-0.03277335315942764,0.02429482899606228,0.44140625,0.46728515625,0.8203125
2023-07-29T21:33:57.722426,0.9940494298934937,-0.10073429346084595,-0.033192336559295654,0.024832775816321373,0.44140625,0.46728515625,0.8203125
2023-07-29T21:33:57.728107,0.9940494298934937,-0.10073429346084595,-0.033192336559295654,0.024832775816321373,0.4296875,0.44677734375,0.810546875
2023-07-29T21:33:57.729103,0.9940299391746521,-0.10073690116405487,-0.033492669463157654,0.025194857269525528,0.4296875,0.44677734375,0.810546875
2023-07-29T21:33:57.735847,0.9940299391746521,-0.10073690116405487,-0.033492669463157654,0.025194857269525528,0.44384765625,0.46240234375,0.8173828125
2023-07-29T21:33:57.735847,0.9940971732139587,-0.09991884231567383,-0.03368861973285675,0.0255352184176445,0.44384765625,0.46240234375,0.8173828125
2023-07-29T21:33:57.750909,0.9940971732139587,-0.09991884231567383,-0.03368861973285675,0.0255352184176445,0.44189453125,0.46240234375,0.8056640625
2023-07-29T21:33:57.750909,0.9941412210464478,-0.09937509894371033,-0.03384726122021675,0.025729570537805557,0.44189453125,0.46240234375,0.8056640625
2023-07-29T21:33:57.758025,0.9941412210464478,-0.09937509894371033,-0.03384726122021675,0.025729570537805557,0.44677734375,0.46484375,0.8095703125
2023-07-29T21:33:57.759026,0.9942498803138733,-0.0982278436422348,-0.03392750397324562,0.025832410901784897,0.44677734375,0.46484375,0.8095703125
2023-07-29T21:33:57.766007,0.9942498803138733,-0.0982278436422348,-0.03392750397324562,0.025832410901784897,0.443359375,0.45166015625,0.8134765625
2023-07-29T21:33:57.766617,0.994369626045227,-0.09700839221477509,-0.03389579430222511,0.025874001905322075,0.443359375,0.45166015625,0.8134765625
2023-07-29T21:33:57.780903,0.994369626045227,-0.09700839221477509,-0.03389579430222511,0.025874001905322075,0.45263671875,0.44580078125,0.82177734375
2023-07-29T21:33:57.780903,0.9945585131645203,-0.09508426487445831,-0.033761899918317795,0.02593144029378891,0.45263671875,0.44580078125,0.82177734375
2023-07-29T21:33:57.788904,0.9945585131645203,-0.09508426487445831,-0.033761899918317795,0.02593144029378891,0.44873046875,0.4755859375,0.81689453125
2023-07-29T21:33:57.788904,0.9948127865791321,-0.09255791455507278,-0.0334613136947155,0.025709304958581924,0.44873046875,0.4755859375,0.81689453125
2023-07-29T21:33:57.795885,0.9948127865791321,-0.09255791455507278,-0.0334613136947155,0.025709304958581924,0.447265625,0.49560546875,0.8076171875
2023-07-29T21:33:57.796388,0.9950309991836548,-0.09049878269433975,-0.033022694289684296,0.02515442669391632,0.447265625,0.49560546875,0.8076171875
2023-07-29T21:33:57.810681,0.9950309991836548,-0.09049878269433975,-0.033022694289684296,0.02515442669391632,0.4384765625,0.4833984375,0.802734375
2023-07-29T21:33:57.810681,0.9952433705329895,-0.08852442353963852,-0.03254043310880661,0.024394556879997253,0.4384765625,0.4833984375,0.802734375
2023-07-29T21:33:57.818081,0.9952433705329895,-0.08852442353963852,-0.03254043310880661,0.024394556879997253,0.42919921875,0.4873046875,0.8056640625
2023-07-29T21:33:57.818858,0.9954289197921753,-0.08685179799795151,-0.032041821628808975,0.023480281233787537,0.42919921875,0.4873046875,0.8056640625
2023-07-29T21:33:57.825839,0.9954289197921753,-0.08685179799795151,-0.032041821628808975,0.023480281233787537,0.4208984375,0.4853515625,0.80322265625
2023-07-29T21:33:57.826342,0.9955846071243286,-0.08550998568534851,-0.03156810626387596,0.02242296375334263,0.4208984375,0.4853515625,0.80322265625
2023-07-29T21:33:57.840858,0.9955846071243286,-0.08550998568534851,-0.03156810626387596,0.02242296375334263,0.42529296875,0.49462890625,0.79150390625
2023-07-29T21:33:57.840858,0.99574875831604,-0.08400431275367737,-0.03120177611708641,0.021308716386556625,0.42529296875,0.49462890625,0.79150390625
2023-07-29T21:33:57.848054,0.99574875831604,-0.08400431275367737,-0.03120177611708641,0.021308716386556625,0.4365234375,0.50830078125,0.8037109375
2023-07-29T21:33:57.849055,0.9958557486534119,-0.08310485631227493,-0.03089606575667858,0.02025500312447548,0.4365234375,0.50830078125,0.8037109375
2023-07-29T21:33:57.856036,0.9958557486534119,-0.08310485631227493,-0.03089606575667858,0.02025500312447548,0.42822265625,0.50732421875,0.7978515625
2023-07-29T21:33:57.856539,0.9958781599998474,-0.08309899270534515,-0.03051043301820755,0.019753044471144676,0.42822265625,0.50732421875,0.7978515625
2023-07-29T21:33:57.871036,0.9958781599998474,-0.08309899270534515,-0.03051043301820755,0.019753044471144676,0.39404296875,0.4384765625,0.7705078125
2023-07-29T21:33:57.872041,0.9958550930023193,-0.08355910331010818,-0.03028194047510624,0.01932363212108612,0.39404296875,0.4384765625,0.7705078125
2023-07-29T21:33:57.878034,0.9958550930023193,-0.08355910331010818,-0.03028194047510624,0.01932363212108612,0.4248046875,0.47509765625,0.83154296875
2023-07-29T21:33:57.879034,0.9959148168563843,-0.08299119025468826,-0.030027804896235466,0.019093457609415054,0.4248046875,0.47509765625,0.83154296875
2023-07-29T21:33:57.886539,0.9959148168563843,-0.08299119025468826,-0.030027804896235466,0.019093457609415054,0.4208984375,0.50048828125,0.79345703125
2023-07-29T21:33:57.887044,0.9959050416946411,-0.08322582393884659,-0.02983228489756584,0.018890205770730972,0.4208984375,0.50048828125,0.79345703125
2023-07-29T21:33:57.893043,0.9959050416946411,-0.08322582393884659,-0.02983228489756584,0.018890205770730972,0.4140625,0.49072265625,0.7890625
2023-07-29T21:33:57.901157,0.9958773851394653,-0.08362814784049988,-0.029719427227973938,0.01874135248363018,0.4140625,0.49072265625,0.7890625
2023-07-29T21:33:57.908648,0.9958773851394653,-0.08362814784049988,-0.029719427227973938,0.01874135248363018,0.40771484375,0.462890625,0.80126953125
2023-07-29T21:33:57.908648,0.9958691596984863,-0.08375542610883713,-0.029643196612596512,0.018730999901890755,0.40771484375,0.462890625,0.80126953125
2023-07-29T21:33:57.916652,0.9958691596984863,-0.08375542610883713,-0.029643196612596512,0.018730999901890755,0.41064453125,0.48193359375,0.80029296875
2023-07-29T21:33:57.916652,0.9958810806274414,-0.08361388742923737,-0.02964053489267826,0.018735213205218315,0.41064453125,0.48193359375,0.80029296875
2023-07-29T21:33:57.923646,0.9958810806274414,-0.08361388742923737,-0.02964053489267826,0.018735213205218315,0.41845703125,0.51123046875,0.8056640625
2023-07-29T21:33:57.923646,0.9958826303482056,-0.0836113914847374,-0.029647577553987503,0.018651342019438744,0.41845703125,0.51123046875,0.8056640625
2023-07-29T21:33:57.938655,0.9958826303482056,-0.0836113914847374,-0.029647577553987503,0.018651342019438744,0.416015625,0.50390625,0.8134765625
2023-07-29T21:33:57.938655,0.9958527684211731,-0.08407751470804214,-0.02945222146809101,0.018460048362612724,0.416015625,0.50390625,0.8134765625
2023-07-29T21:33:57.946691,0.9958527684211731,-0.08407751470804214,-0.02945222146809101,0.018460048362612724,0.40869140625,0.48291015625,0.81689453125
2023-07-29T21:33:57.947703,0.995857298374176,-0.08419297635555267,-0.02912133000791073,0.018212074413895607,0.40869140625,0.48291015625,0.81689453125
2023-07-29T21:33:57.960750,0.995857298374176,-0.08419297635555267,-0.02912133000791073,0.018212074413895607,0.39501953125,0.4736328125,0.8193359375
2023-07-29T21:33:57.963743,0.9959012269973755,-0.0838717371225357,-0.028742387890815735,0.017888957634568214,0.39501953125,0.4736328125,0.8193359375
2023-07-29T21:33:57.969750,0.9959012269973755,-0.0838717371225357,-0.028742387890815735,0.017888957634568214,0.38720703125,0.4697265625,0.822265625
2023-07-29T21:33:57.970747,0.9959746599197388,-0.08324962854385376,-0.02827954664826393,0.017441140487790108,0.38720703125,0.4697265625,0.822265625
2023-07-29T21:33:57.976745,0.9959746599197388,-0.08324962854385376,-0.02827954664826393,0.017441140487790108,0.38623046875,0.4814453125,0.84423828125
2023-07-29T21:33:57.980754,0.9960511326789856,-0.08269117772579193,-0.02757665514945984,0.016844667494297028,0.38623046875,0.4814453125,0.84423828125
2023-07-29T21:33:57.983746,0.9960511326789856,-0.08269117772579193,-0.02757665514945984,0.016844667494297028,0.3798828125,0.44140625,0.86376953125
2023-07-29T21:33:57.984743,0.996144711971283,-0.08205559849739075,-0.02653898485004902,0.016069576144218445,0.3798828125,0.44140625,0.86376953125
2023-07-29T21:33:58.010786,0.996144711971283,-0.08205559849739075,-0.02653898485004902,0.016069576144218445,0.3564453125,0.44775390625,0.869140625
2023-07-29T21:33:58.011786,0.996306836605072,-0.08070266246795654,-0.0252180565148592,0.014958478510379791,0.3564453125,0.44775390625,0.869140625
2023-07-29T21:33:58.013787,0.996306836605072,-0.08070266246795654,-0.0252180565148592,0.014958478510379791,0.34423828125,0.47802734375,0.86669921875
2023-07-29T21:33:58.013787,0.9964879751205444,-0.07919555902481079,-0.02363206259906292,0.013459473848342896,0.34423828125,0.47802734375,0.86669921875
2023-07-29T21:33:58.015773,0.9964879751205444,-0.07919555902481079,-0.02363206259906292,0.013459473848342896,0.337890625,0.45556640625,0.87890625
2023-07-29T21:33:58.016780,0.996708333492279,-0.07722042500972748,-0.021756209433078766,0.011669914238154888,0.337890625,0.45556640625,0.87890625
2023-07-29T21:33:58.029712,0.996708333492279,-0.07722042500972748,-0.021756209433078766,0.011669914238154888,0.33544921875,0.40771484375,0.8740234375
2023-07-29T21:33:58.030709,0.9970276951789856,-0.07377495616674423,-0.019774701446294785,0.010095546022057533,0.33544921875,0.40771484375,0.8740234375
2023-07-29T21:33:58.036208,0.9970276951789856,-0.07377495616674423,-0.019774701446294785,0.010095546022057533,0.34619140625,0.39990234375,0.8671875
2023-07-29T21:33:58.037740,0.9973587393760681,-0.0698913186788559,-0.017737625166773796,0.00871593039482832,0.34619140625,0.39990234375,0.8671875
2023-07-29T21:33:58.043727,0.9973587393760681,-0.0698913186788559,-0.017737625166773796,0.00871593039482832,0.38818359375,0.4345703125,0.88623046875
2023-07-29T21:33:58.045722,0.9975224137306213,-0.06814566999673843,-0.015551391057670116,0.007956618443131447,0.38818359375,0.4345703125,0.88623046875
2023-07-29T21:33:58.060824,0.9975224137306213,-0.06814566999673843,-0.015551391057670116,0.007956618443131447,0.36279296875,0.5048828125,0.82080078125
2023-07-29T21:33:58.061821,0.9977971315383911,-0.06462487578392029,-0.013440465554594994,0.006608367431908846,0.36279296875,0.5048828125,0.82080078125
2023-07-29T21:33:58.065809,0.9977971315383911,-0.06462487578392029,-0.013440465554594994,0.006608367431908846,0.349609375,0.54345703125,0.78857421875
2023-07-29T21:33:58.067079,0.9980908036231995,-0.06046989932656288,-0.011469805613160133,0.005151267163455486,0.349609375,0.54345703125,0.78857421875
2023-07-29T21:33:58.073078,0.9980908036231995,-0.06046989932656288,-0.011469805613160133,0.005151267163455486,0.3681640625,0.53466796875,0.7890625
2023-07-29T21:33:58.074076,0.9983522891998291,-0.0564490482211113,-0.009626131504774094,0.0036675806622952223,0.3681640625,0.53466796875,0.7890625
2023-07-29T21:33:58.088241,0.9983522891998291,-0.0564490482211113,-0.009626131504774094,0.0036675806622952223,0.37548828125,0.53125,0.779296875
2023-07-29T21:33:58.089240,0.9985876083374023,-0.052468884736299515,-0.008037193678319454,0.002272549085319042,0.37548828125,0.53125,0.779296875
2023-07-29T21:33:58.095734,0.9985876083374023,-0.052468884736299515,-0.008037193678319454,0.002272549085319042,0.38134765625,0.52734375,0.77099609375
2023-07-29T21:33:58.097239,0.9987465143203735,-0.049596067517995834,-0.006592880468815565,0.0014716534642502666,0.38134765625,0.52734375,0.77099609375
2023-07-29T21:33:58.104223,0.9987465143203735,-0.049596067517995834,-0.006592880468815565,0.0014716534642502666,0.37158203125,0.52685546875,0.79443359375
2023-07-29T21:33:58.104223,0.9987927675247192,-0.04884948953986168,-0.005073715932667255,0.0010586449643597007,0.37158203125,0.52685546875,0.79443359375
2023-07-29T21:33:58.119226,0.9987927675247192,-0.04884948953986168,-0.005073715932667255,0.0010586449643597007,0.36962890625,0.54931640625,0.78076171875
2023-07-29T21:33:58.120221,0.998859703540802,-0.047600023448467255,-0.003584502497687936,0.0008482387056574225,0.36962890625,0.54931640625,0.78076171875
2023-07-29T21:33:58.125723,0.998859703540802,-0.047600023448467255,-0.003584502497687936,0.0008482387056574225,0.38720703125,0.54443359375,0.7705078125
2023-07-29T21:33:58.126752,0.9989544749259949,-0.04565563052892685,-0.002194759901612997,0.0007890695123933256,0.38720703125,0.54443359375,0.7705078125
2023-07-29T21:33:58.132887,0.9989544749259949,-0.04565563052892685,-0.002194759901612997,0.0007890695123933256,0.39892578125,0.55078125,0.76025390625
2023-07-29T21:33:58.133884,0.9990479946136475,-0.04360663890838623,-0.0007122099050320685,0.0010314974933862686,0.39892578125,0.55078125,0.76025390625
2023-07-29T21:33:58.149123,0.9990479946136475,-0.04360663890838623,-0.0007122099050320685,0.0010314974933862686,0.3798828125,0.61328125,0.7734375
2023-07-29T21:33:58.150121,0.9991702437400818,-0.04070774093270302,0.0006435733521357179,0.0011237962171435356,0.3798828125,0.61328125,0.7734375
2023-07-29T21:33:58.156104,0.9991702437400818,-0.04070774093270302,0.0006435733521357179,0.0011237962171435356,0.3681640625,0.59765625,0.69873046875
2023-07-29T21:33:58.156608,0.9992946982383728,-0.03749009966850281,0.0018231839640066028,0.0011528243776410818,0.3681640625,0.59765625,0.69873046875
2023-07-29T21:33:58.163813,0.9992946982383728,-0.03749009966850281,0.0018231839640066028,0.0011528243776410818,0.3671875,0.6259765625,0.701171875
2023-07-29T21:33:58.163813,0.9994338154792786,-0.03352531045675278,0.0027285958640277386,0.0008694868301972747,0.3671875,0.6259765625,0.701171875
2023-07-29T21:33:58.172828,0.9994338154792786,-0.03352531045675278,0.0027285958640277386,0.0008694868301972747,0.3671875,0.63232421875,0.6708984375
2023-07-29T21:33:58.179331,0.9995792508125305,-0.028823619708418846,0.0032117690425366163,0.0003823779697995633,0.3671875,0.63232421875,0.6708984375
2023-07-29T21:33:58.185823,0.9995792508125305,-0.028823619708418846,0.0032117690425366163,0.0003823779697995633,0.38427734375,0.646484375,0.66943359375
2023-07-29T21:33:58.186822,0.9997037649154663,-0.024111058562994003,0.0033278947230428457,-0.0002311005227966234,0.38427734375,0.646484375,0.66943359375
2023-07-29T21:33:58.193312,0.9997037649154663,-0.024111058562994003,0.0033278947230428457,-0.0002311005227966234,0.39404296875,0.6474609375,0.67822265625
2023-07-29T21:33:58.194310,0.9997775554656982,-0.020850226283073425,0.0030935199465602636,-0.000757572241127491,0.39404296875,0.6474609375,0.67822265625
2023-07-29T21:33:58.200318,0.9997775554656982,-0.020850226283073425,0.0030935199465602636,-0.000757572241127491,0.384765625,0.630859375,0.69091796875
2023-07-29T21:33:58.201315,0.9998318552970886,-0.018093567341566086,0.0027864878065884113,-0.0009966556681320071,0.384765625,0.630859375,0.69091796875
2023-07-29T21:33:58.218910,0.9998318552970886,-0.018093567341566086,0.0027864878065884113,-0.0009966556681320071,0.3876953125,0.6162109375,0.72509765625
2023-07-29T21:33:58.218910,0.9998621940612793,-0.016362864524126053,0.0026356095913797617,-0.0009987789671868086,0.3876953125,0.6162109375,0.72509765625
2023-07-29T21:33:58.223898,0.9998621940612793,-0.016362864524126053,0.0026356095913797617,-0.0009987789671868086,0.38037109375,0.6328125,0.7138671875
2023-07-29T21:33:58.225892,0.9998785853385925,-0.015346934087574482,0.0025414652191102505,-0.0008999096462503076,0.38037109375,0.6328125,0.7138671875
2023-07-29T21:33:58.230929,0.9998785853385925,-0.015346934087574482,0.0025414652191102505,-0.0008999096462503076,0.3701171875,0.63916015625,0.7021484375
2023-07-29T21:33:58.231927,0.9998988509178162,-0.013983897864818573,0.002424417994916439,-0.0009015958639793098,0.3701171875,0.63916015625,0.7021484375
2023-07-29T21:33:58.246619,0.9998988509178162,-0.013983897864818573,0.002424417994916439,-0.0009015958639793098,0.37060546875,0.63232421875,0.69921875
2023-07-29T21:33:58.246619,0.9999213814735413,-0.012299994006752968,0.002237772336229682,-0.0009662588126957417,0.37060546875,0.63232421875,0.69921875
2023-07-29T21:33:58.253612,0.9999213814735413,-0.012299994006752968,0.002237772336229682,-0.0009662588126957417,0.375,0.62939453125,0.69580078125
2023-07-29T21:33:58.257772,0.999942421913147,-0.010515850968658924,0.0019317169208079576,-0.0008875464554876089,0.375,0.62939453125,0.69580078125
2023-07-29T21:33:58.261272,0.999942421913147,-0.010515850968658924,0.0019317169208079576,-0.0008875464554876089,0.3876953125,0.61474609375,0.7109375
2023-07-29T21:33:58.263269,0.9999545216560364,-0.009399883449077606,0.001486132270656526,-0.0006165659287944436,0.3876953125,0.61474609375,0.7109375
2023-07-29T21:33:58.275778,0.9999545216560364,-0.009399883449077606,0.001486132270656526,-0.0006165659287944436,0.38818359375,0.64013671875,0.71826171875
2023-07-29T21:33:58.277284,0.9999597072601318,-0.008905177935957909,0.0010240004630759358,-0.0004655714437831193,0.38818359375,0.64013671875,0.71826171875
2023-07-29T21:33:58.284269,0.9999597072601318,-0.008905177935957909,0.0010240004630759358,-0.0004655714437831193,0.37158203125,0.6708984375,0.71875
2023-07-29T21:33:58.287280,0.9999573230743408,-0.009189876727759838,0.0005480950349010527,-0.0007189695606939495,0.37158203125,0.6708984375,0.71875
2023-07-29T21:33:58.342326,0.9999573230743408,-0.009189876727759838,0.0005480950349010527,-0.0007189695606939495,0.34912109375,0.63232421875,0.7060546875
2023-07-29T21:33:58.342326,0.9999541640281677,-0.009520713239908218,-7.248413021443412e-05,-0.0010326859774067998,0.34912109375,0.63232421875,0.7060546875
2023-07-29T21:33:58.343324,0.9999541640281677,-0.009520713239908218,-7.248413021443412e-05,-0.0010326859774067998,0.33642578125,0.59423828125,0.712890625
2023-07-29T21:33:58.344322,0.999951183795929,-0.009763576090335846,-0.0008272877312265337,-0.0012729165609925985,0.33642578125,0.59423828125,0.712890625
2023-07-29T21:33:58.345828,0.999951183795929,-0.009763576090335846,-0.0008272877312265337,-0.0012729165609925985,0.3330078125,0.61474609375,0.72265625
2023-07-29T21:33:58.346830,0.9999464750289917,-0.010095887817442417,-0.0016249576583504677,-0.001602286589331925,0.3330078125,0.61474609375,0.72265625
2023-07-29T21:33:58.348334,0.9999464750289917,-0.010095887817442417,-0.0016249576583504677,-0.001602286589331925,0.3408203125,0.63427734375,0.7470703125
2023-07-29T21:33:58.348334,0.9999428391456604,-0.010206262581050396,-0.0022104240488260984,-0.0022545396350324154,0.3408203125,0.63427734375,0.7470703125
2023-07-29T21:33:58.349331,0.9999428391456604,-0.010206262581050396,-0.0022104240488260984,-0.0022545396350324154,0.33349609375,0.63330078125,0.74755859375
2023-07-29T21:33:58.354319,0.9999468326568604,-0.009425974451005459,-0.002633011667057872,-0.0032539230305701494,0.33349609375,0.63330078125,0.74755859375
2023-07-29T21:33:58.354319,0.9999468326568604,-0.009425974451005459,-0.002633011667057872,-0.0032539230305701494,0.32958984375,0.61376953125,0.728515625
2023-07-29T21:33:58.355828,0.9999542236328125,-0.0080246701836586,-0.003057316178455949,-0.0042200819589197636,0.32958984375,0.61376953125,0.728515625
2023-07-29T21:33:58.356827,0.9999542236328125,-0.0080246701836586,-0.003057316178455949,-0.0042200819589197636,0.3369140625,0.6318359375,0.7255859375
2023-07-29T21:33:58.356827,0.9999600052833557,-0.006296361330896616,-0.00344210397452116,-0.005338203627616167,0.3369140625,0.6318359375,0.7255859375
2023-07-29T21:33:58.366947,0.9999600052833557,-0.006296361330896616,-0.00344210397452116,-0.005338203627616167,0.3427734375,0.6572265625,0.71923828125
2023-07-29T21:33:58.368259,0.9999609589576721,-0.004397924989461899,-0.0038651281502097845,-0.006612743716686964,0.3427734375,0.6572265625,0.71923828125
2023-07-29T21:33:58.417119,0.9999609589576721,-0.004397924989461899,-0.0038651281502097845,-0.006612743716686964,0.34814453125,0.6396484375,0.7216796875
2023-07-29T21:33:58.418123,0.9999574422836304,-0.0022110738791525364,-0.0042536575347185135,-0.00788167119026184,0.34814453125,0.6396484375,0.7216796875
2023-07-29T21:33:58.421121,0.9999574422836304,-0.0022110738791525364,-0.0042536575347185135,-0.00788167119026184,0.353515625,0.62548828125,0.72021484375
2023-07-29T21:33:58.424113,0.9999487400054932,-0.0004568402946460992,-0.004669935442507267,-0.008968102745711803,0.353515625,0.62548828125,0.72021484375
2023-07-29T21:33:58.425110,0.9999487400054932,-0.0004568402946460992,-0.004669935442507267,-0.008968102745711803,0.36328125,0.642578125,0.72314453125
2023-07-29T21:33:58.425110,0.9999365210533142,0.0008973712101578712,-0.005082042422145605,-0.010016179643571377,0.36328125,0.642578125,0.72314453125
2023-07-29T21:33:58.429622,0.9999365210533142,0.0008973712101578712,-0.005082042422145605,-0.010016179643571377,0.36083984375,0.65576171875,0.720703125
2023-07-29T21:33:58.436634,0.9999217987060547,0.001891240943223238,-0.005442301742732525,-0.0111014349386096,0.36083984375,0.65576171875,0.720703125
2023-07-29T21:33:58.437644,0.9999217987060547,0.001891240943223238,-0.005442301742732525,-0.0111014349386096,0.35107421875,0.6357421875,0.71142578125
2023-07-29T21:33:58.439643,0.9999042749404907,0.0028346481267362833,-0.005877018440514803,-0.012202378362417221,0.35107421875,0.6357421875,0.71142578125
2023-07-29T21:33:58.440640,0.9999042749404907,0.0028346481267362833,-0.005877018440514803,-0.012202378362417221,0.345703125,0.64697265625,0.7080078125
2023-07-29T21:33:58.440640,0.999883770942688,0.00351695972494781,-0.006403957959264517,-0.013382205739617348,0.345703125,0.64697265625,0.7080078125
2023-07-29T21:33:58.440640,0.999883770942688,0.00351695972494781,-0.006403957959264517,-0.013382205739617348,0.33740234375,0.64013671875,0.72021484375
2023-07-29T21:33:58.441638,0.9998639225959778,0.0033908411860466003,-0.00695074675604701,-0.014569127932190895,0.33740234375,0.64013671875,0.72021484375
2023-07-29T21:33:58.441638,0.9998639225959778,0.0033908411860466003,-0.00695074675604701,-0.014569127932190895,0.32666015625,0.61962890625,0.71923828125
2023-07-29T21:33:58.442635,0.999839723110199,0.0038325684145092964,-0.0075531005859375,-0.015773285180330276,0.32666015625,0.61962890625,0.71923828125
2023-07-29T21:33:58.450653,0.999839723110199,0.0038325684145092964,-0.0075531005859375,-0.015773285180330276,0.33203125,0.6201171875,0.7275390625
2023-07-29T21:33:58.456149,0.9998109340667725,0.004968984983861446,-0.008150726556777954,-0.016940515488386154,0.33203125,0.6201171875,0.7275390625
2023-07-29T21:33:58.464657,0.9998109340667725,0.004968984983861446,-0.008150726556777954,-0.016940515488386154,0.34814453125,0.62060546875,0.7353515625
2023-07-29T21:33:58.466168,0.9997802972793579,0.006331052165478468,-0.00872649997472763,-0.01797415129840374,0.34814453125,0.62060546875,0.7353515625
2023-07-29T21:33:58.474683,0.9997802972793579,0.006331052165478468,-0.00872649997472763,-0.01797415129840374,0.392578125,0.58154296875,0.72802734375
2023-07-29T21:33:58.475680,0.9997685551643372,0.006620608735829592,-0.009409485384821892,-0.01818106509745121,0.392578125,0.58154296875,0.72802734375
2023-07-29T21:33:58.491782,0.9997685551643372,0.006620608735829592,-0.009409485384821892,-0.01818106509745121,0.35546875,0.63916015625,0.79638671875
2023-07-29T21:33:58.492779,0.9997393488883972,0.009030818939208984,-0.009449462406337261,-0.018721451982855797,0.35546875,0.63916015625,0.79638671875
2023-07-29T21:33:58.493776,0.9997393488883972,0.009030818939208984,-0.009449462406337261,-0.018721451982855797,0.32373046875,0.6025390625,0.7001953125
2023-07-29T21:33:58.494774,0.9997336268424988,0.009389855898916721,-0.009455021470785141,-0.0188443623483181,0.32373046875,0.6025390625,0.7001953125
2023-07-29T21:33:58.504784,0.9997336268424988,0.009389855898916721,-0.009455021470785141,-0.0188443623483181,0.3505859375,0.6259765625,0.716796875
2023-07-29T21:33:58.504784,0.9997155070304871,0.010919460095465183,-0.009482517838478088,-0.018968338146805763,0.3505859375,0.6259765625,0.716796875
2023-07-29T21:33:58.508804,0.9997155070304871,0.010919460095465183,-0.009482517838478088,-0.018968338146805763,0.35693359375,0.67431640625,0.69921875
2023-07-29T21:33:58.509801,0.999700665473938,0.01179899089038372,-0.009565270505845547,-0.019176488742232323,0.35693359375,0.67431640625,0.69921875
2023-07-29T21:33:58.523797,0.999700665473938,0.01179899089038372,-0.009565270505845547,-0.019176488742232323,0.3408203125,0.6689453125,0.6962890625
2023-07-29T21:33:58.524795,0.9996894001960754,0.01235383190214634,-0.009573010727763176,-0.019413255155086517,0.3408203125,0.6689453125,0.6962890625
2023-07-29T21:33:58.533810,0.9996894001960754,0.01235383190214634,-0.009573010727763176,-0.019413255155086517,0.330078125,0.64599609375,0.70068359375
2023-07-29T21:33:58.533810,0.9996686577796936,0.013426669873297215,-0.009536477737128735,-0.01978122442960739,0.330078125,0.64599609375,0.70068359375
2023-07-29T21:33:58.538829,0.9996686577796936,0.013426669873297215,-0.009536477737128735,-0.01978122442960739,0.3271484375,0.6240234375,0.7177734375
2023-07-29T21:33:58.538829,0.9996500015258789,0.014346863143146038,-0.009476502425968647,-0.02010299079120159,0.3271484375,0.6240234375,0.7177734375
2023-07-29T21:33:58.553820,0.9996500015258789,0.014346863143146038,-0.009476502425968647,-0.02010299079120159,0.35986328125,0.6025390625,0.73388671875
2023-07-29T21:33:58.554816,0.9996389746665955,0.015292040072381496,-0.009306802414357662,-0.020038718357682228,0.35986328125,0.6025390625,0.73388671875
2023-07-29T21:33:58.560839,0.9996389746665955,0.015292040072381496,-0.009306802414357662,-0.020038718357682228,0.37939453125,0.63427734375,0.7548828125
2023-07-29T21:33:58.561836,0.9996474981307983,0.015509884804487228,-0.008785007521510124,-0.01967608742415905,0.37939453125,0.63427734375,0.7548828125
2023-07-29T21:33:58.568849,0.9996474981307983,0.015509884804487228,-0.008785007521510124,-0.01967608742415905,0.35693359375,0.68359375,0.72998046875
2023-07-29T21:33:58.574833,0.9996815919876099,0.014497796073555946,-0.007975882850587368,-0.01904967799782753,0.35693359375,0.68359375,0.72998046875
2023-07-29T21:33:58.586331,0.9996815919876099,0.014497796073555946,-0.007975882850587368,-0.01904967799782753,0.34375,0.666015625,0.720703125
2023-07-29T21:33:58.587847,0.9997209906578064,0.013007024303078651,-0.006961412262171507,-0.01844736374914646,0.34375,0.666015625,0.720703125
2023-07-29T21:33:58.590842,0.9997209906578064,0.013007024303078651,-0.006961412262171507,-0.01844736374914646,0.33349609375,0.6240234375,0.69580078125
2023-07-29T21:33:58.591840,0.9997475743293762,0.01213032566010952,-0.006067898124456406,-0.017910558730363846,0.33349609375,0.6240234375,0.69580078125
2023-07-29T21:33:58.600864,0.9997475743293762,0.01213032566010952,-0.006067898124456406,-0.017910558730363846,0.328125,0.6416015625,0.67041015625
2023-07-29T21:33:58.600864,0.9997577667236328,0.01203952543437481,-0.005454150028526783,-0.017598478123545647,0.328125,0.6416015625,0.67041015625
2023-07-29T21:33:58.614142,0.9997577667236328,0.01203952543437481,-0.005454150028526783,-0.017598478123545647,0.322265625,0.65771484375,0.66259765625
2023-07-29T21:33:58.614142,0.9997541904449463,0.012465708889067173,-0.005166899412870407,-0.01759263128042221,0.322265625,0.65771484375,0.66259765625
2023-07-29T21:33:58.620926,0.9997541904449463,0.012465708889067173,-0.005166899412870407,-0.01759263128042221,0.330078125,0.65283203125,0.658203125
2023-07-29T21:33:58.621925,0.9997493028640747,0.01295281108468771,-0.005276839714497328,-0.017486101016402245,0.330078125,0.65283203125,0.658203125
2023-07-29T21:33:58.629939,0.9997493028640747,0.01295281108468771,-0.005276839714497328,-0.017486101016402245,0.34228515625,0.6845703125,0.67822265625
2023-07-29T21:33:58.629939,0.9997431635856628,0.013306054286658764,-0.005546246189624071,-0.017487619072198868,0.34228515625,0.6845703125,0.67822265625
2023-07-29T21:33:58.643939,0.9997431635856628,0.013306054286658764,-0.005546246189624071,-0.017487619072198868,0.33984375,0.662109375,0.69677734375
2023-07-29T21:33:58.643939,0.9997401237487793,0.013492289930582047,-0.005843364633619785,-0.01742655225098133,0.33984375,0.662109375,0.69677734375
2023-07-29T21:33:58.650951,0.9997401237487793,0.013492289930582047,-0.005843364633619785,-0.01742655225098133,0.33837890625,0.64501953125,0.70263671875
2023-07-29T21:33:58.651947,0.9997336864471436,0.013986917212605476,-0.006116856820881367,-0.017306145280599594,0.33837890625,0.64501953125,0.70263671875
2023-07-29T21:33:58.658093,0.9997336864471436,0.013986917212605476,-0.006116856820881367,-0.017306145280599594,0.3447265625,0.6669921875,0.69384765625
2023-07-29T21:33:58.659090,0.9997265338897705,0.01448148675262928,-0.006400576792657375,-0.017206929624080658,0.3447265625,0.6669921875,0.69384765625
2023-07-29T21:33:58.673815,0.9997265338897705,0.01448148675262928,-0.006400576792657375,-0.017206929624080658,0.34423828125,0.67578125,0.68896484375
2023-07-29T21:33:58.674814,0.9997211694717407,0.014843727461993694,-0.006674573756754398,-0.01711258478462696,0.34423828125,0.67578125,0.68896484375
2023-07-29T21:33:58.682855,0.9997211694717407,0.014843727461993694,-0.006674573756754398,-0.01711258478462696,0.33642578125,0.6708984375,0.67626953125
2023-07-29T21:33:58.683851,0.9997172355651855,0.015066679567098618,-0.006906662601977587,-0.017052462324500084,0.33642578125,0.6708984375,0.67626953125
2023-07-29T21:33:58.688286,0.9997172355651855,0.015066679567098618,-0.006906662601977587,-0.017052462324500084,0.34033203125,0.65380859375,0.70166015625
2023-07-29T21:33:58.689283,0.9997133612632751,0.01547181699424982,-0.007133011240512133,-0.01681607961654663,0.34033203125,0.65380859375,0.70166015625
2023-07-29T21:33:58.702788,0.9997133612632751,0.01547181699424982,-0.007133011240512133,-0.01681607961654663,0.35693359375,0.6767578125,0.71728515625
2023-07-29T21:33:58.706788,0.9997158050537109,0.015267646871507168,-0.007356847636401653,-0.016763124614953995,0.35693359375,0.6767578125,0.71728515625
2023-07-29T21:33:58.710795,0.9997158050537109,0.015267646871507168,-0.007356847636401653,-0.016763124614953995,0.33544921875,0.6640625,0.6943359375
2023-07-29T21:33:58.711793,0.9997240304946899,0.014693671837449074,-0.007566788233816624,-0.016696099191904068,0.33544921875,0.6640625,0.6943359375
2023-07-29T21:33:58.718864,0.9997240304946899,0.014693671837449074,-0.007566788233816624,-0.016696099191904068,0.33349609375,0.64892578125,0.703125
2023-07-29T21:33:58.719862,0.999726414680481,0.01450072880834341,-0.007748683914542198,-0.016642358154058456,0.33349609375,0.64892578125,0.703125
2023-07-29T21:33:58.735847,0.999726414680481,0.01450072880834341,-0.007748683914542198,-0.016642358154058456,0.3359375,0.64892578125,0.697265625
2023-07-29T21:33:58.737116,0.9997284412384033,0.014228684827685356,-0.007965260185301304,-0.016647642478346825,0.3359375,0.64892578125,0.697265625
2023-07-29T21:33:58.741115,0.9997284412384033,0.014228684827685356,-0.007965260185301304,-0.016647642478346825,0.3291015625,0.6484375,0.685546875
2023-07-29T21:33:58.742113,0.9997260570526123,0.014056569896638393,-0.008255074732005596,-0.016800520941615105,0.3291015625,0.6484375,0.685546875
2023-07-29T21:33:58.749655,0.9997260570526123,0.014056569896638393,-0.008255074732005596,-0.016800520941615105,0.337890625,0.65380859375,0.7109375
2023-07-29T21:33:58.750651,0.9997113347053528,0.014942433685064316,-0.008475272916257381,-0.01679605431854725,0.337890625,0.65380859375,0.7109375
2023-07-29T21:33:58.756148,0.9997113347053528,0.014942433685064316,-0.008475272916257381,-0.01679605431854725,0.34228515625,0.6630859375,0.69140625
2023-07-29T21:33:58.763651,0.9996950030326843,0.01570027880370617,-0.00883934460580349,-0.016884302720427513,0.34228515625,0.6630859375,0.69140625
2023-07-29T21:33:58.771660,0.9996950030326843,0.01570027880370617,-0.00883934460580349,-0.016884302720427513,0.345703125,0.67626953125,0.69873046875
2023-07-29T21:33:58.772657,0.9996723532676697,0.016613731160759926,-0.009139372035861015,-0.01719120517373085,0.345703125,0.67626953125,0.69873046875
2023-07-29T21:33:58.778716,0.9996723532676697,0.016613731160759926,-0.009139372035861015,-0.01719120517373085,0.3486328125,0.66015625,0.71337890625
2023-07-29T21:33:58.779714,0.9996656775474548,0.016682032495737076,-0.009312505833804607,-0.017422456294298172,0.3486328125,0.66015625,0.71337890625
2023-07-29T21:33:58.788092,0.9996656775474548,0.016682032495737076,-0.009312505833804607,-0.017422456294298172,0.33740234375,0.64208984375,0.70458984375
2023-07-29T21:33:58.789096,0.9996551275253296,0.017055798321962357,-0.009410514496266842,-0.017615247517824173,0.33740234375,0.64208984375,0.70458984375
2023-07-29T21:33:58.800885,0.9996551275253296,0.017055798321962357,-0.009410514496266842,-0.017615247517824173,0.34033203125,0.6552734375,0.69189453125
2023-07-29T21:33:58.800885,0.9996417760848999,0.01764676533639431,-0.009417935274541378,-0.017783336341381073,0.34033203125,0.6552734375,0.69189453125
2023-07-29T21:33:58.810100,0.9996417760848999,0.01764676533639431,-0.009417935274541378,-0.017783336341381073,0.345703125,0.67041015625,0.69189453125
2023-07-29T21:33:58.811097,0.999628484249115,0.018174931406974792,-0.009423579089343548,-0.017988845705986023,0.345703125,0.67041015625,0.69189453125
2023-07-29T21:33:58.816085,0.999628484249115,0.018174931406974792,-0.009423579089343548,-0.017988845705986023,0.3466796875,0.68603515625,0.681640625
2023-07-29T21:33:58.816588,0.999623715877533,0.01817612163722515,-0.00947718508541584,-0.01822667382657528,0.3466796875,0.68603515625,0.681640625
2023-07-29T21:33:58.830891,0.999623715877533,0.01817612163722515,-0.00947718508541584,-0.01822667382657528,0.345703125,0.68701171875,0.68017578125
2023-07-29T21:33:58.831888,0.9996242523193359,0.017781756818294525,-0.009601563215255737,-0.018522296100854874,0.345703125,0.68701171875,0.68017578125
2023-07-29T21:33:58.837720,0.9996242523193359,0.017781756818294525,-0.009601563215255737,-0.018522296100854874,0.34033203125,0.66796875,0.68701171875
2023-07-29T21:33:58.839029,0.9996232390403748,0.01740800030529499,-0.009762691333889961,-0.018844671547412872,0.34033203125,0.66796875,0.68701171875
2023-07-29T21:33:58.849116,0.9996232390403748,0.01740800030529499,-0.009762691333889961,-0.018844671547412872,0.33544921875,0.654296875,0.6865234375
2023-07-29T21:33:58.850113,0.999615490436554,0.01733623631298542,-0.010054118931293488,-0.019164683297276497,0.33544921875,0.654296875,0.6865234375
2023-07-29T21:33:58.860978,0.999615490436554,0.01733623631298542,-0.010054118931293488,-0.019164683297276497,0.33984375,0.65234375,0.6943359375
2023-07-29T21:33:58.861976,0.9996010661125183,0.01755416952073574,-0.01039944589138031,-0.019526271149516106,0.33984375,0.65234375,0.6943359375
2023-07-29T21:33:58.870970,0.9996010661125183,0.01755416952073574,-0.01039944589138031,-0.019526271149516106,0.33935546875,0.64794921875,0.69970703125
2023-07-29T21:33:58.871966,0.9995771050453186,0.01825690269470215,-0.010737702250480652,-0.019924629479646683,0.33935546875,0.64794921875,0.69970703125
2023-07-29T21:33:58.882621,0.9995771050453186,0.01825690269470215,-0.010737702250480652,-0.019924629479646683,0.333984375,0.64306640625,0.69677734375
2023-07-29T21:33:58.882621,0.9995349645614624,0.01982908323407173,-0.011050287634134293,-0.020360209047794342,0.333984375,0.64306640625,0.69677734375
2023-07-29T21:33:58.892019,0.9995349645614624,0.01982908323407173,-0.011050287634134293,-0.020360209047794342,0.3388671875,0.6552734375,0.69287109375
2023-07-29T21:33:58.893016,0.9994813799858093,0.0218439232558012,-0.011324797756969929,-0.020774107426404953,0.3388671875,0.6552734375,0.69287109375
2023-07-29T21:33:58.900657,0.9994813799858093,0.0218439232558012,-0.011324797756969929,-0.020774107426404953,0.3388671875,0.65673828125,0.69580078125
2023-07-29T21:33:58.900657,0.9994307160377502,0.023710796609520912,-0.01154681108891964,-0.021041138097643852,0.3388671875,0.65673828125,0.69580078125
2023-07-29T21:33:58.923767,0.9994307160377502,0.023710796609520912,-0.01154681108891964,-0.021041138097643852,0.34619140625,0.6513671875,0.69775390625
2023-07-29T21:33:58.923767,0.999390184879303,0.02530757524073124,-0.011696231551468372,-0.021025381982326508,0.34619140625,0.6513671875,0.69775390625
2023-07-29T21:33:58.925762,0.999390184879303,0.02530757524073124,-0.011696231551468372,-0.021025381982326508,0.34521484375,0.67138671875,0.6875
2023-07-29T21:33:58.926647,0.9993646144866943,0.02634098008275032,-0.011799628846347332,-0.020910032093524933,0.34521484375,0.67138671875,0.6875
2023-07-29T21:33:58.927818,0.9993646144866943,0.02634098008275032,-0.011799628846347332,-0.020910032093524933,0.33984375,0.67724609375,0.67138671875
2023-07-29T21:33:58.928889,0.9993652701377869,0.026402907446026802,-0.012020347639918327,-0.020675286650657654,0.33984375,0.67724609375,0.67138671875
2023-07-29T21:33:58.936386,0.9993652701377869,0.026402907446026802,-0.012020347639918327,-0.020675286650657654,0.353515625,0.6904296875,0.68359375
2023-07-29T21:33:58.936888,0.999356210231781,0.026815244928002357,-0.01210637204349041,-0.020530203357338905,0.353515625,0.6904296875,0.68359375
2023-07-29T21:33:58.950787,0.999356210231781,0.026815244928002357,-0.01210637204349041,-0.020530203357338905,0.345703125,0.67919921875,0.67333984375
2023-07-29T21:33:58.951785,0.9993609189987183,0.026672571897506714,-0.012240066193044186,-0.020407699048519135,0.345703125,0.67919921875,0.67333984375
2023-07-29T21:33:58.958207,0.9993609189987183,0.026672571897506714,-0.012240066193044186,-0.020407699048519135,0.3408203125,0.66796875,0.67626953125
2023-07-29T21:33:58.959204,0.9993586540222168,0.026808835566043854,-0.012328719720244408,-0.020289450883865356,0.3408203125,0.66796875,0.67626953125
2023-07-29T21:33:58.965697,0.9993586540222168,0.026808835566043854,-0.012328719720244408,-0.020289450883865356,0.341796875,0.6796875,0.68017578125
2023-07-29T21:33:58.967709,0.9993591904640198,0.026806775480508804,-0.012393567711114883,-0.02022802270948887,0.341796875,0.6796875,0.68017578125
2023-07-29T21:33:58.980108,0.9993591904640198,0.026806775480508804,-0.012393567711114883,-0.02022802270948887,0.34033203125,0.67626953125,0.67724609375
2023-07-29T21:33:58.981106,0.9993568658828735,0.02689882181584835,-0.012525862082839012,-0.020134443417191505,0.34033203125,0.67626953125,0.67724609375
2023-07-29T21:33:58.987598,0.9993568658828735,0.02689882181584835,-0.012525862082839012,-0.020134443417191505,0.34033203125,0.66796875,0.6767578125
2023-07-29T21:33:58.988597,0.9993504285812378,0.027156956493854523,-0.012705324217677116,-0.01999633200466633,0.34033203125,0.66796875,0.6767578125
2023-07-29T21:33:58.996089,0.9993504285812378,0.027156956493854523,-0.012705324217677116,-0.01999633200466633,0.33984375,0.673828125,0.6767578125
2023-07-29T21:33:58.996598,0.999343991279602,0.02738967351615429,-0.012954024598002434,-0.019840102642774582,0.33984375,0.673828125,0.6767578125
2023-07-29T21:33:59.010782,0.999343991279602,0.02738967351615429,-0.012954024598002434,-0.019840102642774582,0.33642578125,0.6650390625,0.6708984375
2023-07-29T21:33:59.010782,0.9993321895599365,0.027868719771504402,-0.013287595473229885,-0.019542576745152473,0.33642578125,0.6650390625,0.6708984375
2023-07-29T21:33:59.018130,0.9993321895599365,0.027868719771504402,-0.013287595473229885,-0.019542576745152473,0.337890625,0.66650390625,0.67431640625
2023-07-29T21:33:59.018130,0.9993087649345398,0.0287344790995121,-0.013719803653657436,-0.019184492528438568,0.337890625,0.66650390625,0.67431640625
2023-07-29T21:33:59.026108,0.9993087649345398,0.0287344790995121,-0.013719803653657436,-0.019184492528438568,0.34326171875,0.68408203125,0.67822265625
2023-07-29T21:33:59.026611,0.9992929697036743,0.02926856093108654,-0.014181552454829216,-0.018863562494516373,0.34326171875,0.68408203125,0.67822265625
2023-07-29T21:33:59.033056,0.9992929697036743,0.02926856093108654,-0.014181552454829216,-0.018863562494516373,0.34326171875,0.67724609375,0.6748046875
2023-07-29T21:33:59.042930,0.999273419380188,0.02989620342850685,-0.014687771908938885,-0.018521467223763466,0.34326171875,0.67724609375,0.6748046875
2023-07-29T21:33:59.048333,0.999273419380188,0.02989620342850685,-0.014687771908938885,-0.018521467223763466,0.34375,0.67626953125,0.671875
2023-07-29T21:33:59.048333,0.999242901802063,0.030840670689940453,-0.015171954408288002,-0.01822652854025364,0.34375,0.67626953125,0.671875
2023-07-29T21:33:59.055826,0.999242901802063,0.030840670689940453,-0.015171954408288002,-0.01822652854025364,0.35107421875,0.68994140625,0.6689453125
2023-07-29T21:33:59.056828,0.9992140531539917,0.031634874641895294,-0.015628403052687645,-0.018059466034173965,0.35107421875,0.68994140625,0.6689453125
2023-07-29T21:33:59.063319,0.9992140531539917,0.031634874641895294,-0.015628403052687645,-0.018059466034173965,0.34521484375,0.671875,0.6640625
2023-07-29T21:33:59.063319,0.9991554617881775,0.03303040191531181,-0.015969283878803253,-0.01850047893822193,0.34521484375,0.671875,0.6640625
2023-07-29T21:33:59.078332,0.9991554617881775,0.03303040191531181,-0.015969283878803253,-0.01850047893822193,0.36474609375,0.68505859375,0.68896484375
2023-07-29T21:33:59.079328,0.9991320967674255,0.0335715152323246,-0.016294991597533226,-0.018502166494727135,0.36474609375,0.68505859375,0.68896484375
2023-07-29T21:33:59.087327,0.9991320967674255,0.0335715152323246,-0.016294991597533226,-0.018502166494727135,0.3525390625,0.65673828125,0.67431640625
2023-07-29T21:33:59.087327,0.9991093277931213,0.03421171009540558,-0.016538264229893684,-0.018346700817346573,0.3525390625,0.65673828125,0.67431640625
2023-07-29T21:33:59.093314,0.9991093277931213,0.03421171009540558,-0.016538264229893684,-0.018346700817346573,0.35498046875,0.68017578125,0.67041015625
2023-07-29T21:33:59.094317,0.9990940093994141,0.03465737774968147,-0.01674240455031395,-0.018156373873353004,0.35498046875,0.68017578125,0.67041015625
2023-07-29T21:33:59.112332,0.9990940093994141,0.03465737774968147,-0.01674240455031395,-0.018156373873353004,0.3603515625,0.689453125,0.67138671875
2023-07-29T21:33:59.113330,0.999086320400238,0.0349058099091053,-0.016841350123286247,-0.018013257533311844,0.3603515625,0.689453125,0.67138671875
2023-07-29T21:33:59.115834,0.999086320400238,0.0349058099091053,-0.016841350123286247,-0.018013257533311844,0.3583984375,0.69482421875,0.662109375
2023-07-29T21:33:59.115834,0.9990923404693604,0.03477809950709343,-0.016842197626829147,-0.017925985157489777,0.3583984375,0.69482421875,0.662109375
2023-07-29T21:33:59.124324,0.9990923404693604,0.03477809950709343,-0.016842197626829147,-0.017925985157489777,0.3544921875,0.68896484375,0.66357421875
2023-07-29T21:33:59.129336,0.9991044402122498,0.03443102538585663,-0.016835970804095268,-0.01793183572590351,0.3544921875,0.68896484375,0.66357421875
2023-07-29T21:33:59.141332,0.9991044402122498,0.03443102538585663,-0.016835970804095268,-0.01793183572590351,0.3564453125,0.6884765625,0.669921875
2023-07-29T21:33:59.143326,0.9991089105606079,0.03424133360385895,-0.01682867854833603,-0.018046818673610687,0.3564453125,0.6884765625,0.669921875
2023-07-29T21:33:59.145830,0.9991089105606079,0.03424133360385895,-0.01682867854833603,-0.018046818673610687,0.36083984375,0.6943359375,0.6689453125
2023-07-29T21:33:59.145830,0.9991090297698975,0.0340854749083519,-0.016750400885939598,-0.0184050090610981,0.36083984375,0.6943359375,0.6689453125
2023-07-29T21:33:59.153322,0.9991090297698975,0.0340854749083519,-0.016750400885939598,-0.0184050090610981,0.36376953125,0.69873046875,0.66650390625
2023-07-29T21:33:59.154318,0.9991128444671631,0.03372844681143761,-0.01662488840520382,-0.018959958106279373,0.36376953125,0.69873046875,0.66650390625
2023-07-29T21:33:59.168327,0.9991128444671631,0.03372844681143761,-0.01662488840520382,-0.018959958106279373,0.361328125,0.7001953125,0.66748046875
2023-07-29T21:33:59.172317,0.9990966320037842,0.03380005061626434,-0.01639517955482006,-0.019867390394210815,0.361328125,0.7001953125,0.66748046875
2023-07-29T21:33:59.175818,0.9990966320037842,0.03380005061626434,-0.01639517955482006,-0.019867390394210815,0.35595703125,0.70654296875,0.66552734375
2023-07-29T21:33:59.175818,0.9990972280502319,0.03325090929865837,-0.01606682501733303,-0.02099801041185856,0.35595703125,0.70654296875,0.66552734375
2023-07-29T21:33:59.183310,0.9990972280502319,0.03325090929865837,-0.01606682501733303,-0.02099801041185856,0.3466796875,0.685546875,0.66845703125
2023-07-29T21:33:59.184307,0.9990847706794739,0.03296509385108948,-0.015626419335603714,-0.022331127896904945,0.3466796875,0.685546875,0.66845703125
2023-07-29T21:33:59.200336,0.9990847706794739,0.03296509385108948,-0.015626419335603714,-0.022331127896904945,0.34765625,0.69384765625,0.68603515625
2023-07-29T21:33:59.201336,0.9990236759185791,0.03391844034194946,-0.014883248135447502,-0.02407633699476719,0.34765625,0.69384765625,0.68603515625
2023-07-29T21:33:59.207346,0.9990236759185791,0.03391844034194946,-0.014883248135447502,-0.02407633699476719,0.3212890625,0.6328125,0.63623046875
2023-07-29T21:33:59.208347,0.9990347027778625,0.03307393193244934,-0.014631378464400768,-0.0249337051063776,0.3212890625,0.6328125,0.63623046875
2023-07-29T21:33:59.213334,0.9990347027778625,0.03307393193244934,-0.014631378464400768,-0.0249337051063776,0.3271484375,0.65185546875,0.6796875
2023-07-29T21:33:59.214331,0.9990174174308777,0.03328681364655495,-0.0144133809953928,-0.025465618818998337,0.3271484375,0.65185546875,0.6796875
2023-07-29T21:33:59.228347,0.9990174174308777,0.03328681364655495,-0.0144133809953928,-0.025465618818998337,0.33154296875,0.6572265625,0.67333984375
2023-07-29T21:33:59.232343,0.9990270733833313,0.03293703496456146,-0.014233513735234737,-0.025640863925218582,0.33154296875,0.6572265625,0.67333984375
2023-07-29T21:33:59.235838,0.9990270733833313,0.03293703496456146,-0.014233513735234737,-0.025640863925218582,0.33740234375,0.68359375,0.6650390625
2023-07-29T21:33:59.237345,0.9990288615226746,0.03294021263718605,-0.014109677635133266,-0.025636781007051468,0.33740234375,0.68359375,0.6650390625
2023-07-29T21:33:59.243333,0.9990288615226746,0.03294021263718605,-0.014109677635133266,-0.025636781007051468,0.3359375,0.685546875,0.66015625
2023-07-29T21:33:59.244330,0.9990447163581848,0.03262946382164955,-0.014028764329850674,-0.025459768250584602,0.3359375,0.685546875,0.66015625
2023-07-29T21:33:59.258344,0.9990447163581848,0.03262946382164955,-0.014028764329850674,-0.025459768250584602,0.337890625,0.6875,0.66796875
2023-07-29T21:33:59.259342,0.9990642666816711,0.032205790281295776,-0.01402569655328989,-0.02523152530193329,0.337890625,0.6875,0.66796875
2023-07-29T21:33:59.265837,0.9990642666816711,0.032205790281295776,-0.01402569655328989,-0.02523152530193329,0.34326171875,0.69970703125,0.673828125
2023-07-29T21:33:59.266838,0.9990814924240112,0.031783074140548706,-0.013940944336354733,-0.025131743401288986,0.34326171875,0.69970703125,0.673828125
2023-07-29T21:33:59.274328,0.9990814924240112,0.031783074140548706,-0.013940944336354733,-0.025131743401288986,0.34326171875,0.70263671875,0.66748046875
2023-07-29T21:33:59.274328,0.9991089105606079,0.03093840926885605,-0.013861149549484253,-0.025141680613160133,0.34326171875,0.70263671875,0.66748046875
2023-07-29T21:33:59.289336,0.9991089105606079,0.03093840926885605,-0.013861149549484253,-0.025141680613160133,0.3349609375,0.67626953125,0.6689453125
2023-07-29T21:33:59.290333,0.9991317391395569,0.030191637575626373,-0.013842354528605938,-0.02515203319489956,0.3349609375,0.67626953125,0.6689453125
2023-07-29T21:33:59.307336,0.9991317391395569,0.030191637575626373,-0.013842354528605938,-0.02515203319489956,0.333984375,0.65625,0.681640625
2023-07-29T21:33:59.308353,0.9991461038589478,0.02980101853609085,-0.01383573655039072,-0.02505224384367466,0.333984375,0.65625,0.681640625
2023-07-29T21:33:59.311329,0.9991461038589478,0.02980101853609085,-0.01383573655039072,-0.02505224384367466,0.3369140625,0.66845703125,0.68359375
2023-07-29T21:33:59.311329,0.9991571307182312,0.029427625238895416,-0.013826372101902962,-0.025057410821318626,0.3369140625,0.66845703125,0.68359375
2023-07-29T21:33:59.312327,0.9991571307182312,0.029427625238895416,-0.013826372101902962,-0.025057410821318626,0.33984375,0.6923828125,0.6728515625
2023-07-29T21:33:59.318337,0.9991722106933594,0.02884495072066784,-0.013809407129883766,-0.02514437399804592,0.33984375,0.6923828125,0.6728515625
2023-07-29T21:33:59.326842,0.9991722106933594,0.02884495072066784,-0.013809407129883766,-0.02514437399804592,0.33544921875,0.6708984375,0.67529296875
2023-07-29T21:33:59.327358,0.9991814494132996,0.028524143621325493,-0.013801333494484425,-0.02514880709350109,0.33544921875,0.6708984375,0.67529296875
2023-07-29T21:33:59.335851,0.9991814494132996,0.028524143621325493,-0.013801333494484425,-0.02514880709350109,0.33544921875,0.66357421875,0.67724609375
2023-07-29T21:33:59.341862,0.9991851449012756,0.028465135022997856,-0.013802277855575085,-0.025065453723073006,0.33544921875,0.66357421875,0.67724609375
2023-07-29T21:33:59.344871,0.9991851449012756,0.028465135022997856,-0.013802277855575085,-0.025065453723073006,0.3447265625,0.66796875,0.68017578125
2023-07-29T21:33:59.345872,0.9991874098777771,0.02853723056614399,-0.013809150084853172,-0.024888793006539345,0.3447265625,0.66796875,0.68017578125
2023-07-29T21:33:59.373636,0.9991874098777771,0.02853723056614399,-0.013809150084853172,-0.024888793006539345,0.34765625,0.6953125,0.67333984375
2023-07-29T21:33:59.374632,0.9991913437843323,0.02845221944153309,-0.013808856718242168,-0.024826843291521072,0.34765625,0.6953125,0.67333984375
2023-07-29T21:33:59.384648,0.9991913437843323,0.02845221944153309,-0.013808856718242168,-0.024826843291521072,0.3427734375,0.7080078125,0.662109375
2023-07-29T21:33:59.386150,0.9992107152938843,0.02776324190199375,-0.013791734352707863,-0.024836359545588493,0.3427734375,0.7080078125,0.662109375
2023-07-29T21:33:59.388663,0.9992107152938843,0.02776324190199375,-0.013791734352707863,-0.024836359545588493,0.34375,0.6826171875,0.66650390625
2023-07-29T21:33:59.389660,0.9992270469665527,0.027229350060224533,-0.013833930715918541,-0.024745216593146324,0.34375,0.6826171875,0.66650390625
2023-07-29T21:33:59.389660,0.9992270469665527,0.027229350060224533,-0.013833930715918541,-0.024745216593146324,0.34228515625,0.66748046875,0.6728515625
2023-07-29T21:33:59.390658,0.9992440342903137,0.02675113081932068,-0.013906867243349552,-0.024543536826968193,0.34228515625,0.66748046875,0.6728515625
2023-07-29T21:33:59.395646,0.9992440342903137,0.02675113081932068,-0.013906867243349552,-0.024543536826968193,0.3505859375,0.66943359375,0.6787109375
2023-07-29T21:33:59.396659,0.9992538094520569,0.02657710388302803,-0.013993960805237293,-0.024285150691866875,0.3505859375,0.66943359375,0.6787109375
2023-07-29T21:33:59.400670,0.9992538094520569,0.02657710388302803,-0.013993960805237293,-0.024285150691866875,0.35009765625,0.69384765625,0.6689453125
2023-07-29T21:33:59.401667,0.9992580413818359,0.026463013142347336,-0.01408352144062519,-0.024183880537748337,0.35009765625,0.69384765625,0.6689453125
2023-07-29T21:33:59.419678,0.9992580413818359,0.026463013142347336,-0.01408352144062519,-0.024183880537748337,0.345703125,0.69921875,0.65771484375
2023-07-29T21:33:59.420676,0.9992768168449402,0.025666987523436546,-0.014186772517859936,-0.024198289960622787,0.345703125,0.69921875,0.65771484375
2023-07-29T21:33:59.445679,0.9992768168449402,0.025666987523436546,-0.014186772517859936,-0.024198289960622787,0.35009765625,0.6826171875,0.6611328125
2023-07-29T21:33:59.446690,0.9992988109588623,0.024689458310604095,-0.01434732973575592,-0.024216825142502785,0.35009765625,0.6826171875,0.6611328125
2023-07-29T21:33:59.446690,0.9992988109588623,0.024689458310604095,-0.01434732973575592,-0.024216825142502785,0.3505859375,0.68408203125,0.66015625
2023-07-29T21:33:59.447700,0.9993129372596741,0.02392476052045822,-0.014628819189965725,-0.02423509955406189,0.3505859375,0.68408203125,0.66015625
2023-07-29T21:33:59.447700,0.9993129372596741,0.02392476052045822,-0.014628819189965725,-0.02423509955406189,0.3466796875,0.68505859375,0.67236328125
2023-07-29T21:33:59.447700,0.9993267059326172,0.023022828623652458,-0.014968335628509521,-0.02433050610125065,0.3466796875,0.68505859375,0.67236328125
2023-07-29T21:33:59.453688,0.9993267059326172,0.023022828623652458,-0.014968335628509521,-0.02433050610125065,0.33154296875,0.6796875,0.67529296875
2023-07-29T21:33:59.454686,0.9993342757225037,0.022191623225808144,-0.015305871143937111,-0.024582674726843834,0.33154296875,0.6796875,0.67529296875
2023-07-29T21:33:59.463691,0.9993342757225037,0.022191623225808144,-0.015305871143937111,-0.024582674726843834,0.3310546875,0.6865234375,0.65380859375
2023-07-29T21:33:59.479744,0.9993332624435425,0.021474948152899742,-0.015769679099321365,-0.02496209368109703,0.3310546875,0.6865234375,0.65380859375
2023-07-29T21:33:59.479744,0.9993332624435425,0.021474948152899742,-0.015769679099321365,-0.02496209368109703,0.33837890625,0.6904296875,0.6474609375
2023-07-29T21:33:59.480739,0.9993223547935486,0.020932098850607872,-0.016473401337862015,-0.025401614606380463,0.33837890625,0.6904296875,0.6474609375
2023-07-29T21:33:59.483731,0.9993223547935486,0.020932098850607872,-0.016473401337862015,-0.025401614606380463,0.341796875,0.7109375,0.6220703125
2023-07-29T21:33:59.484729,0.9992867708206177,0.020988380536437035,-0.0175408273935318,-0.02603313699364662,0.341796875,0.7109375,0.6220703125
2023-07-29T21:33:59.491734,0.9992867708206177,0.020988380536437035,-0.0175408273935318,-0.02603313699364662,0.341796875,0.7373046875,0.611328125
2023-07-29T21:33:59.492731,0.9992414116859436,0.0208913441747427,-0.018927205353975296,-0.02686765044927597,0.341796875,0.7373046875,0.611328125
2023-07-29T21:33:59.508089,0.9992414116859436,0.0208913441747427,-0.018927205353975296,-0.02686765044927597,0.34375,0.7490234375,0.5888671875
2023-07-29T21:33:59.509744,0.9991796612739563,0.02070803940296173,-0.02076367288827896,-0.027929777279496193,0.34375,0.7490234375,0.5888671875
2023-07-29T21:33:59.514730,0.9991796612739563,0.02070803940296173,-0.02076367288827896,-0.027929777279496193,0.3466796875,0.75439453125,0.58935546875
2023-07-29T21:33:59.518758,0.9991008043289185,0.02043459378182888,-0.02295631170272827,-0.029206132516264915,0.3466796875,0.75439453125,0.58935546875
2023-07-29T21:33:59.528054,0.9991008043289185,0.02043459378182888,-0.02295631170272827,-0.029206132516264915,0.34375,0.72412109375,0.6279296875
2023-07-29T21:33:59.530747,0.9990289211273193,0.019455695524811745,-0.025149226188659668,-0.03049890324473381,0.34375,0.72412109375,0.6279296875
2023-07-29T21:33:59.539792,0.9990289211273193,0.019455695524811745,-0.025149226188659668,-0.03049890324473381,0.34716796875,0.705078125,0.654296875
2023-07-29T21:33:59.539792,0.998950719833374,0.018551932647824287,-0.027281006798148155,-0.031765736639499664,0.34716796875,0.705078125,0.654296875
2023-07-29T21:33:59.543780,0.998950719833374,0.018551932647824287,-0.027281006798148155,-0.031765736639499664,0.35107421875,0.6787109375,0.68505859375
2023-07-29T21:33:59.544777,0.9988821148872375,0.017456552013754845,-0.029043762013316154,-0.03295770660042763,0.35107421875,0.6787109375,0.68505859375
2023-07-29T21:33:59.554775,0.9988821148872375,0.017456552013754845,-0.029043762013316154,-0.03295770660042763,0.34814453125,0.6669921875,0.669921875
2023-07-29T21:33:59.554775,0.9988099336624146,0.01647217571735382,-0.03083590418100357,-0.03400709852576256,0.34814453125,0.6669921875,0.669921875
2023-07-29T21:33:59.569807,0.9988099336624146,0.01647217571735382,-0.03083590418100357,-0.03400709852576256,0.35546875,0.66943359375,0.69091796875
2023-07-29T21:33:59.569807,0.998738169670105,0.015548826195299625,-0.03241322562098503,-0.035065725445747375,0.35546875,0.66943359375,0.69091796875
2023-07-29T21:33:59.573796,0.998738169670105,0.015548826195299625,-0.03241322562098503,-0.035065725445747375,0.35302734375,0.669921875,0.67626953125
2023-07-29T21:33:59.573796,0.9986622929573059,0.014692911878228188,-0.033988043665885925,-0.036090362817049026,0.35302734375,0.669921875,0.67626953125
2023-07-29T21:33:59.582832,0.9986622929573059,0.014692911878228188,-0.033988043665885925,-0.036090362817049026,0.35693359375,0.67138671875,0.6787109375
2023-07-29T21:33:59.584821,0.9985800981521606,0.013913264498114586,-0.035538315773010254,-0.03716451674699783,0.35693359375,0.67138671875,0.6787109375
2023-07-29T21:33:59.587829,0.9985800981521606,0.013913264498114586,-0.035538315773010254,-0.03716451674699783,0.359375,0.677734375,0.67822265625
2023-07-29T21:33:59.598834,0.9984902143478394,0.012932731769979,-0.03717464953660965,-0.03831525892019272,0.359375,0.677734375,0.67822265625
2023-07-29T21:33:59.604820,0.9984902143478394,0.012932731769979,-0.03717464953660965,-0.03831525892019272,0.3515625,0.6513671875,0.681640625
2023-07-29T21:33:59.604820,0.9983946681022644,0.011729753576219082,-0.0388651080429554,-0.03949585184454918,0.3515625,0.6513671875,0.681640625
2023-07-29T21:33:59.610838,0.9983946681022644,0.011729753576219082,-0.0388651080429554,-0.03949585184454918,0.3466796875,0.64892578125,0.66796875
2023-07-29T21:33:59.610838,0.9982737898826599,0.011166300624608994,-0.04075252637267113,-0.04078993573784828,0.3466796875,0.64892578125,0.66796875
2023-07-29T21:33:59.621838,0.9982737898826599,0.011166300624608994,-0.04075252637267113,-0.04078993573784828,0.34619140625,0.662109375,0.666015625
2023-07-29T21:33:59.622835,0.9981410503387451,0.010658323764801025,-0.042800210416316986,-0.042056698352098465,0.34619140625,0.662109375,0.666015625
2023-07-29T21:33:59.639892,0.9981410503387451,0.010658323764801025,-0.042800210416316986,-0.042056698352098465,0.3525390625,0.6494140625,0.70751953125
2023-07-29T21:33:59.640888,0.9980044364929199,0.010340540669858456,-0.044757943600416183,-0.04332352429628372,0.3525390625,0.6494140625,0.70751953125
2023-07-29T21:33:59.641885,0.9980044364929199,0.010340540669858456,-0.044757943600416183,-0.04332352429628372,0.3681640625,0.63818359375,0.728515625
2023-07-29T21:33:59.641885,0.9978864789009094,0.009565982036292553,-0.04645343869924545,-0.0444202646613121,0.3681640625,0.63818359375,0.728515625
2023-07-29T21:33:59.648206,0.9978864789009094,0.009565982036292553,-0.04645343869924545,-0.0444202646613121,0.37841796875,0.63037109375,0.74609375
2023-07-29T21:33:59.648896,0.9977937936782837,0.00838709156960249,-0.04778589680790901,-0.04531720653176308,0.37841796875,0.63037109375,0.74609375
2023-07-29T21:33:59.666890,0.9977937936782837,0.00838709156960249,-0.04778589680790901,-0.04531720653176308,0.3759765625,0.626953125,0.7578125
2023-07-29T21:33:59.668279,0.997735321521759,0.006669015157967806,-0.04870772734284401,-0.04590573534369469,0.3759765625,0.626953125,0.7578125
2023-07-29T21:33:59.670900,0.997735321521759,0.006669015157967806,-0.04870772734284401,-0.04590573534369469,0.35888671875,0.5947265625,0.75341796875
2023-07-29T21:33:59.671903,0.9977024793624878,0.004658990539610386,-0.04934510961174965,-0.04618597775697708,0.35888671875,0.5947265625,0.75341796875
2023-07-29T21:33:59.680911,0.9977024793624878,0.004658990539610386,-0.04934510961174965,-0.04618597775697708,0.36181640625,0.5771484375,0.75390625
2023-07-29T21:33:59.681908,0.9976879358291626,0.003000988159328699,-0.049795396625995636,-0.046153344213962555,0.36181640625,0.5771484375,0.75390625
2023-07-29T21:33:59.692944,0.9976879358291626,0.003000988159328699,-0.049795396625995636,-0.046153344213962555,0.369140625,0.59326171875,0.7392578125
2023-07-29T21:33:59.693941,0.9976816177368164,0.001715774298645556,-0.050242990255355835,-0.0458703376352787,0.369140625,0.59326171875,0.7392578125
2023-07-29T21:33:59.701971,0.9976816177368164,0.001715774298645556,-0.050242990255355835,-0.0458703376352787,0.37841796875,0.61328125,0.7314453125
2023-07-29T21:33:59.702957,0.9976826310157776,0.0005275836447253823,-0.05064300075173378,-0.04543439671397209,0.37841796875,0.61328125,0.7314453125
2023-07-29T21:33:59.708987,0.9976826310157776,0.0005275836447253823,-0.05064300075173378,-0.04543439671397209,0.388671875,0.64013671875,0.70166015625
2023-07-29T21:33:59.710982,0.9976879954338074,-0.00029572000494226813,-0.05110207200050354,-0.04480136185884476,0.388671875,0.64013671875,0.70166015625
2023-07-29T21:33:59.723989,0.9976879954338074,-0.00029572000494226813,-0.05110207200050354,-0.04480136185884476,0.39306640625,0.6748046875,0.66748046875
2023-07-29T21:33:59.725984,0.9976836442947388,-0.0018099287990480661,-0.05174064636230469,-0.04412408918142319,0.39306640625,0.6748046875,0.66748046875
2023-07-29T21:33:59.731003,0.9976836442947388,-0.0018099287990480661,-0.05174064636230469,-0.04412408918142319,0.4130859375,0.6904296875,0.6455078125
2023-07-29T21:33:59.732001,0.9976640939712524,-0.004228717181831598,-0.05259682610630989,-0.04338186979293823,0.4130859375,0.6904296875,0.6455078125
2023-07-29T21:33:59.738741,0.9976640939712524,-0.004228717181831598,-0.05259682610630989,-0.04338186979293823,0.427734375,0.70458984375,0.64306640625
2023-07-29T21:33:59.740737,0.9976291656494141,-0.0065309214405715466,-0.05374575033783913,-0.04248245432972908,0.427734375,0.70458984375,0.64306640625
2023-07-29T21:33:59.754728,0.9976291656494141,-0.0065309214405715466,-0.05374575033783913,-0.04248245432972908,0.41455078125,0.6630859375,0.6552734375
2023-07-29T21:33:59.755725,0.9975734949111938,-0.010721659287810326,-0.05495012179017067,-0.04138265550136566,0.41455078125,0.6630859375,0.6552734375
2023-07-29T21:33:59.761771,0.9975734949111938,-0.010721659287810326,-0.05495012179017067,-0.04138265550136566,0.4052734375,0.650390625,0.693359375
2023-07-29T21:33:59.761771,0.9975080490112305,-0.015520197339355946,-0.05591071769595146,-0.04013544321060181,0.4052734375,0.650390625,0.693359375
2023-07-29T21:33:59.771387,0.9975080490112305,-0.015520197339355946,-0.05591071769595146,-0.04013544321060181,0.39599609375,0.607421875,0.74267578125
2023-07-29T21:33:59.772384,0.9974309802055359,-0.021505117416381836,-0.05639959126710892,-0.03857528045773506,0.39599609375,0.607421875,0.74267578125
2023-07-29T21:33:59.783376,0.9974309802055359,-0.021505117416381836,-0.05639959126710892,-0.03857528045773506,0.3623046875,0.56591796875,0.76806640625
2023-07-29T21:33:59.785889,0.997352123260498,-0.027333449572324753,-0.05638708919286728,-0.036907315254211426,0.3623046875,0.56591796875,0.76806640625
2023-07-29T21:33:59.790396,0.997352123260498,-0.027333449572324753,-0.05638708919286728,-0.036907315254211426,0.341796875,0.564453125,0.751953125
2023-07-29T21:33:59.791393,0.9972837567329407,-0.031809352338314056,-0.05631951242685318,-0.03523337468504906,0.341796875,0.564453125,0.751953125
2023-07-29T21:33:59.799394,0.9972837567329407,-0.031809352338314056,-0.05631951242685318,-0.03523337468504906,0.3359375,0.57958984375,0.73388671875
2023-07-29T21:33:59.800391,0.9972253441810608,-0.035071056336164474,-0.05634276941418648,-0.03372054547071457,0.3359375,0.57958984375,0.73388671875
2023-07-29T21:33:59.813026,0.9972253441810608,-0.035071056336164474,-0.05634276941418648,-0.03372054547071457,0.34521484375,0.5859375,0.732421875
2023-07-29T21:33:59.814022,0.9971736669540405,-0.03747987374663353,-0.056378453969955444,-0.03257707133889198,0.34521484375,0.5859375,0.732421875
2023-07-29T21:33:59.821036,0.9971736669540405,-0.03747987374663353,-0.056378453969955444,-0.03257707133889198,0.36669921875,0.59326171875,0.7236328125
2023-07-29T21:33:59.822033,0.9971314668655396,-0.03912849351763725,-0.056472811847925186,-0.03175871819257736,0.36669921875,0.59326171875,0.7236328125
2023-07-29T21:33:59.828296,0.9971314668655396,-0.03912849351763725,-0.056472811847925186,-0.03175871819257736,0.39306640625,0.5859375,0.75244140625
2023-07-29T21:33:59.828296,0.9970329999923706,-0.04209856316447258,-0.056501008570194244,-0.03099362552165985,0.39306640625,0.5859375,0.75244140625
2023-07-29T21:33:59.843289,0.9970329999923706,-0.04209856316447258,-0.056501008570194244,-0.03099362552165985,0.3955078125,0.57666015625,0.76611328125
2023-07-29T21:33:59.844286,0.9969133138656616,-0.04533270746469498,-0.05656645447015762,-0.0301500353962183,0.3955078125,0.57666015625,0.76611328125
2023-07-29T21:33:59.851349,0.9969133138656616,-0.04533270746469498,-0.05656645447015762,-0.0301500353962183,0.39208984375,0.5673828125,0.75439453125
2023-07-29T21:33:59.851349,0.9968304634094238,-0.04751205071806908,-0.056708429008722305,-0.029250986874103546,0.39208984375,0.5673828125,0.75439453125
2023-07-29T21:33:59.858346,0.9968304634094238,-0.04751205071806908,-0.056708429008722305,-0.029250986874103546,0.3896484375,0.55810546875,0.76611328125
2023-07-29T21:33:59.859345,0.9967578649520874,-0.04940076172351837,-0.056827861815690994,-0.02835261821746826,0.3896484375,0.55810546875,0.76611328125
2023-07-29T21:33:59.865839,0.9967578649520874,-0.04940076172351837,-0.056827861815690994,-0.02835261821746826,0.38671875,0.5537109375,0.75244140625
2023-07-29T21:33:59.873330,0.9966999888420105,-0.05086285248398781,-0.0569155216217041,-0.027616750448942184,0.38671875,0.5537109375,0.75244140625
2023-07-29T21:33:59.881342,0.9966999888420105,-0.05086285248398781,-0.0569155216217041,-0.027616750448942184,0.38818359375,0.55322265625,0.7646484375
2023-07-29T21:33:59.881342,0.996677815914154,-0.0516081377863884,-0.05694962292909622,-0.026954572647809982,0.38818359375,0.55322265625,0.7646484375
2023-07-29T21:33:59.888980,0.996677815914154,-0.0516081377863884,-0.05694962292909622,-0.026954572647809982,0.388671875,0.53955078125,0.76318359375
2023-07-29T21:33:59.888980,0.9966556429862976,-0.05239786580204964,-0.05698637664318085,-0.0261627659201622,0.388671875,0.53955078125,0.76318359375
2023-07-29T21:33:59.895964,0.9966556429862976,-0.05239786580204964,-0.05698637664318085,-0.0261627659201622,0.38330078125,0.52783203125,0.76708984375
2023-07-29T21:33:59.896944,0.9966542720794678,-0.05292800813913345,-0.056925274431705475,-0.025266744196414948,0.38330078125,0.52783203125,0.76708984375
2023-07-29T21:33:59.910946,0.9966542720794678,-0.05292800813913345,-0.056925274431705475,-0.025266744196414948,0.3779296875,0.5556640625,0.7333984375
2023-07-29T21:33:59.911944,0.996713399887085,-0.05216905474662781,-0.05696629360318184,-0.02440502680838108,0.3779296875,0.5556640625,0.7333984375
2023-07-29T21:33:59.918943,0.996713399887085,-0.05216905474662781,-0.05696629360318184,-0.02440502680838108,0.41357421875,0.5712890625,0.751953125
2023-07-29T21:33:59.918943,0.9967007637023926,-0.05281557887792587,-0.05706016719341278,-0.023285500705242157,0.41357421875,0.5712890625,0.751953125
