Timestamp,Unnamed: 0,Frame ID,w,x,y,z,ax,ay,az,x_0,y_0,z_0,x_1,y_1,z_1,x_2,y_2,z_2,x_3,y_3,z_3,x_4,y_4,z_4,x_5,y_5,z_5,x_6,y_6,z_6,x_7,y_7,z_7,x_8,y_8,z_8,x_9,y_9,z_9,x_10,y_10,z_10,x_11,y_11,z_11,x_12,y_12,z_12,x_13,y_13,z_13,x_14,y_14,z_14,x_15,y_15,z_15,x_16,y_16,z_16,x_17,y_17,z_17,x_18,y_18,z_18,x_19,y_19,z_19,x_20,y_20,z_20
2023-08-01 15:51:33.200179,0,18,0.8344860672950745,0.4061409533023834,-0.3257390260696411,0.1804897934198379,-0.076171875,0.697265625,0.517578125,0.6636918187141418,0.9721068739891052,-2.2162463153563294,0.6103009581565857,0.918372631072998,-0.017345642670989037,0.5738013982772827,0.8326711058616638,-0.03182400017976761,0.5604546666145325,0.7646220326423645,-0.04787513613700867,0.5546634793281555,0.7042540907859802,-0.06209324300289154,0.6178439259529114,0.7286959886550903,-0.013757448643445969,0.6088497042655945,0.631357729434967,-0.049729328602552414,0.5915991067886353,0.6179899573326111,-0.07896047085523605,0.5769370198249817,0.6423761248588562,-0.09357859939336777,0.6585819125175476,0.7341263890266418,-0.022796332836151123,0.6633978486061096,0.6354020237922668,-0.05265963077545166,0.6487290859222412,0.63444983959198,-0.0721106231212616,0.6350319981575012,0.6664732694625854,-0.08026546239852905,0.6974660754203796,0.760850191116333,-0.03613229840993881,0.7062332034111023,0.6718191504478455,-0.05925624445080757,0.6901819705963135,0.6752331852912903,-0.06372476369142532,0.6750712990760803,0.7035861015319824,-0.06298406422138214,0.7338758707046509,0.8070423603057861,-0.05167045816779137,0.737515389919281,0.7476558685302734,-0.06772510707378387,0.7236791849136353,0.7384496331214905,-0.06621377915143967,0.7100043892860413,0.7486041188240051,-0.06150815635919571
2023-08-01 15:51:33.256623,1,19,0.8247416019439697,0.4163163900375366,-0.336388498544693,0.1825505346059799,-0.02490234375,0.75341796875,0.59326171875,0.6703800559043884,0.9560530185699463,-3.815741678181439,0.6136966347694397,0.8852840065956116,-0.012232465669512749,0.5801662802696228,0.7925870418548584,-0.020101867616176605,0.5685659646987915,0.7200121283531189,-0.03009415976703167,0.5617042183876038,0.6554850339889526,-0.03853096440434456,0.6268720030784607,0.7007617950439453,0.0074816797859966755,0.6194316744804382,0.622516930103302,-0.015706760808825493,0.6067566871643066,0.5857933759689331,-0.039279721677303314,0.5890003442764282,0.5611712336540222,-0.055275626480579376,0.6620461940765381,0.7039270401000977,-0.001837817719206214,0.6540203094482422,0.6254298686981201,-0.023714199662208557,0.6373246908187866,0.5866225361824036,-0.04452919960021973,0.6151726245880127,0.5605090856552124,-0.057769693434238434,0.6976633667945862,0.7246503233909607,-0.015866344794631004,0.6964815258979797,0.6455636024475098,-0.03546813130378723,0.6854349374771118,0.6052020788192749,-0.04613712430000305,0.6684380769729614,0.5745598077774048,-0.052095700055360794,0.7337253093719482,0.7634333372116089,-0.03199772536754608,0.7371283173561096,0.699587345123291,-0.04878731817007065,0.728585422039032,0.6572006940841675,-0.05502507835626602,0.7145851254463196,0.6205880045890808,-0.057741958647966385
2023-08-01 15:51:33.320161,2,20,0.8141231536865234,0.4264853596687317,-0.3495189249515533,0.1820724159479141,0.03564453125,0.763671875,0.63037109375,0.6749094724655151,0.9263432621955872,5.212170606228028,0.6164931654930115,0.8609527349472046,-0.015853067860007286,0.5841841101646423,0.7638652920722961,-0.0231980849057436,0.5743961334228516,0.6881217956542969,-0.031581442803144455,0.5661574006080627,0.6221358180046082,-0.03855398669838905,0.6343974471092224,0.6685701608657837,0.007005695253610611,0.6257439255714417,0.5952437520027161,-0.011138870380818844,0.6149213910102844,0.5568857192993164,-0.03171372786164284,0.6011770963668823,0.5217740535736084,-0.04751073569059372,0.669446587562561,0.6701682806015015,-0.00021286332048475742,0.6622560024261475,0.5924702882766724,-0.01818624883890152,0.6475012898445129,0.5503231287002563,-0.03801058232784271,0.6277278661727905,0.5146854519844055,-0.05178532749414444,0.7039318680763245,0.6903650164604187,-0.012127645313739777,0.7044627666473389,0.6103224754333496,-0.029946813359856606,0.6951490044593811,0.5669246912002563,-0.041482113301754,0.6784735321998596,0.5298449397087097,-0.048983264714479446,0.7387886047363281,0.7287227511405945,-0.026401834562420845,0.7444380521774292,0.6615497469902039,-0.04285310581326485,0.7369067668914795,0.6180018186569214,-0.04992307350039482,0.7226381897926331,0.5780662298202515,-0.05390843003988266
2023-08-01 15:51:33.387041,3,21,0.8031164407730103,0.4378363490104675,-0.3621136844158172,0.17937932908535,0.04296875,0.7958984375,0.583984375,0.6766018271446228,0.8967229723930359,1.1121315424134082,0.616921067237854,0.8343616127967834,-0.015693120658397675,0.5854969620704651,0.7390239238739014,-0.023148629814386368,0.5769248604774475,0.6618533134460449,-0.03164268657565117,0.5680398344993591,0.5930518507957458,-0.03875923901796341,0.6346384882926941,0.6416650414466858,0.005378311034291983,0.6260929107666016,0.5649998784065247,-0.012834693305194378,0.6157311797142029,0.5244768261909485,-0.03235632926225662,0.6037584543228149,0.4861266613006592,-0.04724687710404396,0.6707561016082764,0.6404818296432495,-0.0025080260820686817,0.6612921953201294,0.5562819838523865,-0.019277991726994514,0.6483206152915955,0.5063812732696533,-0.037869393825531006,0.6322510242462158,0.4605715274810791,-0.05108672380447388,0.7059597969055176,0.6590341925621033,-0.015050103887915611,0.7057409882545471,0.5728622674942017,-0.0329793319106102,0.6978811621665955,0.5231043100357056,-0.04453164339065552,0.6842634677886963,0.47630774974823,-0.05216934531927109,0.7410104870796204,0.6955536603927612,-0.029820844531059265,0.745198130607605,0.6239528656005859,-0.046795912086963654,0.7395029067993164,0.5762279033660889,-0.05362967029213905,0.7284034490585327,0.5298413634300232,-0.05745531991124153
2023-08-01 15:51:33.447292,4,22,0.7973606586456299,0.4454226195812225,-0.3659197986125946,0.1786543875932693,0.04541015625,0.78466796875,0.49462890625,0.6879221796989441,0.8409680128097534,3.843129547931312,0.6222769021987915,0.7722780108451843,-0.014221272431313992,0.5896703004837036,0.6742450594902039,-0.017465032637119293,0.5802730321884155,0.5902152061462402,-0.02199483849108219,0.5672962665557861,0.5220723748207092,-0.025646915659308434,0.6399966478347778,0.5779043436050415,0.014771617949008942,0.6324909329414368,0.4927690029144287,0.0030675914604216814,0.6267542243003845,0.43845197558403015,-0.012956926599144936,0.6223888397216797,0.38582178950309753,-0.02607477270066738,0.6789047718048096,0.5679004192352295,0.007183002773672342,0.6737144589424133,0.47197601199150085,-0.002631142269819975,0.6678372025489807,0.4050682783126831,-0.019772009924054146,0.6603994965553284,0.3442181944847107,-0.032853201031684875,0.7145053148269653,0.5790210366249084,-0.004984105005860329,0.7154906392097473,0.48415040969848633,-0.0179331935942173,0.7122344970703125,0.417294442653656,-0.03174896165728569,0.7049169540405273,0.35702162981033325,-0.04178287833929062,0.7489985823631287,0.6093480587005615,-0.01922035403549671,0.752940833568573,0.5306692719459534,-0.032030705362558365,0.75096595287323,0.47457748651504517,-0.037912506610155106,0.7458343505859375,0.42147043347358704,-0.0416155681014061
2023-08-01 15:51:33.509378,5,23,0.7925971746444702,0.4506429731845855,-0.3708577752113342,0.1765648871660232,0.064453125,0.79931640625,0.54296875,0.6892772316932678,0.823733925819397,3.090912343850505,0.6245135068893433,0.7632346153259277,-0.01872812584042549,0.5924131870269775,0.6606000661849976,-0.02258412353694439,0.5843020677566528,0.5749204754829407,-0.027066783979535103,0.5675775408744812,0.5082589983940125,-0.030480658635497093,0.6399503350257874,0.5597143769264221,0.009857338853180408,0.6367360353469849,0.47143474221229553,-0.004420206416398287,0.6334506273269653,0.41793325543403625,-0.02138824388384819,0.6315218806266785,0.366593599319458,-0.03516477718949318,0.6780024170875549,0.5492570996284485,0.003649800783023238,0.6751784086227417,0.44510626792907715,-0.008476467803120613,0.6700384616851807,0.3750306963920593,-0.025823112577199936,0.6639209985733032,0.3110892176628113,-0.039273981004953384,0.7126048803329468,0.5618512630462646,-0.007905568927526474,0.7152288556098938,0.45899686217308044,-0.02305188775062561,0.7119743227958679,0.39304912090301514,-0.03690005838871002,0.7058209180831909,0.331125944852829,-0.047069843858480453,0.746781587600708,0.5919010639190674,-0.02224118448793888,0.7520180344581604,0.5096216201782227,-0.03749207407236099,0.7503988146781921,0.45309242606163025,-0.045223526656627655,0.7460681796073914,0.3977232277393341,-0.0507270023226738
2023-08-01 15:51:33.577073,6,24,0.7896477580070496,0.4534329771995544,-0.3742261826992035,0.1755272001028061,0.0859375,0.83447265625,0.54833984375,0.6913933157920837,0.8149561882019043,2.6831554578166106,0.6271065473556519,0.7564150094985962,-0.019124820828437805,0.5938175320625305,0.6505002975463867,-0.0223813708871603,0.5874108076095581,0.5631567239761353,-0.025934860110282898,0.5731109380722046,0.49633097648620605,-0.028696512803435326,0.6419522762298584,0.5481210947036743,0.008062263019382954,0.6379091143608093,0.45788276195526123,-0.006322717294096947,0.6353574991226196,0.40236854553222656,-0.023451106622815132,0.634823739528656,0.3488085865974426,-0.03781187906861305,0.6809215545654297,0.537510335445404,0.0018362693954259157,0.6781336665153503,0.4314027428627014,-0.010314425453543663,0.6745133399963379,0.3608814775943756,-0.02846618741750717,0.6699366569519043,0.2948886752128601,-0.0432758592069149,0.7157342433929443,0.5501964688301086,-0.009655662812292576,0.7191872596740723,0.4471084475517273,-0.025056298822164536,0.7178238034248352,0.38056278228759766,-0.04080676659941673,0.7126951217651367,0.3185584247112274,-0.05308236554265022,0.750154972076416,0.5803735852241516,-0.023917287588119507,0.755752444267273,0.499677449464798,-0.039935968816280365,0.7551062703132629,0.44385313987731934,-0.049675632268190384,0.7511246204376221,0.3890838027000427,-0.05735418573021889
2023-08-01 15:51:33.643120,7,25,0.7879840731620789,0.4546037316322326,-0.3764191269874573,0.1752856820821762,0.08544921875,0.83984375,0.51806640625,0.6924856901168823,0.8080384135246277,2.5032267103597405,0.6277979612350464,0.7475321888923645,-0.018001582473516464,0.5939281582832336,0.6430413126945496,-0.020675750449299812,0.5871794819831848,0.5569725036621094,-0.023989662528038025,0.573903501033783,0.48962217569351196,-0.02665325067937374,0.643683910369873,0.5394803285598755,0.010328027419745922,0.6396867632865906,0.4489990472793579,-0.0032549756579101086,0.6371581554412842,0.39354777336120605,-0.020296316593885422,0.6368632316589355,0.3389620780944824,-0.03502785786986351,0.682453989982605,0.5282154679298401,0.0033604654017835855,0.6813284754753113,0.4218367338180542,-0.008076428435742855,0.6791155338287354,0.35244840383529663,-0.02673407457768917,0.676001250743866,0.28546565771102905,-0.04228847846388817,0.7168004512786865,0.5404253602027893,-0.008820747956633568,0.7208321690559387,0.43776121735572815,-0.023736361414194107,0.7205262184143066,0.37003272771835327,-0.04036245867609978,0.7164238095283508,0.30569177865982056,-0.053719982504844666,0.7511227130889893,0.5709359645843506,-0.023700464516878128,0.7568797469139099,0.4915858805179596,-0.039392296224832535,0.7563430666923523,0.4359390139579773,-0.04960780590772629,0.7522585391998291,0.38034334778785706,-0.05805867537856102
2023-08-01 15:51:33.707370,8,26,0.787141740322113,0.4552075564861297,-0.3769565522670746,0.1763456463813781,0.0673828125,0.82470703125,0.5048828125,0.6909649968147278,0.7935854196548462,3.283200271653186,0.6246776580810547,0.7324761152267456,-0.01853216253221035,0.589873731136322,0.6296803951263428,-0.021557321771979332,0.5795474052429199,0.5434487462043762,-0.02536247856914997,0.5595877170562744,0.47936904430389404,-0.028364360332489014,0.638028085231781,0.519715428352356,0.012474684044718742,0.6364476084709167,0.4268021285533905,-0.0007320403237827122,0.6338415145874023,0.36891621351242065,-0.017933441326022148,0.6318705677986145,0.313968688249588,-0.03262767940759659,0.6779323220252991,0.5078719854354858,0.005948562175035477,0.6793280243873596,0.40014833211898804,-0.004933251533657312,0.6768695712089539,0.3294820189476013,-0.022521676495671272,0.672160804271698,0.26393231749534607,-0.036857329308986664,0.7130295634269714,0.5203747153282166,-0.006123610306531191,0.7182170152664185,0.41537296772003174,-0.02027168869972229,0.7174704074859619,0.34862300753593445,-0.03485864773392677,0.7133173942565918,0.28673887252807617,-0.04640154540538788,0.7476790547370911,0.5511822700500488,-0.02111746370792389,0.7544053792953491,0.4699060022830963,-0.036210037767887115,0.7541154026985168,0.41419363021850586,-0.04498286917805672,0.7509466409683228,0.3594282269477844,-0.05188348889350891
2023-08-01 15:51:33.772374,9,27,0.7863914370536804,0.4541779160499573,-0.3801832199096679,0.1754187494516372,0.08056640625,0.82666015625,0.57080078125,0.6888775825500488,0.7909507751464844,2.6090435767400777,0.6218959093093872,0.732487678527832,-0.017526647076010704,0.5856721997261047,0.6256722807884216,-0.019299570471048355,0.5745704174041748,0.5360590815544128,-0.022083764895796776,0.551101565361023,0.4773178696632385,-0.024670099839568138,0.637543797492981,0.5152269601821899,0.012132666073739529,0.6353605389595032,0.4215623736381531,-0.001551806810311973,0.6348904371261597,0.3631620705127716,-0.019230319187045097,0.6359535455703735,0.30696195363998413,-0.034524962306022644,0.6773722171783447,0.503572404384613,0.004942778497934341,0.6776856780052185,0.3960683047771454,-0.006356540601700544,0.676870584487915,0.3271123766899109,-0.02458885684609413,0.6743186712265015,0.26236432790756226,-0.03981102630496025,0.7123923301696777,0.515475869178772,-0.007626935839653015,0.7171323299407959,0.4131231904029846,-0.021958617493510246,0.7167922854423523,0.34674736857414246,-0.037142638117074966,0.7127243876457214,0.2851128578186035,-0.04966522753238678,0.7471891045570374,0.5461062788963318,-0.023115472868084908,0.7527310848236084,0.4672214686870575,-0.038121260702610016,0.752845048904419,0.412883996963501,-0.0473039448261261,0.75005042552948,0.35940828919410706,-0.055089641362428665
2023-08-01 15:51:33.828168,10,28,0.7877504825592041,0.4539689719676971,-0.3776270747184753,0.1753827184438705,0.10986328125,0.8466796875,0.474609375,0.6856995820999146,0.7893755435943604,3.1931148214425775,0.6170255541801453,0.7331075668334961,-0.019985930994153023,0.5786302089691162,0.6277787685394287,-0.023309655487537384,0.5649707913398743,0.5384573936462402,-0.027239041402935982,0.5405665636062622,0.48044633865356445,-0.030572444200515747,0.6308817267417908,0.51024329662323,0.01082393154501915,0.6296336650848389,0.4158397912979126,-0.0041512674652040005,0.633070170879364,0.35686156153678894,-0.023292383179068565,0.6381534934043884,0.2997797727584839,-0.0393020398914814,0.6698293685913086,0.49800965189933777,0.0050158388912677765,0.6692582368850708,0.38932329416275024,-0.006735372357070446,0.6699037551879883,0.3190404772758484,-0.024762215092778206,0.6693754196166992,0.2522026300430298,-0.03957504406571388,0.7042485475540161,0.5096985697746277,-0.006480957381427288,0.7068276405334473,0.40760117769241333,-0.02029505930840969,0.7072499990463257,0.3420369327068329,-0.03360744193196297,0.7049843668937683,0.2815544605255127,-0.04458529129624367,0.7393788695335388,0.5406109690666199,-0.02138485014438629,0.7437375783920288,0.46133553981781006,-0.03486812859773636,0.7438907027244568,0.40843087434768677,-0.0422276146709919,0.7418395280838013,0.35667169094085693,-0.04856354370713234
2023-08-01 15:51:33.893467,11,29,0.7891037464141846,0.4534977972507477,-0.3757010996341705,0.174653485417366,0.060546875,0.837890625,0.568359375,0.680241048336029,0.7893868684768677,2.835134012002527,0.6119736433029175,0.7326763272285461,-0.018022896721959114,0.5737637877464294,0.6265379786491394,-0.02041054703295231,0.5602019429206848,0.536196231842041,-0.02377050369977951,0.5343440771102905,0.48033252358436584,-0.02690008282661438,0.6273350119590759,0.509218156337738,0.01141924224793911,0.6274635791778564,0.4144246578216553,-0.0029659115243703127,0.6300572156906128,0.3551090955734253,-0.02178398333489895,0.634343147277832,0.2975021004676819,-0.03790254145860672,0.6670210957527161,0.4976666569709778,0.004106216132640839,0.6679410338401794,0.3890764117240906,-0.007212403230369091,0.6688216328620911,0.31947773694992065,-0.02571629360318184,0.6681583523750305,0.25231796503067017,-0.041320398449897766,0.7020408511161804,0.5096315741539001,-0.008577745407819748,0.7061254382133484,0.4065803289413452,-0.022408222779631615,0.7064637541770935,0.3403265178203583,-0.036690838634967804,0.703449010848999,0.27858585119247437,-0.048773184418678284,0.7375662326812744,0.5411478877067566,-0.024411654099822044,0.7413065433502197,0.4611210823059082,-0.038611430674791336,0.7413946986198425,0.407012403011322,-0.04667741432785988,0.7391843795776367,0.3542088270187378,-0.05372141674160957
2023-08-01 15:51:33.957029,12,30,0.7906185388565063,0.4523791968822479,-0.3743294477462768,0.1736462712287902,0.06884765625,0.83935546875,0.53564453125,0.6732993125915527,0.791050910949707,2.8872040047644987,0.6054554581642151,0.7303862571716309,-0.017798811197280884,0.5692870020866394,0.6243890523910522,-0.02116381749510765,0.5556423664093018,0.5342898368835449,-0.02568269893527031,0.5289324522018433,0.4774991571903229,-0.03012935258448124,0.6231969594955444,0.5078999400138855,0.011144493706524372,0.6240857243537903,0.4126094877719879,-0.0038760295137763023,0.6269775032997131,0.35361236333847046,-0.02344820275902748,0.6317198872566223,0.2954558730125427,-0.04027300700545311,0.6632776260375977,0.497771680355072,0.00316813588142395,0.6649588346481323,0.3887243866920471,-0.008903486654162407,0.6662557721138,0.3189922571182251,-0.028496095910668373,0.6656621098518372,0.25062474608421326,-0.045097485184669495,0.6984663009643555,0.5113685727119446,-0.010107525624334812,0.7037854194641113,0.40721243619918823,-0.02468712441623211,0.7045819163322449,0.3406705856323242,-0.03952116519212723,0.701944887638092,0.2782103717327118,-0.05207480117678642,0.7337349057197571,0.5447765588760376,-0.0264394823461771,0.7380832433700562,0.46339163184165955,-0.04141513630747795,0.738625705242157,0.40826094150543213,-0.0498678982257843,0.7367925047874451,0.35439643263816833,-0.05721883848309517
2023-08-01 15:51:34.015326,13,31,0.7920888662338257,0.4517630934715271,-0.3724041879177093,0.1726859509944915,0.0546875,0.86181640625,0.5390625,0.6733496189117432,0.7906156182289124,2.881803879972722,0.6056055426597595,0.7316158413887024,-0.018623467534780502,0.5691453814506531,0.6253187656402588,-0.0227699913084507,0.5549034476280212,0.5337380766868591,-0.027834849432110786,0.5272353887557983,0.47613275051116943,-0.032699041068553925,0.6222811341285706,0.5080248117446899,0.008589052595198154,0.6237305998802185,0.4103817641735077,-0.006293650716543198,0.6268106698989868,0.35064399242401123,-0.025410030037164688,0.6313574314117432,0.2924308478832245,-0.041796598583459854,0.6625471711158752,0.4976147711277008,0.001209098962135613,0.6643019914627075,0.3872915506362915,-0.010149810463190079,0.6654758453369141,0.3176997900009155,-0.028751567006111145,0.6647443771362305,0.25035998225212097,-0.044801369309425354,0.6979892253875732,0.510748565196991,-0.011364605277776718,0.7032542824745178,0.40603357553482056,-0.02457776851952076,0.7039494514465332,0.3391243815422058,-0.0388488732278347,0.7010521292686462,0.2769121825695038,-0.051419325172901154,0.7334036827087402,0.5437339544296265,-0.027108512818813324,0.7377720475196838,0.4622972309589386,-0.04099065810441971,0.7374328374862671,0.40656065940856934,-0.049155667424201965,0.7344987392425537,0.3521898686885834,-0.05650775134563446
2023-08-01 15:51:34.080220,14,32,0.7934155464172363,0.4516819715499878,-0.3703538775444031,0.1712107062339782,0.015625,0.853515625,0.578125,0.6605996489524841,0.7941082715988159,3.5186107538720535,0.5927892923355103,0.7367304563522339,-0.02272711880505085,0.5553149580955505,0.630071222782135,-0.029101857915520668,0.54152512550354,0.5402496457099915,-0.03584776818752289,0.513519287109375,0.481224924325943,-0.04201595112681389,0.6100660562515259,0.5064079761505127,0.005706402473151684,0.6103660464286804,0.40930891036987305,-0.012178010307252407,0.6156594157218933,0.3487021327018738,-0.03327624499797821,0.622819185256958,0.2892594039440155,-0.0507083386182785,0.6496185660362244,0.4961038827896118,-0.0003357614914420992,0.6522299647331238,0.38586920499801636,-0.014314324595034122,0.6554706692695618,0.31489843130111694,-0.0335543230175972,0.6570010185241699,0.24753537774085999,-0.04953458905220032,0.6844004988670349,0.509577751159668,-0.012315157800912857,0.6904647350311279,0.4062274694442749,-0.027732856571674347,0.6931179761886597,0.3402652144432068,-0.041757483035326004,0.6921156048774719,0.27931684255599976,-0.05350595340132713,0.7188540697097778,0.5422294735908508,-0.02801038883626461,0.7254970073699951,0.46268901228904724,-0.04303665831685066,0.7272422313690186,0.4090596139431,-0.05170602351427078,0.7259321808815002,0.35720282793045044,-0.05918758362531662
2023-08-01 15:51:34.139419,15,33,0.794493556022644,0.451661467552185,-0.3684259057044983,0.1704236418008804,0.05029296875,0.83544921875,0.60888671875,0.6530405879020691,0.7966635227203369,3.130321886146703,0.5847883820533752,0.7398505806922913,-0.02183855138719082,0.5487030744552612,0.6300512552261353,-0.027585456147789955,0.5357409119606018,0.5366703271865845,-0.03378772735595703,0.506070077419281,0.4800632894039154,-0.0399884358048439,0.6040371656417847,0.5088419914245605,0.004412905313074589,0.6038361191749573,0.40994012355804443,-0.013134350068867207,0.6071253418922424,0.3485069274902344,-0.03413591533899307,0.6125907301902771,0.28810039162635803,-0.05188499391078949,0.6443035006523132,0.4988093376159668,-0.0026414620224386454,0.645907998085022,0.38614439964294434,-0.016998127102851868,0.647394597530365,0.31322038173675537,-0.03767318278551102,0.6472242474555969,0.24263140559196472,-0.05503057688474655,0.6796809434890747,0.5127188563346863,-0.015170111320912838,0.6854131817817688,0.4057903289794922,-0.03126911073923111,0.6870644688606262,0.3369399905204773,-0.04691934958100319,0.6855688095092773,0.2727895677089691,-0.06013984605669975,0.7143747210502625,0.5465242266654968,-0.03113233670592308,0.7192637920379639,0.4646904468536377,-0.047055359929800034,0.7207208871841431,0.4093616008758545,-0.05634039267897606,0.7202247381210327,0.35611075162887573,-0.06444961577653885
2023-08-01 15:51:34.203394,16,34,0.7949899435043335,0.4528775811195373,-0.3656912446022033,0.1707706600427627,0.07080078125,0.85009765625,0.48876953125,0.6445804834365845,0.7966352701187134,3.050586201425176,0.5761467814445496,0.7410455346107483,-0.022381510585546494,0.5400955080986023,0.6302071213722229,-0.028315704315900803,0.5284364223480225,0.5364341735839844,-0.03457396477460861,0.499678373336792,0.4781317412853241,-0.040756240487098694,0.5972423553466797,0.5092119574546814,0.0033841971307992935,0.5960062146186829,0.41053515672683716,-0.01456174161285162,0.5987493395805359,0.349015474319458,-0.03562986105680466,0.604135274887085,0.288601815700531,-0.053451746702194214,0.6372705698013306,0.4992283582687378,-0.0033766126725822687,0.639194667339325,0.38610321283340454,-0.018094602972269058,0.6413753628730774,0.3130241632461548,-0.038508374243974686,0.6423700451850891,0.24274951219558716,-0.05574188381433487,0.6720024943351746,0.5138177871704102,-0.015712611377239227,0.6783168911933899,0.4073502719402313,-0.03205421194434166,0.6804203987121582,0.3389614224433899,-0.047685571014881134,0.6794654726982117,0.27539464831352234,-0.060976605862379074,0.7061477303504944,0.548022985458374,-0.031559135764837265,0.7121937274932861,0.4673614501953125,-0.04786578193306923,0.7135456800460815,0.4117737412452698,-0.057774677872657776,0.7124699354171753,0.3578634262084961,-0.06646451354026794
2023-08-01 15:51:34.267919,17,35,0.7949662804603577,0.4540755748748779,-0.3630890250205993,0.1732348799705505,0.05078125,0.82763671875,0.57470703125,0.6250688433647156,0.7953061461448669,3.067296745484782,0.556233823299408,0.7365266680717468,-0.020785871893167496,0.5202626585960388,0.6296886205673218,-0.026024717837572098,0.5087695121765137,0.5392606854438782,-0.032389283180236816,0.483224093914032,0.4784214496612549,-0.03815450519323349,0.5768427848815918,0.5066081285476685,0.01020117662847042,0.5752618312835693,0.41148602962493896,-0.005567491985857487,0.5783402323722839,0.35350626707077026,-0.025533907115459442,0.5831423997879028,0.2961362600326538,-0.0425826832652092,0.6155553460121155,0.49578192830085754,0.003050933824852109,0.6167870163917542,0.3856847882270813,-0.009344948455691338,0.6185000538825989,0.31588003039360046,-0.027910083532333374,0.6190636157989502,0.2494492530822754,-0.043734047561883926,0.6492455005645752,0.5100982189178467,-0.010058784857392311,0.653730034828186,0.40607738494873047,-0.024245737120509148,0.6551278233528137,0.34167951345443726,-0.037081338465213776,0.654045045375824,0.28127792477607727,-0.04828539863228798,0.6833548545837402,0.5438467264175415,-0.02688373625278473,0.6892539262771606,0.4628511965274811,-0.04081375524401665,0.6907938718795776,0.4084511399269104,-0.04837343841791153,0.690589189529419,0.3552795648574829,-0.05527687445282936
2023-08-01 15:51:34.327277,18,36,0.7944421768188477,0.4563440978527069,-0.3604333698749542,0.1752129048109054,0.04638671875,0.81591796875,0.5712890625,0.5990813970565796,0.792246401309967,2.836598014255287,0.5333597660064697,0.7321016192436218,-0.015603244304656982,0.5003602504730225,0.6226516962051392,-0.017623966559767723,0.4932861924171448,0.5345603823661804,-0.021463170647621155,0.4725249111652374,0.4758312702178955,-0.02489642985165119,0.5529564023017883,0.503195583820343,0.012622784823179245,0.551932692527771,0.4091857671737671,-0.0018809698522090912,0.5544856190681458,0.3502705693244934,-0.02045317366719246,0.5583354234695435,0.2927519977092743,-0.036333005875349045,0.5905178785324097,0.49272117018699646,0.0035848570987582207,0.5920542478561401,0.38353967666625977,-0.007854818366467953,0.5936563611030579,0.3115783929824829,-0.025219952687621117,0.5940800905227661,0.24299106001853943,-0.039904847741127014,0.6240074634552002,0.5070129036903381,-0.010774838738143444,0.6283723711967468,0.4029131531715393,-0.02408590354025364,0.6301199793815613,0.33800581097602844,-0.03616604581475258,0.6291274428367615,0.27675122022628784,-0.04671633243560791,0.6575096249580383,0.5403412580490112,-0.028410909697413445,0.6637769341468811,0.4597131013870239,-0.041749339550733566,0.6657125353813171,0.40588951110839844,-0.04865194484591484,0.665489137172699,0.3537469804286957,-0.0549287386238575
2023-08-01 15:51:34.390067,19,37,0.7936825156211853,0.4589234888553619,-0.3578955829143524,0.1771102249622345,0.01904296875,0.82470703125,0.48291015625,0.5970912575721741,0.7916322946548462,2.5205682163687015,0.5320118069648743,0.7321273684501648,-0.017076075077056885,0.5012975931167603,0.6229895353317261,-0.020734108984470367,0.4956212043762207,0.5320051312446594,-0.025681212544441223,0.47217389941215515,0.47257357835769653,-0.03065522201359272,0.5505564212799072,0.5030586123466492,0.008771809749305248,0.5509930849075317,0.40851134061813354,-0.006739086005836725,0.5522879958152771,0.3485260009765625,-0.02656402811408043,0.5554528832435608,0.2899785041809082,-0.04375573620200157,0.5899710059165955,0.49265626072883606,-0.00017125248268712312,0.5921468138694763,0.381661981344223,-0.012731293216347694,0.592438280582428,0.3101476728916168,-0.0326838418841362,0.5911878943443298,0.23887792229652405,-0.04979722946882248,0.6248374581336975,0.5072740316390991,-0.014112191274762154,0.6322277784347534,0.40102460980415344,-0.028545228764414787,0.6334635019302368,0.3344578146934509,-0.0438903383910656,0.6310164928436279,0.27082741260528564,-0.057313378900289536,0.6590002775192261,0.5420250296592712,-0.031114622950553894,0.6654700636863708,0.4604431986808777,-0.045699700713157654,0.6668628454208374,0.4051089882850647,-0.05454121530056,0.6654052138328552,0.3508607745170593,-0.06262613832950592
2023-08-01 15:51:34.447135,20,38,0.7933310866355896,0.459652692079544,-0.3571396470069885,0.1783161014318466,-0.0009765625,0.81689453125,0.57421875,0.5899853706359863,0.7907083630561829,2.7975872285423975,0.5220214128494263,0.7321420907974243,-0.017771122977137566,0.4904637634754181,0.6232595443725586,-0.02061869576573372,0.4856286346912384,0.5310823917388916,-0.025048254057765007,0.4632595181465149,0.4683101773262024,-0.02869296632707119,0.5410350561141968,0.5009440183639526,0.014770666137337685,0.539816677570343,0.40642619132995605,0.000600163999479264,0.542421817779541,0.3474496603012085,-0.01829846389591694,0.5468897223472595,0.2897614538669586,-0.03445380553603172,0.5794708728790283,0.489743709564209,0.006909102201461792,0.5795988440513611,0.37995296716690063,-0.003869839245453477,0.58037930727005,0.3081960678100586,-0.021696336567401886,0.5803141593933105,0.23969122767448425,-0.0368555411696434,0.6135387420654297,0.5029240846633911,-0.006729092448949814,0.617371141910553,0.39968791604042053,-0.019396726042032242,0.6189318895339966,0.334905743598938,-0.03191665932536125,0.6173956990242004,0.2743092179298401,-0.04291021451354027,0.6478954553604126,0.5349507927894592,-0.023924073204398155,0.6540423035621643,0.4556230902671814,-0.03633512184023857,0.654830813407898,0.4029998779296875,-0.043119508773088455,0.6528860330581665,0.3518731892108917,-0.049457848072052
2023-08-01 15:51:34.498797,21,39,0.7922918200492859,0.4604747593402862,-0.3589404225349426,0.1771963685750961,0.07275390625,0.841796875,0.55322265625,0.5782896876335144,0.7898675799369812,2.6973108901984233,0.5113653540611267,0.7308439016342163,-0.01636091060936451,0.48191455006599426,0.6206886768341064,-0.018571242690086365,0.4792274534702301,0.5294832587242126,-0.02269078977406025,0.4608037769794464,0.46384966373443604,-0.026159344241023064,0.5303012728691101,0.4994335174560547,0.01580963097512722,0.528842031955719,0.4051154851913452,0.0017341640777885914,0.5313536524772644,0.3459834158420563,-0.016978463158011436,0.5362500548362732,0.2884988486766815,-0.03296734765172005,0.5682015419006348,0.4882388114929199,0.007274886593222618,0.567618727684021,0.3783416152000427,-0.003442507702857256,0.5683448314666748,0.30652397871017456,-0.021590176969766617,0.5685978531837463,0.23800355195999146,-0.03703783079981804,0.6020541787147522,0.501724362373352,-0.006948396563529968,0.6061969995498657,0.3979496657848358,-0.019695254042744637,0.608444333076477,0.33269843459129333,-0.0329621396958828,0.6071767210960388,0.27193090319633484,-0.04457935318350792,0.6361281275749207,0.5342275500297546,-0.024560196325182915,0.6419332027435303,0.4544863700866699,-0.037200357764959335,0.6420258283615112,0.40129685401916504,-0.044618017971515656,0.6385633945465088,0.3497651219367981,-0.051545120775699615
2023-08-01 15:51:34.558849,22,40,0.7906976342201233,0.461694985628128,-0.3616239130496979,0.1756790727376938,0.0546875,0.88134765625,0.5068359375,0.5474964380264282,0.7932382822036743,2.584964420293545,0.484814316034317,0.7297313809394836,-0.01681085303425789,0.4574753940105438,0.6222461462020874,-0.02107430249452591,0.4605664610862732,0.5337722897529602,-0.027021972462534904,0.4549381732940674,0.4610974192619324,-0.03203446418046951,0.5015420317649841,0.504328191280365,0.012243651784956455,0.49802953004837036,0.4086230993270874,-0.0025369240902364254,0.49921512603759766,0.3504388630390167,-0.02148842066526413,0.5030182003974915,0.2935146391391754,-0.03732425719499588,0.5378330945968628,0.49379634857177734,0.003991975449025631,0.535493016242981,0.3842426538467407,-0.00591488741338253,0.535293698310852,0.31572225689888,-0.022524261847138405,0.5356181859970093,0.250130832195282,-0.03712814673781395,0.5709280967712402,0.5078181624412537,-0.009747795760631561,0.5728902816772461,0.4004892110824585,-0.020826317369937897,0.5736402273178101,0.3354111313819885,-0.0312514528632164,0.5725331902503967,0.27512773871421814,-0.04133742302656174,0.6040830016136169,0.540996253490448,-0.027041805908083916,0.6076918244361877,0.4582463800907135,-0.03828943520784378,0.6088061332702637,0.4024483263492584,-0.04384539648890495,0.6078940629959106,0.3491756021976471,-0.049486394971609116
2023-08-01 15:51:34.618955,23,41,0.7899804711341858,0.4635243713855743,-0.3615533113479614,0.1742279827594757,0.1083984375,0.8466796875,0.54248046875,0.5507943630218506,0.7918364405632019,2.470886784067261,0.4859273433685303,0.7334396839141846,-0.018061144277453423,0.4601266384124756,0.6268180012702942,-0.021578123793005943,0.46379944682121277,0.5364921689033508,-0.026406796649098396,0.45756077766418457,0.461472749710083,-0.030140433460474014,0.49951326847076416,0.5056809186935425,0.01219593733549118,0.4966011047363281,0.4087498188018799,-0.0029954169876873493,0.49897316098213196,0.3477818965911865,-0.021690839901566505,0.5039365887641907,0.28962767124176025,-0.03724614530801773,0.537244975566864,0.49485328793525696,0.005068482365459204,0.5353877544403076,0.3847077488899231,-0.006700942758470774,0.5363442897796631,0.3148171901702881,-0.02501523308455944,0.5369851589202881,0.24714508652687073,-0.04033447429537773,0.5706696510314941,0.5069717764854431,-0.0076644644141197205,0.5733578205108643,0.40380823612213135,-0.02087833546102047,0.5755248665809631,0.3390294313430786,-0.034354306757450104,0.5745295286178589,0.27816739678382874,-0.04597635567188263,0.604499876499176,0.537060022354126,-0.023821953684091568,0.6082019209861755,0.4575456380844116,-0.036498118191957474,0.6085067987442017,0.4044874906539917,-0.04410029202699661,0.605248749256134,0.3528435230255127,-0.05103367194533348
2023-08-01 15:51:34.691395,24,42,0.7905369400978088,0.463723212480545,-0.3610404431819916,0.1722261309623718,0.11572265625,0.8505859375,0.52734375,0.5213252902030945,0.7931933403015137,2.932183917891962,0.4596923589706421,0.7288983464241028,-0.01707242988049984,0.4334951639175415,0.6250675320625305,-0.0217047818005085,0.43700534105300903,0.5379021763801575,-0.02795814536511898,0.4391269087791443,0.4652820825576782,-0.033142827451229095,0.4765889048576355,0.508729100227356,0.012039036490023136,0.4751618504524231,0.4124634563922882,-0.0023807091638445854,0.47640642523765564,0.35428357124328613,-0.02057635225355625,0.4797549247741699,0.29819583892822266,-0.03573688492178917,0.5120588541030884,0.4994564354419708,0.004075386095792055,0.512228786945343,0.39007335901260376,-0.005697472952306271,0.5123744010925293,0.32097017765045166,-0.021976575255393982,0.512167751789093,0.255866140127182,-0.0361519530415535,0.5442632436752319,0.5138155817985535,-0.009400958195328712,0.5477180480957031,0.4089691638946533,-0.02033034712076187,0.5495482683181763,0.3450826406478882,-0.030735762789845467,0.5487061142921448,0.2858438789844513,-0.040665630251169205,0.5761075019836426,0.5466738343238831,-0.02640490047633648,0.5804949402809143,0.46672695875167847,-0.037449270486831665,0.5821663737297058,0.4121083617210388,-0.0430285669863224,0.5814785361289978,0.35966557264328003,-0.048621419817209244
2023-08-01 15:51:34.753214,25,43,0.7918058633804321,0.4617331326007843,-0.3616174161434173,0.1705256998538971,0.08544921875,0.841796875,0.5244140625,0.5158383250236511,0.7934092879295349,2.5415761228941847,0.45197880268096924,0.7301883101463318,-0.01590432971715927,0.4290006756782532,0.6263810992240906,-0.019125746563076973,0.43402713537216187,0.5405473113059998,-0.024456016719341278,0.43484002351760864,0.46897047758102417,-0.02869069203734398,0.4679432511329651,0.5097991228103638,0.016455240547657013,0.4649233818054199,0.416841596364975,0.002302680630236864,0.46795356273651123,0.35891708731651306,-0.01587037183344364,0.47406497597694397,0.30314069986343384,-0.031128600239753723,0.5039234161376953,0.4994732141494751,0.008374424651265144,0.5027844905853271,0.3928627669811249,-0.0027562270406633615,0.5038961172103882,0.3249412775039673,-0.02056812308728695,0.5055031180381775,0.2593577206134796,-0.03535651043057442,0.5364774465560913,0.5124159455299377,-0.005378588568419218,0.5385262370109558,0.4100181460380554,-0.018490120768547058,0.5391256809234619,0.3465545177459717,-0.03156868368387222,0.5377167463302612,0.28660809993743896,-0.042618900537490845,0.5692647099494934,0.5432177186012268,-0.02240552008152008,0.5731281042098999,0.4647890627384186,-0.035302940756082535,0.5731819868087769,0.411232590675354,-0.04297458380460739,0.570374608039856,0.35872316360473633,-0.04976470023393631
2023-08-01 15:51:34.810495,26,44,0.7916075587272644,0.4621493816375732,-0.3618774116039276,0.1697648912668228,0.08056640625,0.83837890625,0.56103515625,0.5075457692146301,0.7959019541740417,2.543472419347381,0.44374483823776245,0.7331545352935791,-0.014780617319047451,0.4200587570667267,0.6269732713699341,-0.01689498871564865,0.425851047039032,0.5399600863456726,-0.02108452282845974,0.42869025468826294,0.46883857250213623,-0.024154698476195335,0.46037688851356506,0.5088362097740173,0.017694415524601936,0.4578061103820801,0.415767639875412,0.004630137700587511,0.46038055419921875,0.35722285509109497,-0.01275623682886362,0.4658367335796356,0.3015449345111847,-0.02753301151096821,0.49663373827934265,0.499387264251709,0.009394565597176552,0.4948464334011078,0.39277100563049316,-0.0008657731232233346,0.4952179491519928,0.3241302967071533,-0.018096448853611946,0.4956052899360657,0.25892752408981323,-0.0324501097202301,0.5296613574028015,0.5131492614746094,-0.004462976008653641,0.5328352451324463,0.4101881980895996,-0.017102569341659546,0.5339446663856506,0.3467458486557007,-0.030006254091858864,0.5323010087013245,0.28788426518440247,-0.04090680927038193,0.562502920627594,0.5447453260421753,-0.021469799801707268,0.5658292770385742,0.4661077857017517,-0.034416258335113525,0.5655356645584106,0.41233062744140625,-0.04216877743601799,0.5625024437904358,0.35990655422210693,-0.04892858490347862
2023-08-01 15:51:34.871269,27,45,0.7898283004760742,0.4637768268585205,-0.3638952970504761,0.1692998558282852,0.02783203125,0.8525390625,0.55322265625,0.5033807158470154,0.7943281531333923,2.8871085078208125,0.43942511081695557,0.7301215529441833,-0.01707191951572895,0.4156765639781952,0.626413881778717,-0.020458875223994255,0.41969484090805054,0.5401898622512817,-0.025804556906223297,0.42256468534469604,0.46922245621681213,-0.029836231842637062,0.45337435603141785,0.5109093189239502,0.017665116116404533,0.45128852128982544,0.41643279790878296,0.00387288979254663,0.45452070236206055,0.35775047540664673,-0.014211508445441723,0.4607018232345581,0.3012813627719879,-0.02933451160788536,0.49003684520721436,0.501311719417572,0.010378390550613403,0.48868730664253235,0.3938942551612854,-0.0006231924053281546,0.48967573046684265,0.32477086782455444,-0.018933873623609543,0.4908371865749359,0.25771617889404297,-0.034125011414289474,0.5230165719985962,0.513992190361023,-0.00278725428506732,0.527186393737793,0.4122430682182312,-0.0159478597342968,0.5293594598770142,0.34851813316345215,-0.029709598049521446,0.5289863348007202,0.2896541655063629,-0.041123609989881516,0.5560270547866821,0.5431739091873169,-0.01932526007294655,0.5607936978340149,0.46528366208076477,-0.03201809152960777,0.5616456270217896,0.4118303656578064,-0.0399152897298336,0.5597349405288696,0.35957568883895874,-0.0468934141099453
2023-08-01 15:51:34.926091,28,46,0.7882781624794006,0.4647343158721924,-0.3655005991458893,0.1704373657703399,0.0537109375,0.88037109375,0.5263671875,0.497427374124527,0.7920624017715454,2.425526588467619,0.4322955012321472,0.7281041145324707,-0.014474413357675076,0.4088895320892334,0.620904803276062,-0.014959318563342094,0.41486573219299316,0.5322982668876648,-0.01779109425842762,0.4194287359714508,0.4617660641670227,-0.019271261990070343,0.4480672776699066,0.5099749565124512,0.023272249847650528,0.44407498836517334,0.4179930090904236,0.012393071316182613,0.4440023601055145,0.36018693447113037,-0.003855948569253087,0.4462936520576477,0.305223286151886,-0.017964988946914673,0.48384755849838257,0.49811068177223206,0.015441786497831345,0.4803601801395416,0.391166627407074,0.00699711823835969,0.47926244139671326,0.32226550579071045,-0.00967409461736679,0.4780137538909912,0.25718557834625244,-0.023603184148669243,0.5165492296218872,0.5093801021575928,0.001781268510967493,0.5172964930534363,0.40695956349372864,-0.009562522172927856,0.5176278948783875,0.34336578845977783,-0.022115632891654968,0.5155239701271057,0.2847815454006195,-0.03273062780499458,0.549717903137207,0.5373244881629944,-0.01511317864060402,0.5518214702606201,0.4586535692214966,-0.02648603729903698,0.551376223564148,0.40499651432037354,-0.03332297503948212,0.5488032102584839,0.35283032059669495,-0.0395311638712883
2023-08-01 15:51:34.994189,29,47,0.7866175770759583,0.4646464586257934,-0.3686996102333069,0.1714553833007812,0.12255859375,0.87841796875,0.52490234375,0.49527859687805176,0.7900777459144592,2.3322591857777297,0.43255382776260376,0.7263885140419006,-0.015565810725092888,0.40910738706588745,0.6226726770401001,-0.016854969784617424,0.41392555832862854,0.5342179536819458,-0.020191539078950882,0.417448490858078,0.46167421340942383,-0.021935835480690002,0.44522005319595337,0.5091995596885681,0.023062152788043022,0.4406256377696991,0.4158923029899597,0.011692153289914131,0.44149380922317505,0.35738736391067505,-0.005106757860630751,0.4450949728488922,0.3015459179878235,-0.019664177671074867,0.4818114936351776,0.49746468663215637,0.01583254151046276,0.47751858830451965,0.3910335302352905,0.0072556715458631516,0.4770054817199707,0.32330507040023804,-0.009750975295901299,0.47611096501350403,0.2578926682472229,-0.02422737143933773,0.5149092078208923,0.5082904100418091,0.0026245126500725746,0.5153681039810181,0.40815630555152893,-0.008548705838620663,0.5163354873657227,0.34570562839508057,-0.020700810477137566,0.514671266078949,0.2872155010700226,-0.0313078910112381,0.5492454767227173,0.5357275605201721,-0.01397935301065445,0.5508508086204529,0.4579964280128479,-0.02465912327170372,0.5508071780204773,0.40630868077278137,-0.030922958627343178,0.5479713678359985,0.355008602142334,-0.03699641674757004
2023-08-01 15:51:35.051803,30,48,0.785450279712677,0.4645203053951263,-0.3714529573917389,0.1712062507867813,0.13232421875,0.82763671875,0.57373046875,0.4940197467803955,0.7880242466926575,2.1291249652222177,0.43002089858055115,0.7255943417549133,-0.013632138259708881,0.4065203368663788,0.6177869439125061,-0.012950202450156212,0.41239243745803833,0.5287115573883057,-0.014648961834609509,0.4158892333507538,0.45907020568847656,-0.015013355761766434,0.4437366724014282,0.5078542828559875,0.024973681196570396,0.43961101770401,0.41636064648628235,0.014698327518999577,0.4398360848426819,0.3581995368003845,-0.0013893386349081993,0.44223883748054504,0.3032006025314331,-0.015537385828793049,0.4799741804599762,0.49528205394744873,0.01706322655081749,0.4762183427810669,0.38952237367630005,0.009524957276880741,0.47503405809402466,0.32226186990737915,-0.006688403896987438,0.47289180755615234,0.2579858601093292,-0.020552916452288628,0.5127617716789246,0.5054214596748352,0.0033518816344439983,0.5125612616539001,0.4047611653804779,-0.006936740595847368,0.5125722289085388,0.3426733613014221,-0.018417339771986008,0.509905219078064,0.2850314676761627,-0.02860005758702755,0.5465386509895325,0.5323798656463623,-0.013640964403748512,0.5477383136749268,0.45365482568740845,-0.02370990626513958,0.547690749168396,0.40170174837112427,-0.029349125921726227,0.5451449155807495,0.35077565908432007,-0.034984130412340164
2023-08-01 15:51:35.123885,31,49,0.7840878367424011,0.4662564992904663,-0.3718789219856262,0.1718058288097381,0.08544921875,0.80322265625,0.56591796875,0.49136582016944885,0.7843906879425049,2.228488114042193,0.4273785948753357,0.7207307815551758,-0.013743092305958271,0.403261661529541,0.6147328019142151,-0.013154245913028717,0.40887364745140076,0.5262410640716553,-0.015078083612024784,0.41453373432159424,0.4569386839866638,-0.015622681006789207,0.44104647636413574,0.5059082508087158,0.02645019441843033,0.4367174208164215,0.41513592004776,0.01618695817887783,0.43625062704086304,0.35681968927383423,-1.7739088434609585,0.4379797577857971,0.3016560673713684,-0.014266490004956722,0.4767925441265106,0.4928579330444336,0.018591681495308876,0.473000705242157,0.3872486650943756,0.010814690962433815,0.47146889567375183,0.3194974660873413,-0.005715996026992798,0.46908384561538696,0.25491657853126526,-0.019680609926581383,0.5095486044883728,0.5025750398635864,0.004816344473510981,0.5092025995254517,0.40156644582748413,-0.006002460140734911,0.509020984172821,0.33924800157546997,-0.017824921756982803,0.5061116218566895,0.2815103530883789,-0.02799156680703163,0.5435636639595032,0.5290602445602417,-0.012215334922075272,0.5449243187904358,0.45028018951416016,-0.022662967443466187,0.544825553894043,0.39836591482162476,-0.02844989113509655,0.5424206256866455,0.34751349687576294,-0.03404712677001953
2023-08-01 15:51:35.176476,32,50,0.7832721471786499,0.4682679176330566,-0.3714543581008911,0.1709722131490707,0.0537109375,0.8125,0.50048828125,0.48920032382011414,0.7686557769775391,2.708978854570887,0.42566654086112976,0.7030720710754395,-0.014053135178983212,0.40239566564559937,0.5972752571105957,-0.013478022068738937,0.40773099660873413,0.5092050433158875,-0.01513917837291956,0.4127378761768341,0.43913576006889343,-0.015368535183370113,0.4367409348487854,0.49469178915023804,0.023649226874113083,0.43215411901474,0.4033758044242859,0.013217185623943806,0.4304419457912445,0.343782514333725,-0.002375612733885646,0.4312455654144287,0.2880209982395172,-0.01578552834689617,0.4720512926578522,0.48152226209640503,0.016506532207131386,0.4684620499610901,0.37408220767974854,0.008931001648306847,0.46610334515571594,0.30358007550239563,-0.006814025342464447,0.463252454996109,0.23830479383468628,-0.0199572890996933,0.5049278736114502,0.491198867559433,0.003701223060488701,0.5059163570404053,0.38818421959877014,-0.006606440059840679,0.5054159760475159,0.32543057203292847,-0.01790742576122284,0.5025052428245544,0.2685754895210266,-0.027491793036460876,0.5387235283851624,0.5166252255439758,-0.0122831417247653,0.5408720970153809,0.4371499717235565,-0.02222507633268833,0.5407909750938416,0.3844621777534485,-0.027535200119018555,0.5388676524162292,0.3337640166282654,-0.032563064247369766
2023-08-01 15:51:35.240133,33,51,0.782149612903595,0.4721318781375885,-0.369652509689331,0.169382706284523,0.03466796875,0.84130859375,0.515625,0.4913000762462616,0.7618008255958557,2.5438464490434853,0.4278794527053833,0.6982061862945557,-0.013753087259829044,0.40466856956481934,0.590396523475647,-0.012603229843080044,0.4111312925815582,0.5023991465568542,-0.013599671423435211,0.4151952862739563,0.43616175651550293,-0.013103349134325981,0.4376365542411804,0.48680588603019714,0.02344188466668129,0.43377625942230225,0.39363572001457214,0.013876090757548809,0.43241143226623535,0.33437424898147583,-0.0008219292503781617,0.4329380989074707,0.2792551815509796,-0.013601279817521572,0.4738333225250244,0.4740094244480133,0.01642388291656971,0.4698193073272705,0.36705347895622253,0.009719328954815865,0.4677794277667999,0.2983013987541199,-0.004900861531496048,0.4651217758655548,0.2348422408103943,-0.017118634656071663,0.5073913335800171,0.48395732045173645,0.0038210719358175993,0.5067817568778992,0.3824236989021301,-0.005479078274220228,0.5063138604164124,0.32036298513412476,-0.015549379400908947,0.5034731030464172,0.2642703056335449,-0.02433582954108715,0.5422719717025757,0.5098759531974792,-0.011990583501756191,0.5424880981445312,0.4307403564453125,-0.020856186747550964,0.5418657064437866,0.37968993186950684,-0.024890845641493797,0.5394642353057861,0.33060982823371887,-0.0290096253156662
2023-08-01 15:51:35.303111,34,52,0.781220555305481,0.4757235646247864,-0.3676606714725494,0.167949765920639,0.04541015625,0.84912109375,0.5185546875,0.4948028028011322,0.7562422752380371,2.288321923060721,0.43139714002609253,0.693244993686676,-0.014071526937186718,0.4078090786933899,0.5852991938591003,-0.013211739249527454,0.41486409306526184,0.4970160722732544,-0.014453603886067867,0.41935136914253235,0.42971402406692505,-0.014263157732784748,0.4425539970397949,0.4832846522331238,0.022629154846072197,0.437264084815979,0.3909701108932495,0.012104435823857784,0.4359862208366394,0.3319063186645508,-0.0031036005821079016,0.4372151792049408,0.2765093445777893,-0.016324996948242188,0.4785487949848175,0.46938952803611755,0.015492277219891548,0.47340524196624756,0.3627127408981323,0.007653804030269384,0.4714362621307373,0.2937392592430115,-0.007564898580312729,0.46934086084365845,0.2293834686279297,-0.020216144621372223,0.5118718147277832,0.47855040431022644,0.0026995588559657335,0.5109416246414185,0.37661468982696533,-0.007760948501527309,0.5104130506515503,0.31476014852523804,-0.018486550077795982,0.5072535276412964,0.25775930285453796,-0.027700405567884445,0.5467250943183899,0.5038876533508301,-0.01330647710710764,0.5469405651092529,0.4253620207309723,-0.023357460275292397,0.5456836223602295,0.3739998936653137,-0.028446687385439873,0.5418913960456848,0.32370564341545105,-0.033348605036735535
2023-08-01 15:51:35.358952,35,53,0.7811462879180908,0.477621853351593,-0.3656993806362152,0.1671877056360244,0.02880859375,0.88427734375,0.431640625,0.4960879981517792,0.74803626537323,2.325606516251355,0.43292370438575745,0.6863327026367188,-0.013826782815158367,0.40971511602401733,0.5813539624214172,-0.013670451007783413,0.41770535707473755,0.49352365732192993,-0.015569808892905712,0.4221848249435425,0.4261831045150757,-0.016205590218305588,0.445385605096817,0.4760706126689911,0.0210588276386261,0.44087791442871094,0.3840509355068207,0.010057959705591202,0.44017162919044495,0.3253032863140106,-0.005500778090208769,0.44217371940612793,0.27056634426116943,-0.018841547891497612,0.4817039668560028,0.4631809592247009,0.01370207965373993,0.47718545794487,0.3564898371696472,0.005584456957876682,0.4753739833831787,0.2877805233001709,-0.00983927771449089,0.4734729528427124,0.22408315539360046,-0.022711647674441338,0.514814019203186,0.4730565547943115,0.0008657275466248393,0.5145717859268188,0.37197357416152954,-0.009732955135405064,0.51424640417099,0.31019890308380127,-0.02051711082458496,0.5115346312522888,0.2536200284957886,-0.029882151633501053,0.54945969581604,0.49928128719329834,-0.015097232535481453,0.5501574277877808,0.42090731859207153,-0.025235747918486595,0.5492544174194336,0.36975693702697754,-0.03027842566370964,0.5457870960235596,0.3197437822818756,-0.03520827740430832
2023-08-01 15:51:35.414465,36,54,0.7820420265197754,0.4780592620372772,-0.3635042011737823,0.1665361374616623,0.04833984375,0.85791015625,0.4677734375,0.5040457844734192,0.7396184802055359,2.649778991781204,0.4431000053882599,0.6725331544876099,-0.012799415737390518,0.41848546266555786,0.568652868270874,-0.012393192388117313,0.4275619089603424,0.4808086156845093,-0.014293617568910122,0.43429821729660034,0.41294389963150024,-0.01490743551403284,0.4539734125137329,0.46603623032569885,0.02240675874054432,0.45226454734802246,0.3712240159511566,0.011670371517539024,0.45352840423583984,0.31215137243270874,-0.0036119502037763596,0.45707225799560547,0.2580104172229767,-0.01651274412870407,0.4908781051635742,0.45388227701187134,0.014733277261257172,0.4890463650226593,0.34623032808303833,0.006781639996916056,0.4881477653980255,0.2777373492717743,-0.008816970512270927,0.48695072531700134,0.21477514505386353,-0.02154245227575302,0.5246976613998413,0.46377629041671753,0.001652904786169529,0.5280631184577942,0.35963723063468933,-0.00891618337482214,0.5286850333213806,0.2966163754463196,-0.020308664068579674,0.5264149308204651,0.23898547887802124,-0.029902243986725807,0.5597764849662781,0.4907907545566559,-0.014354714192450047,0.5635842084884644,0.4116077125072479,-0.02493821270763874,0.5629389882087708,0.35918769240379333,-0.030292313545942307,0.5594004392623901,0.3080279231071472,-0.03511806204915047
2023-08-01 15:51:35.470510,37,55,0.7830025553703308,0.4780764579772949,-0.3620104491710663,0.1652217358350753,0.0703125,0.87158203125,0.51123046875,0.509192168712616,0.7408966422080994,2.1375203118623176,0.4449204206466675,0.6789735555648804,-0.014988100156188011,0.4208313226699829,0.5725598335266113,-0.014621676877140999,0.4301947355270386,0.4827588200569153,-0.01618797704577446,0.43368205428123474,0.4124657213687897,-0.016410838812589645,0.46005892753601074,0.46462172269821167,0.02291073463857174,0.45553332567214966,0.37230420112609863,0.01161235012114048,0.456597238779068,0.3134971261024475,-0.005069646518677473,0.460223913192749,0.2577997148036957,-0.019364777952432632,0.497184693813324,0.45204898715019226,0.016025563701987267,0.4927988350391388,0.3470502495765686,0.007573614362627268,0.491691529750824,0.27940624952316284,-0.009141441434621811,0.49022436141967773,0.21486932039260864,-0.023071715608239174,0.5300536751747131,0.4622986912727356,0.0032746719662100077,0.5306789875030518,0.36235925555229187,-0.007874109782278538,0.530927300453186,0.29997962713241577,-0.019716408103704453,0.5286442637443542,0.2424403727054596,-0.029839226976037025,0.5645667910575867,0.4893486201763153,-0.012790497392416,0.5658609867095947,0.41132280230522156,-0.023509807884693146,0.5650002360343933,0.3598766326904297,-0.02933681756258011,0.5614659786224365,0.3089851140975952,-0.034826476126909256
2023-08-01 15:51:35.532276,38,56,0.783824622631073,0.4782165586948395,-0.3607067465782165,0.1637637466192245,0.04296875,0.85205078125,0.49853515625,0.5066798329353333,0.7404934167861938,2.2244773845159216,0.4428631067276001,0.677634596824646,-0.014465314336121082,0.4198296070098877,0.5715687870979309,-0.014280402101576328,0.42966002225875854,0.4815998375415802,-0.016031276434659958,0.43392837047576904,0.4100961685180664,-0.016363704577088356,0.460933655500412,0.4626389741897583,0.022833868861198425,0.45665356516838074,0.36995506286621094,0.0119539899751544,0.4570517838001251,0.3113310933113098,-0.004225058946758509,0.46011075377464294,0.2563254237174988,-0.01813795603811741,0.4976601302623749,0.4510466158390045,0.015831682831048965,0.4934501051902771,0.3445297181606293,0.00755879795178771,0.49242526292800903,0.27643370628356934,-0.008748472668230534,0.4909611642360687,0.2127719521522522,-0.022327251732349396,0.530458390712738,0.46203017234802246,0.003096860134974122,0.5314105749130249,0.3609861135482788,-0.008079607971012592,0.5318990349769592,0.29813840985298157,-0.01985626481473446,0.5295789241790771,0.24107101559638977,-0.029865453019738197,0.5650776028633118,0.4895268380641937,-0.012834714725613594,0.5672996044158936,0.4111256003379822,-0.023749584332108498,0.5665503144264221,0.3594129681587219,-0.029757598415017128,0.5629233717918396,0.3088885247707367,-0.03530379384756088
2023-08-01 15:51:35.592347,39,57,0.783610999584198,0.4791053831577301,-0.3613373339176178,0.1607704013586044,0.06591796875,0.83154296875,0.54443359375,0.49696269631385803,0.7410648465156555,2.327096666476791,0.4318636357784271,0.6764973998069763,-0.013375631533563137,0.4097995460033417,0.5676017999649048,-0.011469309218227863,0.42045244574546814,0.4783801734447479,-0.011962797492742538,0.42723554372787476,0.41052964329719543,-0.01115644071251154,0.451921671628952,0.4618036150932312,0.02546602301299572,0.44833654165267944,0.369798481464386,0.015826836228370667,0.4497435390949249,0.31173625588417053,0.0003128101525362581,0.4533819854259491,0.25750482082366943,-0.013190650381147861,0.48951074481010437,0.44929173588752747,0.018027523532509804,0.4872017204761505,0.3419087529182434,0.011172868311405182,0.486550509929657,0.27284830808639526,-0.0043464587070047855,0.48527827858924866,0.20959529280662537,-0.017348874360322952,0.5231842994689941,0.4598698616027832,0.004809012170881033,0.523749053478241,0.357237309217453,-0.005222827661782503,0.5234655737876892,0.2935629189014435,-0.01647401601076126,0.5209944844245911,0.23646748065948486,-0.026089798659086227,0.5581627488136292,0.48706111311912537,-0.01164420135319233,0.5599883198738098,0.4071083068847656,-0.021623872220516205,0.558801531791687,0.3542449474334717,-0.026946203783154488,0.5553050637245178,0.30369967222213745,-0.031992875039577484
2023-08-01 15:51:35.646470,40,58,0.7843504548072815,0.4802803099155426,-0.3603518307209015,0.1557935625314712,0.03271484375,0.87451171875,0.5078125,0.49541640281677246,0.740957498550415,2.0358874053272302,0.4298368990421295,0.6764202117919922,-0.01427103579044342,0.407200425863266,0.5692998170852661,-0.013710004277527332,0.41877755522727966,0.4806283712387085,-0.0154954195022583,0.42534905672073364,0.41180145740509033,-0.016066258773207664,0.4517672657966614,0.4615478813648224,0.02350553125143051,0.44805222749710083,0.3696916699409485,0.01199111808091402,0.4490066170692444,0.31061846017837524,-0.005077226087450981,0.452269047498703,0.25460779666900635,-0.019724421203136444,0.48921558260917664,0.4503318965435028,0.015894873067736626,0.486164391040802,0.3446904420852661,0.006970214191824198,0.484993577003479,0.2760344445705414,-0.009836898185312748,0.4833051264286041,0.2108580470085144,-0.02371743693947792,0.522398829460144,0.46146881580352783,0.0024275335017591715,0.5237017273902893,0.3607245683670044,-0.009065761230885983,0.5240097641944885,0.29788851737976074,-0.0204501710832119,0.5218400955200195,0.24027088284492493,-0.030117357149720192,0.5567184686660767,0.4894586205482483,-0.014397447928786278,0.5587955117225647,0.4113336205482483,-0.02520417980849743,0.5583606362342834,0.35924679040908813,-0.03059769794344902,0.5553494691848755,0.3082549571990967,-0.03569670766592026
2023-08-01 15:51:35.701928,41,59,0.7856128215789795,0.4808215200901031,-0.358153223991394,0.152804896235466,-0.0126953125,0.87109375,0.5009765625,0.4943447709083557,0.7428375482559204,2.0885730123154644,0.4295163154602051,0.6772445440292358,-0.012775558978319168,0.4074963331222534,0.568021297454834,-0.01085934042930603,0.41902315616607666,0.47886598110198975,-0.01138985250145197,0.42641913890838623,0.41095447540283203,-0.01048890221863985,0.4507696032524109,0.46150022745132446,0.02636224962770939,0.44696491956710815,0.368976354598999,0.016502879559993744,0.4475806653499603,0.3101325035095215,0.0006617915933020413,0.4507421851158142,0.25498461723327637,-0.013093088753521442,0.48803436756134033,0.45008283853530884,0.01869773678481579,0.4848855137825012,0.34339696168899536,0.011320339515805244,0.4836181700229645,0.27400916814804077,-0.004656558856368065,0.4819863736629486,0.20947152376174927,-0.01782211847603321,0.5214409828186035,0.46129587292671204,0.005294212140142918,0.5223642587661743,0.35963916778564453,-0.0048429775051772594,0.5225801467895508,0.2964021861553192,-0.016121065244078636,0.5203548669815063,0.2393198013305664,-0.025682508945465088,0.5562233924865723,0.48906904458999634,-0.011319412849843502,0.5583202242851257,0.4098232090473175,-0.021148324012756348,0.5574244260787964,0.3576852083206177,-0.026308106258511543,0.5541738867759705,0.30685997009277344,-0.03116573765873909
2023-08-01 15:51:35.766338,42,60,0.7868227362632751,0.4803751707077026,-0.3570205867290497,0.1506187617778778,0.013671875,0.876953125,0.5126953125,0.4945881962776184,0.74293053150177,2.1281759643443365,0.4299640953540802,0.6757779717445374,-0.014468512497842312,0.40837550163269043,0.5696743130683899,-0.014194928109645844,0.41998085379600525,0.47994568943977356,-0.016143551096320152,0.42739713191986084,0.40945884585380554,-0.016576426103711128,0.45111024379730225,0.4625686705112457,0.02514011599123478,0.4474028944969177,0.3689577579498291,0.014414636418223381,0.44846054911613464,0.30980145931243896,-0.0021574050188064575,0.4523763656616211,0.25357586145401,-0.01651429384946823,0.4887757897377014,0.4511663317680359,0.017781442031264305,0.4854639172554016,0.34404128789901733,0.00982340332120657,0.4847260117530823,0.2753368616104126,-0.006776010617613792,0.48387983441352844,0.20965149998664856,-0.020631929859519005,0.5220741033554077,0.46228498220443726,0.0045172893442213535,0.5228465795516968,0.3609843850135803,-0.0061391000635921955,0.5236073136329651,0.29764121770858765,-0.017196105793118477,0.5223410129547119,0.2393595278263092,-0.026770738884806633,0.557884156703949,0.49039286375045776,-0.012125175446271896,0.559400200843811,0.4104484021663666,-0.022057797759771347,0.5590230822563171,0.35811710357666016,-0.026772864162921906,0.5561435222625732,0.3064012825489044,-0.03146897628903389
2023-08-01 15:51:35.833664,43,61,0.7881510257720947,0.4797405004501343,-0.3549728691577911,0.1505371332168579,-0.00048828125,0.86865234375,0.51220703125,0.4953457713127136,0.7460451722145081,2.108696861569115,0.4320056438446045,0.6793689131736755,-0.015248077921569347,0.4109947085380554,0.5700522661209106,-0.015293200500309467,0.42214661836624146,0.47925865650177,-0.017374973744153976,0.42899689078330994,0.40875017642974854,-0.01832362823188305,0.4546658396720886,0.4657338261604309,0.020994428545236588,0.4523160457611084,0.370212197303772,0.008590360172092915,0.45345112681388855,0.3092131018638611,-0.008382854983210564,0.4571526050567627,0.25207042694091797,-0.02275468036532402,0.4929552376270294,0.45486176013946533,0.013717669062316418,0.4908762276172638,0.3461367189884186,0.003656294895336032,0.4901847243309021,0.27536457777023315,-0.013711698353290558,0.48928993940353394,0.20838779211044312,-0.02770172990858555,0.5267193913459778,0.46675530076026917,0.0006943970802240074,0.5295213460922241,0.3628639578819275,-0.011995077133178711,0.5302882194519043,0.297529011964798,-0.02438114583492279,0.5283042192459106,0.23738360404968262,-0.03441118448972702,0.561566948890686,0.4960289001464844,-0.015551513992249966,0.5650750994682312,0.4143575429916382,-0.0275359358638525,0.5647449493408203,0.3593730926513672,-0.03378436714410782,0.5610408782958984,0.3055272102355957,-0.039227113127708435
2023-08-01 15:51:35.897131,44,62,0.7897348999977112,0.479263424873352,-0.3511320054531097,0.1527469456195831,0.00927734375,0.85546875,0.53564453125,0.4951454997062683,0.7500271201133728,2.041743556446818,0.43018823862075806,0.6843092441558838,-0.015117637813091278,0.40844136476516724,0.5759676098823547,-0.014719855040311813,0.4206838607788086,0.48403167724609375,-0.016452834010124207,0.42808523774147034,0.4126587212085724,-0.01678519882261753,0.454515278339386,0.46687665581703186,0.024213997647166252,0.4504731595516205,0.372816801071167,0.013236068189144135,0.45097607374191284,0.3132132887840271,-0.0035630222409963608,0.45402294397354126,0.2568421959877014,-0.018116481602191925,0.4929182231426239,0.4552000164985657,0.01690538227558136,0.49021363258361816,0.3463245630264282,0.008421733975410461,0.48965030908584595,0.2762235701084137,-0.008720813319087029,0.4884788691997528,0.20998114347457886,-0.022905871272087097,0.5266275405883789,0.46664586663246155,0.0036770801525563,0.5277626514434814,0.363623708486557,-0.008003580383956432,0.5283642411231995,0.2980920374393463,-0.02040749229490757,0.5267083644866943,0.2383524775505066,-0.030758097767829895,0.5617802739143372,0.4953914284706116,-0.012850374914705753,0.5641271471977234,0.41412264108657837,-0.02410256862640381,0.5641186237335205,0.3606540560722351,-0.029984531924128532,0.5616594552993774,0.30884718894958496,-0.035364143550395966
2023-08-01 15:51:35.950943,45,63,0.7903448343276978,0.4782463014125824,-0.3499924838542938,0.1553729921579361,0.00537109375,0.83447265625,0.53076171875,0.4933539927005768,0.7527717351913452,1.986388440400333,0.42893460392951965,0.6862351894378662,-0.014686091803014278,0.40704816579818726,0.5758658647537231,-0.014287318103015423,0.41929036378860474,0.4838060438632965,-0.01612362079322338,0.42876461148262024,0.41352957487106323,-0.01652161404490471,0.45356181263923645,0.4662788212299347,0.023979395627975464,0.4493800103664398,0.3720399737358093,0.012989435344934464,0.4494507908821106,0.3126634359359741,-0.0036583279725164175,0.4520365595817566,0.2567070722579956,-0.018094301223754883,0.49168792366981506,0.4547545313835144,0.01637386530637741,0.48912832140922546,0.34583204984664917,0.007974158972501755,0.4881914258003235,0.27578431367874146,-0.008609031327068806,0.4866065979003906,0.20987585186958313,-0.022303564473986626,0.5255019664764404,0.4664292633533478,0.002883374458178878,0.5265436172485352,0.3630119562149048,-0.008353096432983875,0.5267997980117798,0.29799801111221313,-0.019998440518975258,0.5246070623397827,0.2385038137435913,-0.029868343845009804,0.5603064298629761,0.4953053593635559,-0.013957295566797256,0.562933623790741,0.4140452444553375,-0.02471144124865532,0.563099205493927,0.3605600595474243,-0.030159013345837593,0.5607789754867554,0.3085923194885254,-0.035240642726421356
2023-08-01 15:51:36.015990,46,64,0.7917940020561218,0.4751283526420593,-0.3492242693901062,0.1592411547899246,0.0439453125,0.83544921875,0.5048828125,0.48987147212028503,0.7530266642570496,1.967281093584461,0.42475688457489014,0.6836138963699341,-0.012828441336750984,0.4041426181793213,0.5739972591400146,-0.011007703840732574,0.41754722595214844,0.4826293885707855,-0.011871445924043655,0.42699313163757324,0.41356000304222107,-0.011321727186441422,0.45141512155532837,0.46569839119911194,0.028452539816498756,0.4474579989910126,0.37173447012901306,0.018726514652371407,0.4473421275615692,0.31212544441223145,0.0023777009919285774,0.4497299790382385,0.25600624084472656,-0.01188497431576252,0.48942065238952637,0.454334020614624,0.020321981981396675,0.4871808886528015,0.3451026678085327,0.013206197880208492,0.4863554835319519,0.27440503239631653,-0.0032562080305069685,0.484992116689682,0.2082226276397705,-0.016990704461932182,0.523011326789856,0.46575555205345154,0.0062887766398489475,0.5242412686347961,0.3619478940963745,-0.003854129696264863,0.5245548486709595,0.2965030372142792,-0.01519846636801958,0.5226175785064697,0.23701897263526917,-0.024903468787670135,0.5582172274589539,0.4941103160381317,-0.011041136458516121,0.5608267784118652,0.41179630160331726,-0.02065598964691162,0.5605676174163818,0.3577888607978821,-0.025388557463884354,0.5579879283905029,0.30540740489959717,-0.03003549575805664
2023-08-01 15:51:36.078435,47,65,0.7925557494163513,0.4721685945987701,-0.3516670763492584,0.1588785052299499,0.06005859375,0.83447265625,0.56640625,0.47920072078704834,0.7436777353286743,2.237920142533767,0.4155011773109436,0.6683712601661682,-0.01040063425898552,0.39657092094421387,0.557908833026886,-0.00687822001054883,0.4113633632659912,0.46852755546569824,-0.006488729268312454,0.422713041305542,0.40157055854797363,-0.004774373024702072,0.4392181634902954,0.45904740691185,0.031090600416064262,0.4376921057701111,0.3634561002254486,0.02283610962331295,0.4388907551765442,0.3036583960056305,0.00768134742975235,0.4421246647834778,0.24782919883728027,-0.005711072590202093,0.47670596837997437,0.44798746705055237,0.022406738251447678,0.47634992003440857,0.3375336229801178,0.016558121889829636,0.47646549344062805,0.26593101024627686,0.0005636542337015271,0.47575876116752625,0.19984722137451172,-0.012879207730293274,0.5105520486831665,0.45920291543006897,0.008052810095250607,0.5135686993598938,0.3528435230255127,-0.0011957224924117327,0.5148850679397583,0.2871340215206146,-0.01236517634242773,0.5139932632446289,0.2283238172531128,-0.021902404725551605,0.5467439293861389,0.48703670501708984,-0.009333660826086998,0.5499712824821472,0.40340739488601685,-0.018537059426307678,0.549895167350769,0.3477287292480469,-0.023175906389951706,0.547572672367096,0.29444217681884766,-0.02772882953286171
2023-08-01 15:51:36.137996,48,66,0.7933689951896667,0.4722389876842499,-0.3511998355388641,0.155610591173172,0.04736328125,0.85693359375,0.55078125,0.47635582089424133,0.7459935545921326,2.082804115843828,0.41009557247161865,0.674591600894928,-0.011677761562168598,0.39156046509742737,0.5631387233734131,-0.008787133730947971,0.4077228009700775,0.4719330072402954,-0.008764376863837242,0.41842833161354065,0.40327951312065125,-0.007463935762643814,0.43980515003204346,0.4593762457370758,0.03007187880575657,0.4368014335632324,0.36434057354927063,0.021248864009976387,0.43723368644714355,0.3042142391204834,0.005461552646011114,0.44009333848953247,0.24747008085250854,-0.008562098257243633,0.477287620306015,0.44823983311653137,0.021536333486437798,0.4759548604488373,0.3374912142753601,0.01501033641397953,0.47559332847595215,0.2656850218772888,-0.0015745366690680385,0.4743938446044922,0.19881588220596313,-0.015509734861552715,0.5102448463439941,0.4599565863609314,0.007174238562583923,0.5129553079605103,0.35482436418533325,-0.0025698491372168064,0.5138984322547913,0.2887328863143921,-0.014466170221567154,0.5123142600059509,0.22915348410606384,-0.024755826219916344,0.5449731349945068,0.4879986643791199,-0.010357802733778954,0.548456072807312,0.4058789014816284,-0.019757917150855064,0.5492205619812012,0.35173046588897705,-0.024867232888936996,0.5478073358535767,0.29912734031677246,-0.029999006539583206
2023-08-01 15:51:36.199975,49,67,0.7929096221923828,0.4737805426120758,-0.3521264791488647,0.1511070728302002,0.03466796875,0.86083984375,0.55908203125,0.47346287965774536,0.7481946349143982,1.928377457716124,0.40830862522125244,0.6765614748001099,-0.009681438095867634,0.3902353048324585,0.5629960894584656,-0.005162540357559919,0.40492573380470276,0.4728986918926239,-0.0040604714304208755,0.41371360421180725,0.40598052740097046,-0.0017394713358953595,0.43725475668907166,0.4602361023426056,0.03262776508927345,0.4338398277759552,0.3647865653038025,0.024727091193199158,0.43319451808929443,0.3035283088684082,0.00967255886644125,0.43518075346946716,0.24662569165229797,-0.003804401960223913,0.4739932715892792,0.44877418875694275,0.023321785032749176,0.4717688262462616,0.33769652247428894,0.01756543293595314,0.4707505702972412,0.26466691493988037,0.0016660422552376986,0.4694115221500397,0.19806590676307678,-0.011666052974760532,0.5071708559989929,0.4599824845790863,0.008245319128036499,0.508979082107544,0.35339969396591187,-0.000983295845799148,0.5095854997634888,0.28642410039901733,-0.012915195897221565,0.5077310800552368,0.22705429792404175,-0.023096565157175064,0.5414385199546814,0.48721787333488464,-0.009886186569929123,0.5443084239959717,0.40422308444976807,-0.018956372514367104,0.5443258285522461,0.3492863178253174,-0.024086592718958855,0.5424745082855225,0.29699164628982544,-0.029183613136410713
2023-08-01 15:51:36.264371,50,68,0.7921553254127502,0.4754332304000854,-0.353808581829071,0.1458510756492614,-0.0361328125,0.87158203125,0.5400390625,0.4748349189758301,0.7473419904708862,1.7754264547420462,0.40957948565483093,0.6783668994903564,-0.011586977168917656,0.3897109031677246,0.564439058303833,-0.00829109363257885,0.4043098986148834,0.4745316803455353,-0.00806259922683239,0.4142223000526428,0.40822678804397583,-0.006754273548722267,0.4366920292377472,0.458985298871994,0.02912280336022377,0.4324089586734772,0.3643546402454376,0.020290575921535492,0.43151164054870605,0.3039891719818115,0.004831061232835054,0.43356984853744507,0.24774020910263062,-0.009018783457577229,0.47398266196250916,0.4481969177722931,0.020259998738765717,0.4709988534450531,0.3377733826637268,0.013513904996216297,0.4695169925689697,0.2661740183830261,-0.0025916455779224634,0.4679952561855316,0.20004907250404358,-0.016054272651672363,0.5074544548988342,0.4608694016933441,0.005543085280805826,0.5085936188697815,0.35503244400024414,-0.004772915039211512,0.5083049535751343,0.2886088490486145,-0.017018765211105347,0.5057820081710815,0.22872737050056458,-0.02745095267891884,0.5420141220092773,0.4900882840156555,-0.012307737022638321,0.5442849397659302,0.4072078466415405,-0.022466808557510376,0.5440676808357239,0.35277727246284485,-0.028042754158377647,0.5419369339942932,0.2998536229133606,-0.03350697085261345
2023-08-01 15:51:36.332374,51,69,0.7896871566772461,0.4762684404850006,-0.3601691722869873,0.140856996178627,0.04150390625,0.88037109375,0.4794921875,0.48941636085510254,0.7485208511352539,2.3036477614368778,0.42517638206481934,0.6785923838615417,-0.015886928886175156,0.4018837809562683,0.5685056447982788,-0.017107639461755753,0.4148789942264557,0.47659826278686523,-0.02027958072721958,0.4249971807003021,0.4054422676563263,-0.022167259827256203,0.44494467973709106,0.461520791053772,0.01983533427119255,0.4430199861526489,0.36392664909362793,0.006976818200200796,0.4439901113510132,0.302054762840271,-0.010421858169138432,0.44768577814102173,0.2441948652267456,-0.025029325857758522,0.48480942845344543,0.4511539041996002,0.012279530055820942,0.48416030406951904,0.339110791683197,0.002317680511623621,0.48421093821525574,0.2673182487487793,-0.014735640957951546,0.48431798815727234,0.2007584273815155,-0.028590917587280273,0.5202598571777344,0.46387237310409546,-0.0010690245544537902,0.5261837840080261,0.35665959119796753,-0.013578349724411964,0.5277271866798401,0.28908103704452515,-0.025890788063406944,0.5264202952384949,0.2278802990913391,-0.03618854284286499,0.5563961267471313,0.49447572231292725,-0.0176426749676466,0.5623078346252441,0.4126802682876587,-0.029387960210442543,0.5643137693405151,0.3570026755332947,-0.034986089915037155,0.5633516907691956,0.3030528426170349,-0.04011276364326477
2023-08-01 15:51:36.391015,52,70,0.7865214347839355,0.4773733019828796,-0.3673669397830963,0.1361629217863083,0.00927734375,0.8447265625,0.55859375,0.4933856725692749,0.7490387558937073,2.2618000627971924,0.42743363976478577,0.6790722012519836,-0.015791019424796104,0.40691712498664856,0.567500650882721,-0.015610307455062866,0.4210820496082306,0.4739876389503479,-0.01735985465347767,0.42924991250038147,0.40097880363464355,-0.01787383481860161,0.4518274962902069,0.46132415533065796,0.02287939563393593,0.4497090280056,0.3630481958389282,0.011344017460942268,0.4508877992630005,0.3009595274925232,-0.0056423828937113285,0.4544721245765686,0.24246370792388916,-0.020281722769141197,0.49142974615097046,0.4514247477054596,0.01572386547923088,0.48944124579429626,0.3395429253578186,0.006437504198402166,0.4888162314891815,0.26729220151901245,-0.011535185389220715,0.48771369457244873,0.19897142052650452,-0.026265909895300865,0.5257033109664917,0.46470731496810913,0.0026529054157435894,0.5296949744224548,0.3585454225540161,-0.009791764430701733,0.5308542847633362,0.2918124496936798,-0.023090381175279617,0.5290312767028809,0.23064136505126953,-0.034048475325107574,0.5614982843399048,0.4955567419528961,-0.013672130182385445,0.5658893585205078,0.41226857900619507,-0.02572251856327057,0.5665802955627441,0.35659587383270264,-0.03236475959420204,0.5641111135482788,0.30194056034088135,-0.03830542042851448
2023-08-01 15:51:36.449993,53,71,0.7854101657867432,0.4785679578781128,-0.3691671788692474,0.1334884017705917,0.00537109375,0.8173828125,0.5244140625,0.4958230257034302,0.7472411394119263,2.234215799035155,0.4305432438850403,0.6768922805786133,-0.016707759350538254,0.40896737575531006,0.5681260228157043,-0.01736452803015709,0.42206060886383057,0.47598451375961304,-0.019873538985848427,0.4308367669582367,0.4039199650287628,-0.021062543615698814,0.45469117164611816,0.46043890714645386,0.0226969625800848,0.45225638151168823,0.3646720051765442,0.010667151771485806,0.4537520706653595,0.3038144111633301,-0.007041316479444504,0.4577312171459198,0.2459653615951538,-0.022148605436086655,0.4946621358394623,0.4507322907447815,0.015834316611289978,0.4931868612766266,0.34009331464767456,0.006635101046413183,0.4931216835975647,0.26929765939712524,-0.011283074505627155,0.4925369620323181,0.2014637291431427,-0.02609429322183132,0.5290545225143433,0.46411389112472534,0.002897483529523015,0.5329687595367432,0.35996532440185547,-0.009346569888293743,0.5343932509422302,0.2935243844985962,-0.022178780287504196,0.5333375930786133,0.2326779067516327,-0.032886385917663574,0.5652318000793457,0.49511393904685974,-0.013447364792227745,0.5695108771324158,0.41276153922080994,-0.024854598566889763,0.570478618144989,0.3579339385032654,-0.03074146807193756,0.5684643983840942,0.30407965183258057,-0.03624436631798744
2023-08-01 15:51:36.511351,54,72,0.7836799025535583,0.4798462986946106,-0.3731841444969177,0.1277765035629272,0.03662109375,0.8564453125,0.48828125,0.4984920024871826,0.7458016872406006,2.280893198758349,0.4343233108520508,0.6758787035942078,-0.016411948949098587,0.4125143885612488,0.5669076442718506,-0.016452768817543983,0.4244299530982971,0.47418713569641113,-0.018223732709884644,0.4296583831310272,0.40082547068595886,-0.0183995570987463,0.4571037292480469,0.45887860655784607,0.023704893887043,0.45340532064437866,0.36246612668037415,0.012470760382711887,0.4544491767883301,0.30161064863204956,-0.004605210851877928,0.4582003951072693,0.2440984547138214,-0.019169490784406662,0.4969138503074646,0.4485066533088684,0.017195723950862885,0.49472546577453613,0.33745938539505005,0.009190578944981098,0.49503254890441895,0.26598042249679565,-0.007820520550012589,0.49480152130126953,0.1982877254486084,-0.021990930661559105,0.5312156081199646,0.46143677830696106,0.004603178706020117,0.534235954284668,0.3577157258987427,-0.006193751934915781,0.5362758636474609,0.2915371358394623,-0.018060771748423576,0.5357290506362915,0.23139527440071106,-0.02823605202138424,0.5674359798431396,0.4920015037059784,-0.011474069207906723,0.5707151293754578,0.41060152649879456,-0.021538302302360535,0.5712160468101501,0.35679739713668823,-0.02658521942794323,0.569026529788971,0.3043021857738495,-0.03153110668063164
2023-08-01 15:51:36.576523,55,73,0.7823433876037598,0.4791573882102966,-0.3791151642799377,0.1209077760577201,0.0380859375,0.880859375,0.52685546875,0.507425844669342,0.743459165096283,2.36609849935121,0.44298362731933594,0.6750057935714722,-0.016195934265851974,0.4207921326160431,0.5594669580459595,-0.01475031953305006,0.4327257573604584,0.4647059142589569,-0.014900833368301392,0.4351850748062134,0.39153581857681274,-0.013439435511827469,0.46100857853889465,0.45509055256843567,0.023279687389731407,0.4584529399871826,0.3579258918762207,0.012196454219520092,0.46112582087516785,0.2966609001159668,-0.00446539930999279,0.4661709666252136,0.238848477602005,-0.018654542043805122,0.5005964636802673,0.44489479064941406,0.017199359834194183,0.4987318217754364,0.3344320058822632,0.009397195652127266,0.49964600801467896,0.2631281316280365,-0.0070657264441251755,0.5003904104232788,0.19505402445793152,-0.02071692980825901,0.534954845905304,0.4574061632156372,0.005056553985923529,0.5383082032203674,0.35290810465812683,-0.005292926449328661,0.540246844291687,0.28787121176719666,-0.016665687784552574,0.5400043725967407,0.2283068299293518,-0.026437530294060707,0.571305513381958,0.4865468740463257,-0.010609191842377186,0.5743884444236755,0.4047205150127411,-0.020311350002884865,0.5754175186157227,0.3514072597026825,-0.025163739919662476,0.5745204091072083,0.29929691553115845,-0.029927732422947884
2023-08-01 15:51:36.633566,56,74,0.78167325258255,0.4793988764286041,-0.3811473846435547,0.117856778204441,0.0546875,0.875,0.50439453125,0.5121084451675415,0.7435212135314941,2.1601015021133207,0.4465806186199188,0.6755164861679077,-0.016208386048674583,0.42421817779541016,0.5613829493522644,-0.013959611766040325,0.4359637498855591,0.4657742381095886,-0.013244068250060081,0.4381730258464813,0.39117881655693054,-0.010829659178853035,0.4661738872528076,0.45602238178253174,0.02719144895672798,0.461881548166275,0.3599265217781067,0.017763610929250717,0.46382519602775574,0.29994022846221924,0.0016612743493169546,0.4683108925819397,0.24212196469306946,-0.012560497969388962,0.5061780214309692,0.44494131207466125,0.02137910947203636,0.5030666589736938,0.33633649349212646,0.015137516893446445,0.5036166310310364,0.26685452461242676,-0.0013405735371634364,0.5037256479263306,0.19854575395584106,-0.015548071824014187,0.5400403738021851,0.4570099413394928,0.009228141978383064,0.5427323579788208,0.35481786727905273,-0.00028566268156282604,0.5446659922599792,0.2906886339187622,-0.011685174889862537,0.5442588329315186,0.230503112077713,-0.02196524664759636,0.5758727788925171,0.48629894852638245,-0.006501771975308657,0.5780835151672363,0.4065569341182709,-0.015705019235610962,0.5796582102775574,0.3545585572719574,-0.020651834085583687,0.579135537147522,0.3023957312107086,-0.02589017152786255
2023-08-01 15:51:36.697888,57,75,0.7803043723106384,0.481250911951065,-0.3822416365146637,0.1158191263675689,0.044921875,0.85302734375,0.49365234375,0.5174992084503174,0.7441446781158447,2.1437462294215948,0.4509592652320862,0.6742382049560547,-0.016821393743157387,0.4270104169845581,0.5640406012535095,-0.015415746718645096,0.43739402294158936,0.4695545434951782,-0.015772249549627304,0.4392368197441101,0.3943662941455841,-0.014223938807845116,0.4712386131286621,0.4579567611217499,0.02984626404941082,0.4662722945213318,0.36409586668014526,0.01964358426630497,0.46789872646331787,0.3051690459251404,0.0023512039333581924,0.4720063805580139,0.24729850888252258,-0.012647348456084728,0.5109323263168335,0.44662728905677795,0.024059126153588295,0.5074294805526733,0.34041082859039307,0.017242487519979477,0.5077454447746277,0.2723398804664612,0.00021630330593325198,0.5076767802238464,0.20382899045944214,-0.01423138938844204,0.5448275804519653,0.45792731642723083,0.01155717484652996,0.5467912554740906,0.35752397775650024,0.0014375174650922418,0.5483662486076355,0.29506731033325195,-0.009288296103477478,0.5477156639099121,0.2355557084083557,-0.018690934404730797,0.5812073945999146,0.4864090085029602,-0.00472129974514246,0.5825743675231934,0.4069300889968872,-0.01399625651538372,0.5834799408912659,0.35580936074256897,-0.018103979527950287,0.5822685956954956,0.3043184280395508,-0.022428609430789948
2023-08-01 15:51:36.758894,58,76,0.7801256775856018,0.4819470047950744,-0.3817460536956787,0.1157625541090965,0.01513671875,0.82958984375,0.5537109375,0.5194520354270935,0.7427789568901062,2.37422440818591,0.4520232677459717,0.6737694144248962,-0.016288651153445244,0.42785924673080444,0.5615826845169067,-0.01405975129455328,0.4395527243614197,0.4667828381061554,-0.013393886387348175,0.4415747821331024,0.39348673820495605,-0.010902849026024342,0.47052809596061707,0.4567696452140808,0.02720596455037594,0.46509644389152527,0.3612174987792969,0.017080683261156082,0.46728023886680603,0.30116593837738037,0.0004854680737480521,0.47209134697914124,0.24445685744285583,-0.013636683113873005,0.5104618668556213,0.44533222913742065,0.021746249869465828,0.5070658326148987,0.3376147449016571,0.015119845978915691,0.5075234174728394,0.2684062123298645,-0.0011295684380456805,0.5076532363891602,0.20159238576889038,-0.01460429560393095,0.5448935031890869,0.45681706070899963,0.009939398616552353,0.5467005372047424,0.35498353838920593,0.00036348021239973605,0.5476101040840149,0.29123765230178833,-0.010090779513120651,0.546807587146759,0.2326107919216156,-0.01912197843194008,0.5817642211914062,0.48568403720855713,-0.0054988921619951725,0.5830391645431519,0.4055119752883911,-0.014251631684601307,0.5832747220993042,0.3542279899120331,-0.018013790249824524,0.5818227529525757,0.30386102199554443,-0.021901899948716164
2023-08-01 15:51:36.823383,59,77,0.7801742553710938,0.4816256761550903,-0.3820045292377472,0.1159193366765976,0.05517578125,0.8291015625,0.56982421875,0.5202188491821289,0.7416849732398987,2.3730744658223557,0.4528258442878723,0.6734717488288879,-0.015975892543792725,0.4284554123878479,0.5611955523490906,-0.013375681824982166,0.4385628402233124,0.4665774703025818,-0.012286937795579433,0.43774789571762085,0.39290130138397217,-0.009311093017458916,0.47153234481811523,0.45453497767448425,0.027618810534477234,0.4654276669025421,0.35815298557281494,0.01804523542523384,0.46733009815216064,0.2981547713279724,0.001795053482055664,0.47171467542648315,0.2413155436515808,-0.012053628452122211,0.511124312877655,0.44330349564552307,0.022222111001610756,0.5067821145057678,0.3354699909687042,0.016443300992250443,0.5069428086280823,0.26664596796035767,0.0005123675800859928,0.5067445635795593,0.19970953464508057,-0.01287207379937172,0.545460045337677,0.45457807183265686,0.010541933588683605,0.5468654632568359,0.35344618558883667,0.0020003863610327244,0.5479595065116882,0.29039645195007324,-0.008084769360721111,0.5470373630523682,0.23214507102966309,-0.017104139551520348,0.582489013671875,0.48286157846450806,-0.004808384925127029,0.5833868980407715,0.40318697690963745,-0.012473367154598236,0.5838524103164673,0.3528429865837097,-0.015671638771891594,0.5826177000999451,0.30321019887924194,-0.019327394664287567
2023-08-01 15:51:36.883097,60,78,0.78055739402771,0.4809752404689789,-0.3820182383060455,0.1159960851073265,-0.001953125,0.80908203125,0.572265625,0.5198633074760437,0.7403483390808105,2.382383428312096,0.45338064432144165,0.6718839406967163,-0.01653895154595375,0.42877817153930664,0.5584186315536499,-0.013647724874317646,0.43840840458869934,0.4650381803512573,-0.012229616753757,0.43623608350753784,0.3926810026168823,-0.008801542222499847,0.4703846573829651,0.45241260528564453,0.027642609551548958,0.46401065587997437,0.35831695795059204,0.017774993553757668,0.46615955233573914,0.29977113008499146,0.0012440290302038193,0.4707648456096649,0.2436336874961853,-0.012717438861727715,0.510221540927887,0.4403855800628662,0.022556932643055916,0.5058642029762268,0.3340025544166565,0.016765853390097618,0.5056108236312866,0.2656070291996002,0.0011636909330263734,0.5050270557403564,0.1984652578830719,-0.011852633208036423,0.5451607704162598,0.45107412338256836,0.011016198433935642,0.5459693670272827,0.35119521617889404,0.0026510090101510286,0.5466236472129822,0.28854066133499146,-0.0066382018849253654,0.5456982851028442,0.23035255074501038,-0.014946460723876953,0.582617461681366,0.4785502851009369,-0.004371477756649256,0.5831704139709473,0.3995702564716339,-0.011571069248020649,0.5837887525558472,0.35010677576065063,-0.013969674706459045,0.5830592513084412,0.3014017939567566,-0.016934549435973167
2023-08-01 15:51:36.949137,61,79,0.7806310057640076,0.4812057018280029,-0.381237655878067,0.1171080321073532,0.04150390625,0.83837890625,0.55859375,0.516244649887085,0.7390686273574829,2.4358291739190463,0.4482657015323639,0.6705124974250793,-0.012329083867371082,0.42293810844421387,0.5564073920249939,-0.006217139773070812,0.43087872862815857,0.4648767113685608,-0.00217378418892622,0.4224298894405365,0.40105631947517395,0.0036496385000646114,0.464008092880249,0.4482366740703583,0.032975539565086365,0.4588244557380676,0.35572919249534607,0.026053715497255325,0.4607377052307129,0.2987176179885864,0.01103015523403883,0.4638780951499939,0.24425598978996277,-0.0019247927702963352,0.5042839646339417,0.4366779029369354,0.02669638954102993,0.5011304020881653,0.32968729734420776,0.023880012333393097,0.5003909468650818,0.26132217049598694,0.009854931384325027,0.4985332787036896,0.1965455412864685,-0.0020366301760077477,0.5393356680870056,0.4473063051700592,0.014312279410660267,0.5389363765716553,0.3473578095436096,0.008746350184082985,0.5378695726394653,0.2845169007778168,0.00019845063798129559,0.5356652140617371,0.22775542736053467,-0.007742301560938358,0.5775959491729736,0.47351086139678955,-0.0016772568924352527,0.5780074596405029,0.39329469203948975,-0.006490906234830618,0.5770978331565857,0.34371501207351685,-0.007789100985974073,0.5754167437553406,0.2957095503807068,-0.010103232227265835
2023-08-01 15:51:37.019246,62,80,0.7806401252746582,0.4812370538711548,-0.3810003399848938,0.1176889836788177,0.0205078125,0.8427734375,0.52880859375,0.5142613053321838,0.7400323152542114,1.9921279204027087,0.4461405575275421,0.672899603843689,-0.012714939191937447,0.42136678099632263,0.5569735765457153,-0.005872511304914951,0.43088436126708984,0.46392518281936646,-0.001209490466862917,0.4196782112121582,0.40274500846862793,0.005120252259075642,0.4632265269756317,0.45021769404411316,0.0350005179643631,0.45551225543022156,0.35862284898757935,0.027920735999941826,0.45699355006217957,0.30161482095718384,0.012059113010764122,0.46057623624801636,0.24685707688331604,-0.0015763300471007824,0.5040779709815979,0.43852758407592773,0.02887660078704357,0.49836525321006775,0.33290332555770874,0.026182781904935837,0.4969352185726166,0.265442430973053,0.011528976261615753,0.49478843808174133,0.2002710998058319,-0.0010986640118062496,0.5390679836273193,0.4489341378211975,0.016358904540538788,0.538835883140564,0.3499488830566406,0.010809835977852345,0.5375719666481018,0.2890448272228241,0.0025933554861694574,0.5352296829223633,0.233730286359787,-0.0052313776686787605,0.5775731205940247,0.475287526845932,3.6814530176343396,0.5775055289268494,0.39577507972717285,-0.0041267056949436665,0.5762787461280823,0.34694933891296387,-0.004853023681789637,0.5738493204116821,0.29881221055984497,-0.007022487465292215
2023-08-01 15:51:37.084284,63,81,0.781011164188385,0.480690598487854,-0.3807484805583954,0.1182744204998016,0.0693359375,0.8515625,0.5400390625,0.5144928693771362,0.7397273778915405,1.8851132210784272,0.4451165199279785,0.67293781042099,-0.011902523227036,0.41999557614326477,0.5589127540588379,-0.004438966512680054,0.4297001361846924,0.46636679768562317,0.0008347839466296136,0.41930800676345825,0.405150830745697,0.007787932641804218,0.4627210199832916,0.45171070098876953,0.03696830943226814,0.4554736614227295,0.36168017983436584,0.031207768246531487,0.456376314163208,0.3057938814163208,0.016093991696834564,0.4589223265647888,0.25210580229759216,0.002789024729281664,0.5036910176277161,0.43996888399124146,0.030886230990290642,0.4986568093299866,0.33494865894317627,0.029237689450383186,0.4971421957015991,0.2683532238006592,0.015024363994598389,0.49461257457733154,0.20422044396400452,0.002574475249275565,0.5382065773010254,0.4504307210445404,0.018440566956996918,0.5376685261726379,0.3519439101219177,0.013415548019111156,0.5359619855880737,0.2911043167114258,0.005059083458036184,0.5332719683647156,0.2357441782951355,-0.002971789101138711,0.5763876438140869,0.47670942544937134,0.002340469043701887,0.5761094689369202,0.3975808322429657,-0.0016923837829381227,0.574600100517273,0.3490108847618103,-0.0025904839858412743,0.5720458626747131,0.3007608950138092,-0.004947603214532137
2023-08-01 15:51:37.142015,64,82,0.7819008231163025,0.4790375232696533,-0.3810413777828216,0.1181595250964164,0.0302734375,0.84130859375,0.5458984375,0.5140364170074463,0.7461823225021362,1.9260856731762033,0.44551345705986023,0.6770557165145874,-0.01119453739374876,0.4186077415943146,0.5670042634010315,-0.004555580206215382,0.42579385638237,0.4774802327156067,-0.0002825474657583982,0.41599076986312866,0.4188506007194519,0.005748484283685684,0.45932501554489136,0.46102088689804077,0.03524058312177658,0.45199787616729736,0.37095338106155396,0.028056925162672997,0.4524887502193451,0.3156292140483856,0.012278595939278603,0.4541201889514923,0.2634493112564087,-0.000704220321495086,0.4991608262062073,0.4498788118362427,0.028872009366750717,0.49415239691734314,0.3441922962665558,0.026368945837020874,0.49247169494628906,0.27769774198532104,0.012714331038296223,0.49012941122055054,0.2156599462032318,0.0013016235316172242,0.53407883644104,0.4596606194972992,0.01633744314312935,0.5330037474632263,0.3620712161064148,0.011574767529964447,0.5314620733261108,0.30225473642349243,0.0046518961898982525,0.5292628407478333,0.24956351518630981,-0.001816323259845376,0.5728991627693176,0.48510149121284485,0.00014382408699020743,0.5726135969161987,0.40584343671798706,-0.002432627836242318,0.5709327459335327,0.35801413655281067,-0.0012467291671782732,0.5687500238418579,0.31273353099823,-0.001663679606281221
2023-08-01 15:51:37.203908,65,83,0.7823597192764282,0.4785960912704468,-0.3809143900871277,0.117316648364067,0.0546875,0.84716796875,0.54736328125,0.512808620929718,0.7483586668968201,2.1147532436316396,0.44531840085983276,0.6818735599517822,-0.012796851806342602,0.419090211391449,0.5697370171546936,-0.006607897114008665,0.4257493019104004,0.4789705276489258,-0.002679769415408373,0.4131111204624176,0.4214926064014435,0.0029754890128970146,0.45875072479248047,0.4643600881099701,0.03528839349746704,0.45155125856399536,0.3746066987514496,0.028340527787804604,0.45221391320228577,0.3180473744869232,0.01254382822662592,0.45432913303375244,0.2633892297744751,-0.0009548316593281925,0.4984903335571289,0.45161476731300354,0.02936411276459694,0.4927768111228943,0.3486711382865906,0.02684400975704193,0.4903758764266968,0.2827199399471283,0.012500666081905365,0.48694688081741333,0.21854248642921448,0.0003039948351215571,0.5331776738166809,0.46046194434165955,0.017085988074541092,0.5317720174789429,0.3632826805114746,0.012276701629161835,0.5302303433418274,0.3046084940433502,0.005096391309052706,0.527390718460083,0.2510812282562256,-0.0017945265863090754,0.57121342420578,0.4851079285144806,0.0009323401609435678,0.5702604055404663,0.4065617322921753,-0.0020037363283336163,0.5685177445411682,0.3586506247520447,-0.001552534056827426,0.565643310546875,0.31160154938697815,-0.0027134891133755445
2023-08-01 15:51:37.268191,66,84,0.7826645970344543,0.479343056678772,-0.3793988823890686,0.1171441376209259,0.01025390625,0.8515625,0.54296875,0.5131824016571045,0.7482306361198425,2.2026709700639913,0.4462309181690216,0.6827645897865295,-0.012813380919396877,0.4198691248893738,0.570475697517395,-0.00628950260579586,0.4260595440864563,0.479404479265213,-0.0018437228864058852,0.4118098020553589,0.42197540402412415,0.00436260225251317,0.45857834815979004,0.4640471935272217,0.035292722284793854,0.4510082006454468,0.3734331727027893,0.029039228335022926,0.45143336057662964,0.3164737820625305,0.013804339803755283,0.45339739322662354,0.261268675327301,0.0005699872854165733,0.4985189139842987,0.4516529440879822,0.02964557334780693,0.49247294664382935,0.3486473262310028,0.02769898623228073,0.4901682734489441,0.28215277194976807,0.013424994423985481,0.48678284883499146,0.21738138794898987,0.0011232381220906973,0.5333131551742554,0.460778146982193,0.01772036775946617,0.5325677394866943,0.3642292618751526,0.013395470567047596,0.5312323570251465,0.30465567111968994,0.005667633842676878,0.528349757194519,0.250122606754303,-0.0018683074740692973,0.571280300617218,0.4850231409072876,0.001962986309081316,0.570299506187439,0.4077760875225067,-0.0010230353800579906,0.5682045221328735,0.36009564995765686,-0.0011321278288960457,0.5648362636566162,0.31274470686912537,-0.0028229092713445425
2023-08-01 15:51:37.326011,67,85,0.7827209830284119,0.4800847470760345,-0.377968817949295,0.118346482515335,0.0029296875,0.8525390625,0.53857421875,0.5154477953910828,0.7534841895103455,1.96192758039615,0.44838523864746094,0.688223123550415,-0.012534488923847675,0.4223078489303589,0.5755451321601868,-0.006130756810307503,0.42963385581970215,0.4846249222755432,-0.0018950090743601322,0.4168734848499298,0.4255571961402893,0.004156738519668579,0.46124687790870667,0.46955546736717224,0.03497752547264099,0.45392125844955444,0.37928587198257446,0.027914073318243027,0.4543969929218292,0.32220345735549927,0.011875506490468979,0.45638805627822876,0.26735877990722656,-0.0018998986342921853,0.5007939338684082,0.456717848777771,0.029006987810134888,0.4941432774066925,0.35318052768707275,0.026401260867714882,0.49156370759010315,0.28737425804138184,0.011950841173529625,0.4876907169818878,0.22340500354766846,-0.000444339239038527,0.5351802706718445,0.4656505882740021,0.016764307394623756,0.5334315896034241,0.36795175075531006,0.011763780377805233,0.5317033529281616,0.3092920780181885,0.004567730240523815,0.5284513831138611,0.25623512268066406,-0.0024449951015412807,0.5731035470962524,0.4905201494693756,0.0007085274555720389,0.5714722275733948,0.41187867522239685,-0.0026909890584647655,0.5696651935577393,0.36420005559921265,-0.0024157760199159384,0.566413938999176,0.3175331652164459,-0.0037089213728904724
2023-08-01 15:51:37.388820,68,86,0.7822931408882141,0.4802237451076507,-0.3783605694770813,0.1193565055727958,0.02099609375,0.853515625,0.55810546875,0.5148947238922119,0.7531589269638062,1.9844311793804081,0.4485185444355011,0.6867246627807617,-0.011125585995614529,0.42291462421417236,0.5739920139312744,-0.0038064862601459026,0.4296163022518158,0.4838472306728363,0.001118203392252326,0.41582709550857544,0.425472229719162,0.00780334509909153,0.46154332160949707,0.46865537762641907,0.03755398467183113,0.45396408438682556,0.37885481119155884,0.03207704424858093,0.4543171525001526,0.32282543182373047,0.01727825030684471,0.4561845064163208,0.26877859234809875,0.00427039060741663,0.500847578048706,0.456371933221817,0.031272340565919876,0.4944533705711365,0.3536817729473114,0.029905514791607857,0.4922459125518799,0.2879018783569336,0.016094904392957687,0.4889392852783203,0.22394970059394836,0.00406200997531414,0.5351125001907349,0.46582987904548645,0.01876283809542656,0.5341147780418396,0.3692333698272705,0.0145798334851861,0.5327730774879456,0.3099818825721741,0.007165506016463041,0.5298032164573669,0.2562794089317322,-0.00014077806554269046,0.5733171105384827,0.4906494617462158,0.002567045856267214,0.5722652673721313,0.4128585457801819,-0.00039021746488288045,0.5701193809509277,0.36485302448272705,-0.00041059855720959604,0.5662599802017212,0.31746193766593933,-0.0020887365099042654
2023-08-01 15:51:37.459685,69,87,0.7818795442581177,0.4808709621429443,-0.3776729106903076,0.1216165721416473,0.03857421875,0.8486328125,0.5498046875,0.5149809718132019,0.7519708275794983,2.02987720854253,0.4480280578136444,0.686989963054657,-0.011521461419761181,0.4226251542568207,0.5743439197540283,-0.004015411715954542,0.4298529624938965,0.48341187834739685,0.001307338010519743,0.41696080565452576,0.42462727427482605,0.008366366848349571,0.4627722203731537,0.46897947788238525,0.03677145019173622,0.45496442914009094,0.378548264503479,0.03193396329879761,0.45429229736328125,0.3224562406539917,0.017951704561710358,0.4552600085735321,0.2687445282936096,0.00563797727227211,0.502054750919342,0.4569890797138214,0.031002506613731384,0.49611082673072815,0.3536059558391571,0.03026951663196087,0.4936330020427704,0.287223756313324,0.017034143209457397,0.49021846055984497,0.22385266423225403,0.005468286573886871,0.5361907482147217,0.46642088890075684,0.019065937027335167,0.5352396965026855,0.36982589960098267,0.015512323006987572,0.5335586667060852,0.3105841279029846,0.008113903924822807,0.5303236246109009,0.25699275732040405,0.0007964951219037175,0.5735178589820862,0.49077698588371277,0.003455820493400097,0.5728017091751099,0.4129047393798828,0.0009882228914648294,0.5709159970283508,0.365131139755249,0.0009722778922878206,0.5678238272666931,0.31822723150253296,-0.0006922594620846212
2023-08-01 15:51:37.522580,70,88,0.7794786691665649,0.4830135405063629,-0.3778659105300903,0.1277821362018585,0.06103515625,0.8447265625,0.49267578125,0.51517254114151,0.751708447933197,2.0171972892057966,0.4483427405357361,0.6860761642456055,-0.011872649192810059,0.4230228662490845,0.5734144449234009,-0.004494353663176298,0.4307347238063812,0.48242300748825073,0.0007576416828669608,0.4173792898654938,0.42430379986763,0.0077148121781647205,0.4624393880367279,0.4696204960346222,0.03659951686859131,0.45453378558158875,0.37987858057022095,0.03140624612569809,0.45367151498794556,0.32392409443855286,0.0170681681483984,0.45435914397239685,0.27036213874816895,0.004504714626818895,0.5021974444389343,0.45728909969329834,0.03088848665356636,0.49652382731437683,0.35375475883483887,0.029857637360692024,0.4940146207809448,0.28721320629119873,0.016340356320142746,0.4904327094554901,0.22385695576667786,0.004572249948978424,0.5364290475845337,0.4666984975337982,0.018956102430820465,0.535693347454071,0.3700287938117981,0.01504315622150898,0.533976137638092,0.3103558421134949,0.007355650421231985,0.5307360887527466,0.2565968632698059,-0.00010667353490134701,0.5737314820289612,0.4911510646343231,0.0033430270850658417,0.5730729699134827,0.41285428404808044,0.000614106364082545,0.5711859464645386,0.36479276418685913,0.0004887845716439188,0.5680597424507141,0.31771576404571533,-0.0012486119521781802
2023-08-01 15:51:37.576503,71,89,0.7787804007530212,0.484041154384613,-0.3775439858436584,0.1290958076715469,0.0703125,0.88232421875,0.4775390625,0.5142410397529602,0.7507748603820801,2.170309869597986,0.44754496216773987,0.685269832611084,-0.012311914935708046,0.4224933385848999,0.5730469226837158,-0.005336340982466936,0.42988693714141846,0.48200127482414246,-0.0004118889628443867,0.41725465655326843,0.4235367774963379,0.0063040717504918575,0.4608893096446991,0.4705418646335602,0.03548857197165489,0.45305320620536804,0.38041186332702637,0.029926687479019165,0.4524943232536316,0.32429632544517517,0.015708399936556816,0.4536798596382141,0.2711265981197357,0.0034644242841750383,0.5002239346504211,0.4581884741783142,0.030062470585107803,0.4944109320640564,0.3537597060203552,0.028848206624388695,0.49206778407096863,0.28656435012817383,0.015676217153668404,0.48920127749443054,0.22374355792999268,0.004289787262678146,0.5345251560211182,0.4669954478740692,0.0183891411870718,0.5332620143890381,0.36972299218177795,0.014510039240121841,0.5313112735748291,0.3084651827812195,0.006652024108916521,0.5283092260360718,0.25432437658309937,-0.0008757078903727233,0.5720338821411133,0.49016478657722473,0.003008265048265457,0.5714775323867798,0.4118293225765228,0.0003958776651415974,0.5695323348045349,0.36360716819763184,7.691571954637766,0.5666342377662659,0.31754153966903687,-0.0017702735494822264
2023-08-01 15:51:37.633632,72,90,0.7780375480651855,0.4852822422981262,-0.3772867918014526,0.129667043685913,0.0498046875,0.85205078125,0.50927734375,0.5088728666305542,0.7433748245239258,2.26114053702986,0.4445476830005646,0.6760191917419434,-0.011044317856431007,0.4203776717185974,0.5659459233283997,-0.004452902358025312,0.42663294076919556,0.4780721068382263,-0.00021582779299933463,0.4127219617366791,0.42048653960227966,0.005506886634975672,0.45544037222862244,0.4653468430042267,0.03340400010347366,0.44926977157592773,0.37647098302841187,0.026763778179883957,0.4487014710903168,0.32052111625671387,0.012308345176279545,0.4492915868759155,0.26716065406799316,-4.44386932940688,0.494063138961792,0.4533724784851074,0.026913167908787727,0.48934420943260193,0.349369078874588,0.02438902109861374,0.4871651828289032,0.28235894441604614,0.01117846742272377,0.48444950580596924,0.21937504410743713,-3.9731319702696055,0.5286535620689392,0.46273136138916016,0.014466270804405212,0.5278139710426331,0.3646322786808014,0.009358977898955345,0.5262079238891602,0.304810106754303,0.0019920964259654284,0.5236863493919373,0.2510744631290436,-0.00490544643253088,0.5664049386978149,0.4860089123249054,-0.0015058512799441814,0.5658949613571167,0.4069122076034546,-0.005366628989577293,0.56447434425354,0.358207643032074,-0.005657206755131483,0.5623095035552979,0.3110438585281372,-0.007231439463794231
2023-08-01 15:51:37.695489,73,91,0.7772384881973267,0.4865140616893768,-0.3772664666175842,0.1299009919166565,0.00830078125,0.84326171875,0.51904296875,0.5101142525672913,0.7411140203475952,1.8578276694825036,0.4452229142189026,0.6749748587608337,-0.010068842209875584,0.4205821454524994,0.5639669299125671,-0.0019716033712029457,0.42710691690444946,0.4748366177082062,0.003544864244759083,0.4129635691642761,0.4160541296005249,0.010581781156361103,0.45828813314437866,0.4629201292991638,0.03774583712220192,0.45060208439826965,0.37466180324554443,0.03234190493822098,0.4504104256629944,0.31902551651000977,0.017857760190963745,0.45185238122940063,0.2649889886379242,0.005039984360337257,0.49695661664009094,0.45035144686698914,0.031145306304097176,0.4905235469341278,0.34900963306427,0.02953570894896984,0.48802074790000916,0.2835577428340912,0.015428266488015652,0.4846296012401581,0.21933043003082275,0.003178585320711136,0.5308361053466797,0.4592420160770416,0.01848503388464451,0.529862105846405,0.36332643032073975,0.013827967457473278,0.5288984775543213,0.30469945073127747,0.005804936867207289,0.5264298915863037,0.25074702501296997,-0.0018626947421580553,0.5679957270622253,0.48320508003234863,0.00233962619677186,0.5666998624801636,0.4062206447124481,-0.001223481958732009,0.5649259090423584,0.3588121235370636,-0.0018256058683618903,0.5616073608398438,0.31162402033805847,-0.0038887127302587032
2023-08-01 15:51:37.760040,74,92,0.7764887809753418,0.4878082275390625,-0.3764878809452057,0.1317767947912216,0.0263671875,0.8486328125,0.51220703125,0.510066568851471,0.7383765578269958,1.984271165156315,0.44572898745536804,0.6731493473052979,-0.011281466111540794,0.4212418794631958,0.5632101893424988,-0.004464142955839634,0.42877283692359924,0.47481921315193176,2.5775509129744023,0.4151306450366974,0.4156126379966736,0.006082082167267799,0.45876359939575195,0.45976418256759644,0.03521399199962616,0.45105352997779846,0.37171006202697754,0.02891974337399006,0.4504017233848572,0.3161994218826294,0.014093889854848385,0.4515387713909149,0.26268789172172546,0.0011112041538581252,0.4976085126399994,0.44787484407424927,0.02878662757575512,0.4911292791366577,0.3458806574344635,0.026117196306586266,0.4889408349990845,0.27987468242645264,0.011683156713843346,0.4859483242034912,0.21619635820388794,-0.0006453885580413043,0.5315532088279724,0.4578450322151184,0.016283966600894928,0.5306221842765808,0.3618790805339813,0.010526997968554497,0.5297539830207825,0.30270346999168396,0.0019148415885865688,0.5273273587226868,0.24859458208084106,-0.005989784840494394,0.5689883232116699,0.48292362689971924,0.00030600474565289915,0.5682322382926941,0.40603435039520264,-0.004558909218758345,0.5663143396377563,0.3580668270587921,-0.005993029102683067,0.5628373026847839,0.31022852659225464,-0.008486967533826828
2023-08-01 15:51:37.821874,75,93,0.7751013040542603,0.4886115789413452,-0.3769975006580353,0.1354599893093109,0.0703125,0.88134765625,0.47802734375,0.5112401843070984,0.7296717166900635,1.8909638299646758,0.4477521777153015,0.6636639833450317,-0.010381576605141163,0.42460861802101135,0.555137038230896,-0.0034336899407207966,0.4321938753128052,0.46748101711273193,0.0009813602082431316,0.41989585757255554,0.4055027663707733,0.006669723894447088,0.4623563289642334,0.45751917362213135,0.0339399091899395,0.455912321805954,0.36894887685775757,0.026838956400752068,0.4562682807445526,0.3122766613960266,0.012112505733966827,0.45881330966949463,0.25798851251602173,-0.0006376878009177744,0.500724732875824,0.44507336616516113,0.027087537571787834,0.49531933665275574,0.3427625596523285,0.023552987724542618,0.49427440762519836,0.277211993932724,0.009163626469671726,0.4929330348968506,0.21371939778327942,-0.003043190808966756,0.5344403386116028,0.4538944959640503,0.014308789744973183,0.5346755981445312,0.3570822477340698,0.007738233543932438,0.5349269509315491,0.29872819781303406,-0.0010268562473356724,0.5335680246353149,0.2443583905696869,-0.008947278372943401,0.5710617899894714,0.4777929484844208,-0.00176896748598665,0.5718821287155151,0.40052786469459534,-0.007510949391871691,0.5718587636947632,0.3519817590713501,-0.009539326652884483,0.569865882396698,0.30331408977508545,-0.012412079609930515
2023-08-01 15:51:37.882887,76,94,0.7743388414382935,0.4890971183776855,-0.3773079812526703,0.1371931731700897,0.04296875,0.8720703125,0.5126953125,0.5130537748336792,0.7274435758590698,1.92408691646051,0.44890278577804565,0.6624884009361267,-0.011710508726537228,0.42506328225135803,0.5562230944633484,-0.006003756541758776,0.43417656421661377,0.4699367582798004,-0.0023992033675312996,0.4237956404685974,0.41069093346595764,0.0027340780943632126,0.464632123708725,0.4539293050765991,0.032088592648506165,0.45720791816711426,0.3672688603401184,0.024907460436224937,0.4570336639881134,0.31267720460891724,0.009813714772462845,0.4586080014705658,0.26059794425964355,-0.003150958102196455,0.5034417510032654,0.4426451027393341,0.025896767154335976,0.49779629707336426,0.34154409170150757,0.022560520097613335,0.4960345923900604,0.27651247382164,0.008438886143267155,0.4936615228652954,0.2141391932964325,-0.0035900711081922054,0.5369818210601807,0.45272296667099,0.013791682198643684,0.5365750193595886,0.3581918478012085,0.007714396808296442,0.5362247824668884,0.29971566796302795,-0.0004336003621574491,0.5346456170082092,0.2466021180152893,-0.007926818914711475,0.5739141702651978,0.47824105620384216,-0.0017690021777525544,0.5737898349761963,0.40268996357917786,-0.006608584430068731,0.5724623203277588,0.355424702167511,-0.007715827785432339,0.569659948348999,0.30895310640335083,-0.009909197688102722
2023-08-01 15:51:37.943649,77,95,0.7739487290382385,0.4903146922588348,-0.3758873343467712,0.1389375478029251,0.0400390625,0.8544921875,0.462890625,0.5122489929199219,0.7292851805686951,1.88987783644734,0.4473302960395813,0.6637852191925049,-0.011094454675912857,0.42408788204193115,0.5558122396469116,-0.004074090626090765,0.43390709161758423,0.46913567185401917,0.000664423918351531,0.42365923523902893,0.4124505817890167,0.006997413467615843,0.46505802869796753,0.4557708501815796,0.03465823456645012,0.4577379524707794,0.3694388270378113,0.02846454083919525,0.45795032382011414,0.3151552677154541,0.013903066515922546,0.45998668670654297,0.26352959871292114,0.0014728591777384281,0.5035057067871094,0.4439237117767334,0.028621012344956398,0.49836549162864685,0.3430017828941345,0.02654767781496048,0.4965086281299591,0.2778935432434082,0.01332600973546505,0.4943327307701111,0.21632865071296692,0.0021072623785585165,0.5368736386299133,0.4529924988746643,0.016527418047189713,0.5361071228981018,0.3587796092033386,0.011808437295258045,0.5350579023361206,0.30016958713531494,0.004466842394322157,0.5332925319671631,0.24741479754447937,-0.0023755719885230064,0.5735220313072205,0.47715887427330017,0.0008586635231040418,0.5731858611106873,0.40070363879203796,-0.002398453652858734,0.5713744163513184,0.3541627526283264,-0.0024182440247386694,0.5684607028961182,0.3089776039123535,-0.003801394021138549
2023-08-01 15:51:38.004044,78,96,0.7738275527954102,0.4909746348857879,-0.3745351731777191,0.1409192681312561,0.009765625,0.8740234375,0.46728515625,0.511813759803772,0.727247953414917,1.9441303322764725,0.44740357995033264,0.6626709699630737,-0.011757725849747658,0.42321085929870605,0.5563974380493164,-0.005770950578153133,0.43190908432006836,0.4695998430252075,-0.0019319920102134347,0.42427462339401245,0.4115394651889801,0.0036023594439029694,0.46243757009506226,0.45718109607696533,0.03256192058324814,0.4559626281261444,0.37108033895492554,0.025815201923251152,0.45635825395584106,0.31704413890838623,0.011237370781600475,0.4579044580459595,0.26572203636169434,-0.0011476246872916818,0.5002196431159973,0.4456140697002411,0.026925353333353996,0.49559906125068665,0.34526437520980835,0.024259667843580246,0.49387791752815247,0.28097718954086304,0.011485491879284382,0.49171578884124756,0.22081580758094788,0.000659875338897109,0.5333243012428284,0.454836368560791,0.015280721709132195,0.5324772000312805,0.36046087741851807,0.010066474787890911,0.5311999320983887,0.30177465081214905,0.0031321768183261156,0.529038667678833,0.25002750754356384,-0.003357312874868512,0.5701107978820801,0.4788683354854584,6.686781125608832,0.5704638957977295,0.40323546528816223,-0.0035811923444271088,0.5688285827636719,0.3563336431980133,-0.0036468098405748606,0.5662190318107605,0.31152015924453735,-0.004999724682420492
2023-08-01 15:51:38.074330,79,97,0.773284375667572,0.4909913837909698,-0.374552458524704,0.1437684148550033,0.0771484375,0.87841796875,0.46875,0.5120036005973816,0.7276262640953064,1.9264960826603783,0.4474979341030121,0.6643549799919128,-0.012540243566036224,0.42311546206474304,0.5573679208755493,-0.0067918747663497925,0.43157362937927246,0.46954771876335144,-0.0031018643639981747,0.42330968379974365,0.40797021985054016,0.002256488660350442,0.4641452133655548,0.4583228826522827,0.03209718316793442,0.4570430815219879,0.3715416193008423,0.025226637721061707,0.4565773904323578,0.3166886866092682,0.010608237236738205,0.45764076709747314,0.26401782035827637,-0.0018931160448119044,0.5016213059425354,0.446451872587204,0.026609104126691818,0.4962679445743561,0.3475881516933441,0.023576246574521065,0.49411535263061523,0.2832648754119873,0.010014290921390057,0.49146029353141785,0.22172072529792786,-0.0013917554169893265,0.5347069501876831,0.45507052540779114,0.015098821371793747,0.5341911315917969,0.3624686896800995,0.009621559642255306,0.5339643955230713,0.3045305907726288,0.0020638424903154373,0.5321288704872131,0.2521069645881653,-0.004898078739643097,0.5706557035446167,0.47866013646125793,-3.166448004776612,0.5704666376113892,0.4042440354824066,-0.004238773602992296,0.5688847303390503,0.3578653335571289,-0.004870368167757988,0.5659209489822388,0.31287577748298645,-0.006560640875250101
2023-08-01 15:51:38.140034,80,98,0.7738515734672546,0.4903505742549896,-0.3737810850143432,0.1449061036109924,0.08837890625,0.88427734375,0.45947265625,0.5115032196044922,0.7264941334724426,1.94039259326928,0.4479256570339203,0.6645352840423584,-0.01324255857616663,0.4241762161254883,0.5583263039588928,-0.008376740850508213,0.4332903027534485,0.47076913714408875,-0.005356288980692625,0.42600539326667786,0.40833964943885803,-0.0006576690939255059,0.46387386322021484,0.45928770303726196,0.029418326914310455,0.45657360553741455,0.37238752841949463,0.021945331245660782,0.4556739032268524,0.3174424469470978,0.007437507621943951,0.4565962553024292,0.26549017429351807,-0.004914548713713884,0.5015338659286499,0.446970134973526,0.024063535034656525,0.4958975613117218,0.34685951471328735,0.02037821151316166,0.4936419129371643,0.28225651383399963,0.007008644752204418,0.4910464286804199,0.2211666703224182,-0.004206513985991478,0.5346265435218811,0.45569705963134766,0.012792798690497875,0.533747136592865,0.36200812458992004,0.006629872135818005,0.5333315134048462,0.303989052772522,-0.0007821675390005112,0.5316399335861206,0.25181448459625244,-0.007580131758004427,0.5706021189689636,0.479658842086792,-0.0020550729241222143,0.5701195001602173,0.4048330783843994,-0.00703146168962121,0.568652868270874,0.3579946756362915,-0.007879779674112797,0.5658894181251526,0.31289583444595337,-0.009653284214437008
2023-08-01 15:51:38.194215,81,99,0.7749951481819153,0.489602267742157,-0.3725747466087341,0.1444305181503296,0.0615234375,0.85205078125,0.505859375,0.5102021098136902,0.7262028455734253,2.0077213491731527,0.44604066014289856,0.6630545854568481,-0.014108738861978054,0.42285338044166565,0.5565191507339478,-0.009347657673060894,0.4333314001560211,0.4680967926979065,-0.0063700019381940365,0.4307224154472351,0.40485215187072754,-0.0016853176057338715,0.46325623989105225,0.46116045117378235,0.02899198979139328,0.4560573697090149,0.3744814097881317,0.021258356049656868,0.4551040530204773,0.32003986835479736,0.006722359452396631,0.4559953808784485,0.26825588941574097,-0.005460847169160843,0.5008596181869507,0.4482511878013611,0.024212628602981567,0.4959222972393036,0.3482097387313843,0.020179886370897293,0.49370113015174866,0.2826083302497864,0.0065429010428488255,0.4912566542625427,0.2209954857826233,-0.0047517577186226845,0.533832311630249,0.45602333545684814,0.013379470445215702,0.5333384871482849,0.3632654845714569,0.006882447749376297,0.5326991081237793,0.3039095401763916,-0.001581971999257803,0.5305184125900269,0.2512209117412567,-0.008943426422774792,0.569148063659668,0.4785076975822449,-0.0010593944462016225,0.5696291327476501,0.40385907888412476,-0.006157106254249811,0.5680907964706421,0.356464684009552,-0.007694382686167955,0.5648885369300842,0.31155067682266235,-0.009922271594405174
2023-08-01 15:51:38.252787,82,100,0.7761510610580444,0.4893627762794494,-0.3709172308444977,0.1432966440916061,0.02587890625,0.85546875,0.50341796875,0.5066006183624268,0.7276272177696228,2.039237330109245,0.44174128770828247,0.6646718978881836,-0.01202379073947668,0.41920503973960876,0.5576513409614563,-0.0065374309197068214,0.43014097213745117,0.468781977891922,-0.003194454126060009,0.4311645030975342,0.4054594933986664,0.0018753084586933255,0.4580079913139343,0.46314623951911926,0.030788904055953026,0.4529498517513275,0.37510061264038086,0.024181140586733818,0.45281296968460083,0.3206520676612854,0.010720905847847462,0.45374706387519836,0.2697109878063202,-0.0008040130487643182,0.4954586327075958,0.45068255066871643,0.02518247254192829,0.4917614459991455,0.34937623143196106,0.021937021985650063,0.4896961450576782,0.2843698561191559,0.009343558922410011,0.4869624376296997,0.2250259518623352,-0.0011562015861272812,0.528612494468689,0.45865708589553833,0.013726741075515747,0.5282451510429382,0.3647098243236542,0.007650448475033045,0.5274257659912109,0.30459392070770264,-0.00010749640932772309,0.5250875949859619,0.25280410051345825,-0.007052108179777861,0.5647339224815369,0.48089173436164856,-0.001122852205298841,0.5653938055038452,0.40616628527641296,-0.00606354558840394,0.56391841173172,0.3586196303367615,-0.007187016308307648,0.5610857009887695,0.3142533302307129,-0.009122011251747608
2023-08-01 15:51:38.318122,83,101,0.7767944931983948,0.4894203543663025,-0.3698465228080749,0.1423781961202621,0.03759765625,0.865234375,0.49658203125,0.5053300261497498,0.7280173897743225,1.767866564250653,0.4428160488605499,0.6635836362838745,-0.011570385657250881,0.42027878761291504,0.5577821731567383,-0.00613760482519865,0.42994213104248047,0.47063347697257996,-0.0031167652923613787,0.4295864701271057,0.40692704916000366,0.0014449962181970477,0.4595823287963867,0.46436619758605957,0.031432874500751495,0.45319750905036926,0.37770235538482666,0.02440042421221733,0.45192673802375793,0.3227136731147766,0.010420724749565125,0.45238929986953735,0.2710019648075104,-0.0015680623473599553,0.4962213635444641,0.4510953724384308,0.025337334722280502,0.49120286107063293,0.35188138484954834,0.021365486085414886,0.48874038457870483,0.286670982837677,0.007597103249281645,0.4860069751739502,0.2254137098789215,-0.0037961644120514393,0.5292297005653381,0.45851051807403564,0.01343013346195221,0.528190016746521,0.3651350736618042,0.006783891469240189,0.5277069211006165,0.30616334080696106,-0.001768665388226509,0.525362491607666,0.2536514401435852,-0.00916344579309225,0.5646553039550781,0.4811670780181885,-0.0018155783182010055,0.5643215775489807,0.40559056401252747,-0.007273418828845024,0.5622091293334961,0.3573797941207886,-0.009033534675836563,0.5581976175308228,0.31166768074035645,-0.011387508362531662
2023-08-01 15:51:38.373939,84,102,0.7771375179290771,0.489609807729721,-0.3689808249473572,0.1421009749174118,0.0498046875,0.8740234375,0.4892578125,0.5070313215255737,0.7319464683532715,1.8390369405096862,0.4440801739692688,0.668157696723938,-0.011707930825650692,0.4209064245223999,0.5604771375656128,-0.006485722493380308,0.4307664632797241,0.47184205055236816,-0.0035012781154364347,0.4296000599861145,0.4061579406261444,0.001134334015659988,0.46022099256515503,0.46503496170043945,0.030268937349319458,0.4537045955657959,0.3770909905433655,0.023129185661673546,0.4524436593055725,0.3219514787197113,0.009313886053860188,0.4530889391899109,0.27033400535583496,-0.002630802569910884,0.497404009103775,0.4525696039199829,0.024125151336193085,0.4919533431529999,0.35224249958992004,0.019860079512000084,0.4898296594619751,0.2864267826080322,0.0061985827051103115,0.4875207245349884,0.22502052783966064,-0.005073861684650183,0.5306969285011292,0.4611959159374237,0.012237071990966797,0.5300539135932922,0.36687707901000977,0.005103023257106543,0.5303396582603455,0.307799756526947,-0.003638227004557848,0.528474748134613,0.2551869750022888,-0.011183694936335087,0.5663365125656128,0.4849604070186615,-0.0029106184374541044,0.5667345523834229,0.40983641147613525,-0.00930170901119709,0.5654358863830566,0.36192137002944946,-0.011633090674877167,0.5623952150344849,0.3163248896598816,-0.014290450140833855
