Timestamp,w,x,y,z,ax,ay,az
2023-08-01T16:24:26.238159,1.0,0.0,0.0,-8.522073039785028e-05,0.04833984375,0.97021484375,0.16357421875
2023-08-01T16:24:26.244232,1.0,0.0,0.0,-8.522073039785028e-05,0.04150390625,0.966796875,0.162109375
2023-08-01T16:24:26.247225,1.0,0.0,0.0,-0.0001852267887443304,0.04150390625,0.966796875,0.162109375
2023-08-01T16:24:26.311559,1.0,0.0,0.0,-0.0001852267887443304,0.025390625,0.97021484375,0.14990234375
2023-08-01T16:24:26.312557,1.0,0.0,0.0,-0.0001852267887443304,0.025390625,0.97021484375,0.14990234375
2023-08-01T16:24:26.334297,1.0,0.0,0.0,-0.0001852267887443304,0.02490234375,0.97509765625,0.15283203125
2023-08-01T16:24:26.334297,1.0,0.0,0.0,-0.0001852267887443304,0.02490234375,0.97509765625,0.15283203125
2023-08-01T16:24:26.335294,1.0,0.0,0.0,-0.0001852267887443304,0.0244140625,0.96875,0.1533203125
2023-08-01T16:24:26.340912,1.0,0.0,0.0,-0.0001852267887443304,0.0244140625,0.96875,0.1533203125
2023-08-01T16:24:26.342907,1.0,0.0,0.0,-0.0001852267887443304,0.03369140625,0.9697265625,0.15576171875
2023-08-01T16:24:26.342907,1.0,0.0,0.0,-0.0001852267887443304,0.03369140625,0.9697265625,0.15576171875
2023-08-01T16:24:26.356066,1.0,0.0,0.0,-0.0001852267887443304,0.037109375,0.97265625,0.1591796875
2023-08-01T16:24:26.368040,1.0,0.0,0.0,-0.0001852267887443304,0.037109375,0.97265625,0.1591796875
2023-08-01T16:24:26.373079,1.0,0.0,0.0,-0.0001852267887443304,0.04248046875,0.97216796875,0.1611328125
2023-08-01T16:24:26.374078,1.0,0.0,0.0,-0.0001852267887443304,0.04248046875,0.97216796875,0.1611328125
2023-08-01T16:24:26.374078,1.0,0.0,0.0,-0.0001852267887443304,0.0439453125,0.97509765625,0.16357421875
2023-08-01T16:24:26.379290,1.0,0.0,0.0,-0.0001852267887443304,0.0439453125,0.97509765625,0.16357421875
2023-08-01T16:24:26.386273,1.0,0.0,0.0,-0.0001852267887443304,0.04296875,0.97314453125,0.16162109375
2023-08-01T16:24:26.386273,1.0,0.0,0.0,-0.0001852267887443304,0.04296875,0.97314453125,0.16162109375
2023-08-01T16:24:26.393765,1.0,0.0,0.0,-0.0001852267887443304,0.0400390625,0.974609375,0.15380859375
2023-08-01T16:24:26.394761,1.0,0.0,0.0,-0.0001852267887443304,0.0400390625,0.974609375,0.15380859375
2023-08-01T16:24:26.402942,1.0,0.0,0.0,-0.0001852267887443304,0.04443359375,0.97509765625,0.1484375
2023-08-01T16:24:26.403939,1.0,-5.78937069803942e-05,1.0723465670992027e-08,-0.0002431236789561808,0.04443359375,0.97509765625,0.1484375
2023-08-01T16:24:26.408941,1.0,-5.78937069803942e-05,1.0723465670992027e-08,-0.0002431236789561808,0.04248046875,0.97607421875,0.1474609375
2023-08-01T16:24:26.416922,1.0,-5.78937069803942e-05,5.481351372793597e-09,-0.0003336709050927311,0.04248046875,0.97607421875,0.1474609375
2023-08-01T16:24:26.423928,1.0,-5.78937069803942e-05,5.481351372793597e-09,-0.0003336709050927311,0.033203125,0.974609375,0.15283203125
2023-08-01T16:24:26.431470,0.9999999403953552,-0.0001157874139607884,1.9618539681687253e-08,-0.0004231496714055538,0.033203125,0.974609375,0.15283203125
2023-08-01T16:24:26.431470,0.9999999403953552,-0.0001157874139607884,1.9618539681687253e-08,-0.0004231496714055538,0.04052734375,0.97119140625,0.15966796875
2023-08-01T16:24:26.432467,0.9999999403953552,-0.00011583197920117527,-0.00010530725558055565,-0.00047577073564752936,0.04052734375,0.97119140625,0.15966796875
2023-08-01T16:24:26.445450,0.9999999403953552,-0.00011583197920117527,-0.00010530725558055565,-0.00047577073564752936,0.03173828125,0.9736328125,0.16845703125
2023-08-01T16:24:26.446957,0.9999998807907104,-0.00011585012543946505,-0.00016326559125445783,-0.0005652427789755166,0.03173828125,0.9736328125,0.16845703125
2023-08-01T16:24:26.453520,0.9999998807907104,-0.00011585012543946505,-0.00016326559125445783,-0.0005652427789755166,0.02099609375,0.9736328125,0.17138671875
2023-08-01T16:24:26.454518,0.9999998211860657,-0.00011591210932238027,-0.00028964763623662293,-0.0006231250008568168,0.02099609375,0.9736328125,0.17138671875
2023-08-01T16:24:26.462108,0.9999998211860657,-0.00011591210932238027,-0.00028964763623662293,-0.0006231250008568168,0.02197265625,0.97412109375,0.17333984375
2023-08-01T16:24:26.462108,0.9999998211860657,-0.00011595805699471384,-0.0003633865271694958,-0.0006231164443306625,0.02197265625,0.97412109375,0.17333984375
2023-08-01T16:24:26.470623,0.9999998211860657,-0.00011595805699471384,-0.0003633865271694958,-0.0006231164443306625,0.02490234375,0.97021484375,0.1669921875
2023-08-01T16:24:26.470623,0.9999998211860657,-0.00011592528608161956,-0.00031079797190614045,-0.0006231225561350584,0.02490234375,0.97021484375,0.1669921875
2023-08-01T16:24:26.484155,0.9999998211860657,-0.00011592528608161956,-0.00031079797190614045,-0.0006231225561350584,0.02099609375,0.97216796875,0.1533203125
2023-08-01T16:24:26.484155,0.9999998211860657,-0.00011587553308345377,-0.00023094899370335042,-0.0006231318111531436,0.02099609375,0.97216796875,0.1533203125
2023-08-01T16:24:26.492132,0.9999998211860657,-0.00011587553308345377,-0.00023094899370335042,-0.0006231318111531436,0.0185546875,0.97216796875,0.1494140625
2023-08-01T16:24:26.492132,0.9999998807907104,-0.00011588890629354864,-0.00023094228527043015,-0.0005652285180985928,0.0185546875,0.97216796875,0.1494140625
2023-08-01T16:24:26.498126,0.9999998807907104,-0.00011588890629354864,-0.00023094228527043015,-0.0005652285180985928,0.0263671875,0.96923828125,0.15576171875
2023-08-01T16:24:26.515486,0.9999998211860657,-0.00011590591020649299,-0.00023093371419236064,-0.00049153424333781,0.0263671875,0.96923828125,0.15576171875
2023-08-01T16:24:26.515486,0.9999998211860657,-0.00011590591020649299,-0.00023093371419236064,-0.00049153424333781,0.0322265625,0.97021484375,0.1611328125
2023-08-01T16:24:26.516992,0.9999998807907104,-0.0001159514140454121,-0.0002888731542043388,-0.0004178333329036832,0.0322265625,0.97021484375,0.1611328125
2023-08-01T16:24:26.521504,0.9999998807907104,-0.0001159514140454121,-0.0002888731542043388,-0.0004178333329036832,0.03662109375,0.9755859375,0.16162109375
2023-08-01T16:24:26.521504,0.9999998807907104,-0.00011600419384194538,-0.00036786776036024094,-0.000349393580108881,0.03662109375,0.9755859375,0.16162109375
2023-08-01T16:24:26.529237,0.9999998807907104,-0.00011600419384194538,-0.00036786776036024094,-0.000349393580108881,0.04150390625,0.97314453125,0.1630859375
2023-08-01T16:24:26.529237,0.9999998807907104,-0.00011600419384194538,-0.00036786776036024094,-0.000349393580108881,0.04150390625,0.97314453125,0.1630859375
2023-08-01T16:24:26.545027,0.9999998807907104,-0.00011600419384194538,-0.00036786776036024094,-0.000349393580108881,0.04638671875,0.96826171875,0.16357421875
2023-08-01T16:24:26.546025,0.9999998807907104,-0.00011600419384194538,-0.00036786776036024094,-0.000349393580108881,0.04638671875,0.96826171875,0.16357421875
2023-08-01T16:24:26.551343,0.9999998807907104,-0.00011600419384194538,-0.00036786776036024094,-0.000349393580108881,0.04296875,0.96826171875,0.16259765625
2023-08-01T16:24:26.552342,0.9999999403953552,-0.00011592682858463377,-0.00020812811271753162,-0.0004080003418494016,0.04296875,0.96826171875,0.16259765625
2023-08-01T16:24:26.559242,0.9999999403953552,-0.00011592682858463377,-0.00020812811271753162,-0.0004080003418494016,0.03955078125,0.96875,0.15625
2023-08-01T16:24:26.589115,0.9999998807907104,-0.00011584800813579932,-7.133407780202106e-05,-0.0005185495247133076,0.03955078125,0.96875,0.15625
2023-08-01T16:24:26.590118,0.9999998807907104,-0.00011584800813579932,-7.133407780202106e-05,-0.0005185495247133076,0.03125,0.96826171875,0.162109375
2023-08-01T16:24:26.590118,0.9999998211860657,-0.00011579204146983102,2.8620563170989044e-05,-0.0005764579982496798,0.03125,0.96826171875,0.162109375
2023-08-01T16:24:26.591111,0.9999998211860657,-0.00011579204146983102,2.8620563170989044e-05,-0.0005764579982496798,0.0302734375,0.966796875,0.16650390625
2023-08-01T16:24:26.592114,0.9999998211860657,-0.00011579204146983102,2.8620563170989044e-05,-0.0005764579982496798,0.0302734375,0.966796875,0.16650390625
2023-08-01T16:24:26.593107,0.9999998211860657,-0.00011579204146983102,2.8620563170989044e-05,-0.0005764579982496798,0.0244140625,0.9716796875,0.1669921875
2023-08-01T16:24:26.594103,0.9999998211860657,-0.0001158375816885382,-5.0381990149617195e-05,-0.0005764488596469164,0.0244140625,0.9716796875,0.1669921875
2023-08-01T16:24:26.608105,0.9999998211860657,-0.0001158375816885382,-5.0381990149617195e-05,-0.0005764488596469164,0.01806640625,0.9765625,0.16455078125
2023-08-01T16:24:26.609191,0.9999998211860657,-5.731952114729211e-05,-0.00018895312678068876,-0.0005764298257417977,0.01806640625,0.9765625,0.16455078125
2023-08-01T16:24:26.616173,0.9999998211860657,-5.731952114729211e-05,-0.00018895312678068876,-0.0005764298257417977,0.0234375,0.97412109375,0.16455078125
2023-08-01T16:24:26.621361,0.9999998211860657,5.811111805087421e-06,-0.00025746479514054954,-0.0005764139932580292,0.0234375,0.97412109375,0.16455078125
2023-08-01T16:24:26.622358,0.9999998211860657,5.811111805087421e-06,-0.00025746479514054954,-0.0005764139932580292,0.03271484375,0.9677734375,0.16552734375
2023-08-01T16:24:26.623357,0.9999998807907104,9.528588270768523e-05,-0.0002575166872702539,-0.0005237513105385005,0.03271484375,0.9677734375,0.16552734375
2023-08-01T16:24:26.635344,0.9999998807907104,9.528588270768523e-05,-0.0002575166872702539,-0.0005237513105385005,0.0390625,0.9677734375,0.16259765625
2023-08-01T16:24:26.641353,0.9999998807907104,0.00015923815954010934,-0.00020433365716598928,-0.0005237297737039626,0.0390625,0.9677734375,0.16259765625
2023-08-01T16:24:26.642351,0.9999998807907104,0.00015923815954010934,-0.00020433365716598928,-0.0005237297737039626,0.03369140625,0.9697265625,0.1474609375
2023-08-01T16:24:26.642351,0.9999998211860657,0.00015925188199616969,-0.00020432296150829643,-0.0005908868624828756,0.03369140625,0.9697265625,0.1474609375
2023-08-01T16:24:26.649360,0.9999998211860657,0.00015925188199616969,-0.00020432296150829643,-0.0005908868624828756,0.03564453125,0.97265625,0.1416015625
2023-08-01T16:24:26.649360,0.9999998211860657,0.00015925188199616969,-0.00020432296150829643,-0.0005908868624828756,0.03564453125,0.97265625,0.1416015625
2023-08-01T16:24:26.665854,0.9999998211860657,0.00015925188199616969,-0.00020432296150829643,-0.0005908868624828756,0.04736328125,0.9697265625,0.1484375
2023-08-01T16:24:26.668966,0.9999997615814209,0.00015926371270325035,-0.00020431373559404165,-0.000648783752694726,0.04736328125,0.9697265625,0.1484375
2023-08-01T16:24:26.670963,0.9999997615814209,0.00015926371270325035,-0.00020431373559404165,-0.000648783752694726,0.046875,0.97119140625,0.15869140625
2023-08-01T16:24:26.671960,0.9999997019767761,0.0001592104381415993,-0.00030962275923229754,-0.0007224883302114904,0.046875,0.97119140625,0.15869140625
2023-08-01T16:24:26.685379,0.9999997019767761,0.0001592104381415993,-0.00030962275923229754,-0.0007224883302114904,0.0341796875,0.97509765625,0.15966796875
2023-08-01T16:24:26.686885,0.9999996423721313,5.92320466239471e-05,-0.00030953792156651616,-0.0008014707709662616,0.0341796875,0.97509765625,0.15966796875
2023-08-01T16:24:26.687950,0.9999996423721313,5.92320466239471e-05,-0.00030953792156651616,-0.0008014707709662616,0.0390625,0.97509765625,0.1572265625
2023-08-01T16:24:26.703945,0.9999995231628418,-3.127729723928496e-05,-0.0003094587300438434,-0.000913351948838681,0.0390625,0.97509765625,0.1572265625
2023-08-01T16:24:26.704943,0.9999995231628418,-3.127729723928496e-05,-0.0003094587300438434,-0.000913351948838681,0.04296875,0.97509765625,0.158203125
2023-08-01T16:24:26.705941,0.9999994039535522,-0.00010484274389455095,-0.00021996120631229132,-0.001034438144415617,0.04296875,0.97509765625,0.158203125
2023-08-01T16:24:26.711954,0.9999994039535522,-0.00010484274389455095,-0.00021996120631229132,-0.001034438144415617,0.037109375,0.97802734375,0.15673828125
2023-08-01T16:24:26.754946,0.9999992847442627,-0.0002362841769354418,-0.00010935030149994418,-0.0011660666204988956,0.037109375,0.97802734375,0.15673828125
2023-08-01T16:24:26.755943,0.9999992847442627,-0.0002362841769354418,-0.00010935030149994418,-0.0011660666204988956,0.02392578125,0.9775390625,0.15771484375
2023-08-01T16:24:26.837917,0.9999991059303284,-0.0003414749226067215,-5.6670131016289815e-05,-0.001297678449191153,0.02392578125,0.9775390625,0.15771484375
2023-08-01T16:24:26.838940,0.9999991059303284,-0.0003414749226067215,-5.6670131016289815e-05,-0.001297678449191153,0.02587890625,0.9736328125,0.16162109375
2023-08-01T16:24:26.840934,0.9999989867210388,-0.00043094714055769145,-5.657379006152041e-05,-0.001355580403469503,0.02587890625,0.9736328125,0.16162109375
2023-08-01T16:24:26.841931,0.9999989867210388,-0.00043094714055769145,-5.657379006152041e-05,-0.001355580403469503,0.03271484375,0.9736328125,0.16748046875
2023-08-01T16:24:26.843926,0.999998927116394,-0.00043094417196698487,-5.659647285938263e-05,-0.0014082136331126094,0.03271484375,0.9736328125,0.16748046875
2023-08-01T16:24:26.844924,0.999998927116394,-0.00043094417196698487,-5.659647285938263e-05,-0.0014082136331126094,0.0185546875,0.978515625,0.17529296875
2023-08-01T16:24:26.845920,0.999998927116394,-0.00043102577910758555,-0.00011454439663793892,-0.0014081886038184166,0.0185546875,0.978515625,0.17529296875
2023-08-01T16:24:26.847933,0.999998927116394,-0.00043102577910758555,-0.00011454439663793892,-0.0014081886038184166,0.01513671875,0.9765625,0.1787109375
2023-08-01T16:24:26.850938,0.999998927116394,-0.000431123364251107,-0.0001838372554630041,-0.001408158685080707,0.01513671875,0.9765625,0.1787109375
2023-08-01T16:24:26.851935,0.999998927116394,-0.000431123364251107,-0.0001838372554630041,-0.001408158685080707,0.02587890625,0.9755859375,0.17041015625
2023-08-01T16:24:26.854928,0.999998927116394,-0.000431123364251107,-0.0001838372554630041,-0.001408158685080707,0.02587890625,0.9755859375,0.17041015625
2023-08-01T16:24:26.854928,0.999998927116394,-0.000431123364251107,-0.0001838372554630041,-0.001408158685080707,0.02392578125,0.9765625,0.1591796875
2023-08-01T16:24:26.856922,0.999998927116394,-0.00043094553984701633,-5.755778693128377e-05,-0.001408213167451322,0.02392578125,0.9765625,0.1591796875
2023-08-01T16:24:26.856922,0.999998927116394,-0.00043094553984701633,-5.755778693128377e-05,-0.001408213167451322,0.02490234375,0.97607421875,0.15380859375
2023-08-01T16:24:26.858104,0.9999990463256836,-0.0004308315401431173,2.664657586137764e-05,-0.0013292917283251882,0.02490234375,0.97607421875,0.15380859375
2023-08-01T16:24:26.859131,0.9999990463256836,-0.0004308315401431173,2.664657586137764e-05,-0.0013292917283251882,0.037109375,0.97265625,0.154296875
2023-08-01T16:24:26.861130,0.9999991059303284,-0.00043073209235444665,0.00010031459532910958,-0.001271420274861157,0.037109375,0.97265625,0.154296875
2023-08-01T16:24:26.864121,0.9999991059303284,-0.00043073209235444665,0.00010031459532910958,-0.001271420274861157,0.0341796875,0.97509765625,0.15869140625
2023-08-01T16:24:26.871621,0.9999992251396179,-0.00043080293107777834,3.714383637998253e-05,-0.0011766443494707346,0.0341796875,0.97509765625,0.15869140625
2023-08-01T16:24:26.872618,0.9999992251396179,-0.00043080293107777834,3.714383637998253e-05,-0.0011766443494707346,0.0302734375,0.97509765625,0.16455078125
2023-08-01T16:24:26.938160,0.9999994039535522,-0.0004308722272980958,-2.6008781787822954e-05,-0.0010397592559456825,0.0302734375,0.97509765625,0.16455078125
2023-08-01T16:24:26.939458,0.9999994039535522,-0.0004308722272980958,-2.6008781787822954e-05,-0.0010397592559456825,0.04150390625,0.9716796875,0.169921875
2023-08-01T16:24:26.939458,0.999999463558197,-0.00043087388621643186,-2.5981240469263867e-05,-0.0009758381056599319,0.04150390625,0.9716796875,0.169921875
2023-08-01T16:24:26.940455,0.999999463558197,-0.00043087388621643186,-2.5981240469263867e-05,-0.0009758381056599319,0.0419921875,0.97119140625,0.171875
2023-08-01T16:24:26.942452,0.999999463558197,-0.00043087388621643186,-2.5981240469263867e-05,-0.0009758381056599319,0.0419921875,0.97119140625,0.171875
2023-08-01T16:24:26.942452,0.999999463558197,-0.00043087388621643186,-2.5981240469263867e-05,-0.0009758381056599319,0.0390625,0.9736328125,0.16455078125
2023-08-01T16:24:26.945441,0.999999463558197,-0.0004307866038288921,6.345276779029518e-05,-0.0009758766391314566,0.0390625,0.9736328125,0.16455078125
2023-08-01T16:24:26.945441,0.999999463558197,-0.0004307866038288921,6.345276779029518e-05,-0.0009758766391314566,0.04150390625,0.97265625,0.16064453125
2023-08-01T16:24:26.945441,0.9999994039535522,-0.0005044711870141327,6.352467607939616e-05,-0.0009758719825185835,0.04150390625,0.97265625,0.16064453125
2023-08-01T16:24:26.946949,0.9999994039535522,-0.0005044711870141327,6.352467607939616e-05,-0.0009758719825185835,0.03857421875,0.97021484375,0.15576171875
2023-08-01T16:24:26.947949,0.9999993443489075,-0.0005833629984408617,0.00012145389337092638,-0.0009758961386978626,0.03857421875,0.97021484375,0.15576171875
2023-08-01T16:24:26.952069,0.9999993443489075,-0.0005833629984408617,0.00012145389337092638,-0.0009758961386978626,0.0458984375,0.96826171875,0.16162109375
2023-08-01T16:24:26.953069,0.9999992251396179,-0.0006472809473052621,0.0001214851945405826,-0.0010291500948369503,0.0458984375,0.96826171875,0.16162109375
2023-08-01T16:24:26.969177,0.9999992251396179,-0.0006472809473052621,0.0001214851945405826,-0.0010291500948369503,0.03857421875,0.96826171875,0.17724609375
2023-08-01T16:24:26.970177,0.9999991655349731,-0.000700035598129034,4.277244443073869e-07,-0.0010290653444826603,0.03857421875,0.96826171875,0.17724609375
2023-08-01T16:24:26.971174,0.9999991655349731,-0.000700035598129034,4.277244443073869e-07,-0.0010290653444826603,0.0283203125,0.974609375,0.1787109375
2023-08-01T16:24:26.971174,0.9999991655349731,-0.0007001602207310498,-0.00012068390060449019,-0.0010289805941283703,0.0283203125,0.974609375,0.1787109375
2023-08-01T16:24:26.976160,0.9999991655349731,-0.0007001602207310498,-0.00012068390060449019,-0.0010289805941283703,0.02783203125,0.97705078125,0.1689453125
2023-08-01T16:24:26.977158,0.9999991059303284,-0.0007003018399700522,-0.00026458495995029807,-0.0010821415344253182,0.02783203125,0.97705078125,0.1689453125
2023-08-01T16:24:26.984131,0.9999991059303284,-0.0007003018399700522,-0.00026458495995029807,-0.0010821415344253182,0.02685546875,0.97216796875,0.16650390625
2023-08-01T16:24:26.984131,0.9999991059303284,-0.0007004137150943279,-0.0003679552464745939,-0.0010820691240951419,0.02685546875,0.97216796875,0.16650390625
2023-08-01T16:24:26.995121,0.9999991059303284,-0.0007004137150943279,-0.0003679552464745939,-0.0010820691240951419,0.017578125,0.9716796875,0.16455078125
2023-08-01T16:24:26.995121,0.9999991059303284,-0.0007004137150943279,-0.0003679552464745939,-0.0010820691240951419,0.017578125,0.9716796875,0.16455078125
2023-08-01T16:24:26.996120,0.9999991059303284,-0.0007004137150943279,-0.0003679552464745939,-0.0010820691240951419,0.0205078125,0.9765625,0.1552734375
2023-08-01T16:24:26.997117,0.9999991059303284,-0.0007004137150943279,-0.0003679552464745939,-0.0010820691240951419,0.0205078125,0.9765625,0.1552734375
2023-08-01T16:24:26.997117,0.9999991059303284,-0.0007004137150943279,-0.0003679552464745939,-0.0010820691240951419,0.0234375,0.974609375,0.154296875
2023-08-01T16:24:26.998223,0.9999991655349731,-0.0007004408398643136,-0.00036790361627936363,-0.001008374965749681,0.0234375,0.974609375,0.154296875
2023-08-01T16:24:27.015108,0.9999991655349731,-0.0007004408398643136,-0.00036790361627936363,-0.001008374965749681,0.025390625,0.9716796875,0.1591796875
2023-08-01T16:24:27.016106,0.9999992847442627,-0.0007004795479588211,-0.00036782986717298627,-0.0009030989604070783,0.025390625,0.9716796875,0.1591796875
2023-08-01T16:24:27.016106,0.9999992847442627,-0.0007004795479588211,-0.00036782986717298627,-0.0009030989604070783,0.02294921875,0.978515625,0.166015625
2023-08-01T16:24:27.017104,0.9999994039535522,-0.0007005343795754015,-0.0003677253844216466,-0.000753953936509788,0.02294921875,0.978515625,0.166015625
2023-08-01T16:24:27.018069,0.9999994039535522,-0.0007005343795754015,-0.0003677253844216466,-0.000753953936509788,0.03076171875,0.974609375,0.169921875
2023-08-01T16:24:27.019190,0.9999995231628418,-0.0007005866500549018,-0.0003676258202176541,-0.0006118324236012995,0.03076171875,0.974609375,0.169921875
2023-08-01T16:24:27.020190,0.9999995231628418,-0.0007005866500549018,-0.0003676258202176541,-0.0006118324236012995,0.03369140625,0.9716796875,0.16796875
2023-08-01T16:24:27.020190,0.9999996423721313,-0.0006321993423625827,-0.0003675791958812624,-0.0004854766884818673,0.03369140625,0.9716796875,0.16796875
2023-08-01T16:24:27.023181,0.9999996423721313,-0.0006321993423625827,-0.0003675791958812624,-0.0004854766884818673,0.03759765625,0.96875,0.166015625
2023-08-01T16:24:27.030232,0.9999997019767761,-0.0006322457920759916,-0.00036749933497048914,-0.00035914606996811926,0.03759765625,0.96875,0.166015625
2023-08-01T16:24:27.031231,0.9999997019767761,-0.0006322457920759916,-0.00036749933497048914,-0.00035914606996811926,0.03759765625,0.96875,0.15478515625
2023-08-01T16:24:27.032227,0.9999997615814209,-0.0006322541739791632,-0.0002937963290605694,-0.0002644438645802438,0.03759765625,0.96875,0.15478515625
2023-08-01T16:24:27.032227,0.9999997615814209,-0.0006322541739791632,-0.0002937963290605694,-0.0002644438645802438,0.04052734375,0.97119140625,0.15234375
2023-08-01T16:24:27.034222,0.9999997615814209,-0.0006322742556221783,-0.00029375305166468024,-0.00019601330859586596,0.04052734375,0.97119140625,0.15234375
2023-08-01T16:24:27.036217,0.9999997615814209,-0.0006322742556221783,-0.00029375305166468024,-0.00019601330859586596,0.05029296875,0.9677734375,0.15576171875
2023-08-01T16:24:27.037213,0.9999997615814209,-0.0006322897388599813,-0.00029371975688263774,-0.00014337367611005902,0.05029296875,0.9677734375,0.15576171875
2023-08-01T16:24:27.040057,0.9999997615814209,-0.0006322897388599813,-0.00029371975688263774,-0.00014337367611005902,0.0478515625,0.97119140625,0.158203125
2023-08-01T16:24:27.047031,0.9999997615814209,-0.0006322897388599813,-0.00029371975688263774,-0.00014337367611005902,0.0478515625,0.97119140625,0.158203125
2023-08-01T16:24:27.048080,0.9999997615814209,-0.0006322897388599813,-0.00029371975688263774,-0.00014337367611005902,0.04150390625,0.97119140625,0.16162109375
2023-08-01T16:24:27.054074,0.9999997019767761,-0.0006323123816400766,-0.0004516769549809396,-0.00014327380631584674,0.04150390625,0.97119140625,0.16162109375
2023-08-01T16:24:27.062238,0.9999997019767761,-0.0006323123816400766,-0.0004516769549809396,-0.00014327380631584674,0.044921875,0.96923828125,0.162109375
2023-08-01T16:24:27.085441,0.9999996423721313,-0.0006323365378193557,-0.0006201614160090685,-0.00014316727174445987,0.044921875,0.96923828125,0.162109375
2023-08-01T16:24:27.085441,0.9999996423721313,-0.0006323365378193557,-0.0006201614160090685,-0.00014316727174445987,0.0419921875,0.96923828125,0.16845703125
2023-08-01T16:24:27.087949,0.9999995827674866,-0.0006323523703031242,-0.0007307457854039967,-0.00014309734979178756,0.0419921875,0.96923828125,0.16845703125
2023-08-01T16:24:27.087949,0.9999995827674866,-0.0006323523703031242,-0.0007307457854039967,-0.00014309734979178756,0.0439453125,0.96826171875,0.1708984375
2023-08-01T16:24:27.112018,0.9999995231628418,-0.0006323621491901577,-0.0007992210448719561,-0.00014305404329206795,0.0439453125,0.96826171875,0.1708984375
2023-08-01T16:24:27.113017,0.9999995231628418,-0.0006323621491901577,-0.0007992210448719561,-0.00014305404329206795,0.03369140625,0.96875,0.16455078125
2023-08-01T16:24:27.114013,0.9999995231628418,-0.0006322864210233092,-0.0007992809405550361,-0.00023779641196597368,0.03369140625,0.96875,0.16455078125
2023-08-01T16:24:27.115011,0.9999995231628418,-0.0006322864210233092,-0.0007992809405550361,-0.00023779641196597368,0.02490234375,0.97119140625,0.158203125
2023-08-01T16:24:27.116008,0.999999463558197,-0.0006323077250272036,-0.0008888107258826494,-0.00023773980501573533,0.02490234375,0.97119140625,0.158203125
2023-08-01T16:24:27.117509,0.999999463558197,-0.0006323077250272036,-0.0008888107258826494,-0.00023773980501573533,0.025390625,0.96923828125,0.16162109375
2023-08-01T16:24:27.138071,0.9999994039535522,-0.0006323254783637822,-0.0009634300949983299,-0.00023769262770656496,0.025390625,0.96923828125,0.16162109375
2023-08-01T16:24:27.138574,0.9999994039535522,-0.0006323254783637822,-0.0009634300949983299,-0.00023769262770656496,0.02587890625,0.9736328125,0.16015625
2023-08-01T16:24:27.140572,0.9999993443489075,-0.0006323379930108786,-0.0010161143727600574,-0.00023765931837260723,0.02587890625,0.9736328125,0.16015625
2023-08-01T16:24:27.141569,0.9999993443489075,-0.0006323379930108786,-0.0010161143727600574,-0.00023765931837260723,0.01708984375,0.9775390625,0.15380859375
2023-08-01T16:24:27.142566,0.9999992847442627,-0.000632350507657975,-0.001068798708729446,-0.0002376260090386495,0.01708984375,0.9775390625,0.15380859375
2023-08-01T16:24:27.143565,0.9999992847442627,-0.000632350507657975,-0.001068798708729446,-0.0002376260090386495,0.02587890625,0.97900390625,0.15673828125
2023-08-01T16:24:27.151651,0.9999991655349731,-0.0006324442801997066,-0.0011793430894613266,-0.00017438919167034328,0.02587890625,0.97900390625,0.15673828125
2023-08-01T16:24:27.152648,0.9999991655349731,-0.0006324442801997066,-0.0011793430894613266,-0.00017438919167034328,0.03662109375,0.970703125,0.1669921875
2023-08-01T16:24:27.153666,0.9999991655349731,-0.0006324442801997066,-0.0011793430894613266,-0.00017438919167034328,0.03662109375,0.970703125,0.1669921875
2023-08-01T16:24:27.158651,0.9999991655349731,-0.0006324442801997066,-0.0011793430894613266,-0.00017438919167034328,0.03759765625,0.97021484375,0.16552734375
2023-08-01T16:24:27.159652,0.9999991655349731,-0.0006325133726932108,-0.0011793060693889856,-0.00011579453712329268,0.03759765625,0.97021484375,0.16552734375
2023-08-01T16:24:27.167150,0.9999991655349731,-0.0006325133726932108,-0.0011793060693889856,-0.00011579453712329268,0.02880859375,0.974609375,0.1708984375
2023-08-01T16:24:27.168240,0.9999991655349731,-0.0006325864815153182,-0.00117926683742553,-5.3797411965206265e-05,0.02880859375,0.974609375,0.1708984375
2023-08-01T16:24:27.174322,0.9999991655349731,-0.0006325864815153182,-0.00117926683742553,-5.3797411965206265e-05,0.03076171875,0.9736328125,0.16845703125
2023-08-01T16:24:27.175320,0.9999991059303284,-0.000579396728426218,-0.0011792258592322469,1.5513045582338236e-05,0.03076171875,0.9736328125,0.16845703125
2023-08-01T16:24:27.195876,0.9999991059303284,-0.000579396728426218,-0.0011792258592322469,1.5513045582338236e-05,0.0380859375,0.97607421875,0.15966796875
2023-08-01T16:24:27.196872,0.9999991059303284,-0.0005794650060124695,-0.0011791923316195607,7.341627497226e-05,0.0380859375,0.97607421875,0.15966796875
2023-08-01T16:24:27.198109,0.9999991059303284,-0.0005794650060124695,-0.0011791923316195607,7.341627497226e-05,0.0390625,0.984375,0.1533203125
2023-08-01T16:24:27.198109,0.9999991059303284,-0.0005794650060124695,-0.0011791923316195607,7.341627497226e-05,0.0390625,0.984375,0.1533203125
2023-08-01T16:24:27.204273,0.9999991059303284,-0.0005794650060124695,-0.0011791923316195607,7.341627497226e-05,0.03515625,0.9833984375,0.14599609375
2023-08-01T16:24:27.205271,0.9999991059303284,-0.0005795395118184388,-0.001179155777208507,0.00013658314128406346,0.03515625,0.9833984375,0.14599609375
2023-08-01T16:24:27.247529,0.9999991059303284,-0.0005795395118184388,-0.001179155777208507,0.00013658314128406346,0.0322265625,0.97607421875,0.154296875
2023-08-01T16:24:27.248047,0.9999990463256836,-0.0006381998537108302,-0.0011791267897933722,0.0002004351990763098,0.0322265625,0.97607421875,0.154296875
2023-08-01T16:24:27.249067,0.9999990463256836,-0.0006381998537108302,-0.0011791267897933722,0.0002004351990763098,0.03125,0.97119140625,0.16845703125
2023-08-01T16:24:27.269247,0.9999989867210388,-0.0007106661214493215,-0.0011790621792897582,0.0003243410028517246,0.03125,0.97119140625,0.16845703125
2023-08-01T16:24:27.270248,0.9999989867210388,-0.0007106661214493215,-0.0011790621792897582,0.0003243410028517246,0.0380859375,0.974609375,0.171875
2023-08-01T16:24:27.288012,0.9999989867210388,-0.0007107467972673476,-0.0011790135176852345,0.00039277150062844157,0.0380859375,0.974609375,0.171875
2023-08-01T16:24:27.288012,0.9999989867210388,-0.0007107467972673476,-0.0011790135176852345,0.00039277150062844157,0.03857421875,0.97265625,0.17626953125
2023-08-01T16:24:27.289364,0.9999988675117493,-0.0007108640274964273,-0.001248219283297658,0.000515333260409534,0.03857421875,0.97265625,0.17626953125
2023-08-01T16:24:27.290363,0.9999988675117493,-0.0007108640274964273,-0.001248219283297658,0.000515333260409534,0.041015625,0.97119140625,0.18017578125
2023-08-01T16:24:27.290363,0.9999988675117493,-0.0007108640274964273,-0.001248219283297658,0.000515333260409534,0.041015625,0.97119140625,0.18017578125
2023-08-01T16:24:27.291362,0.9999988675117493,-0.0007108640274964273,-0.001248219283297658,0.000515333260409534,0.04052734375,0.970703125,0.1728515625
2023-08-01T16:24:27.291362,0.9999989867210388,-0.0007109019788913429,-0.001174576231278479,0.0005152809317223728,0.04052734375,0.970703125,0.1728515625
2023-08-01T16:24:27.292359,0.9999989867210388,-0.0007109019788913429,-0.001174576231278479,0.0005152809317223728,0.03662109375,0.97314453125,0.162109375
2023-08-01T16:24:27.293355,0.999998927116394,-0.0007109823636710644,-0.0011745275696739554,0.0005837114294990897,0.03662109375,0.97314453125,0.162109375
2023-08-01T16:24:27.295350,0.999998927116394,-0.0007109823636710644,-0.0011745275696739554,0.0005837114294990897,0.03564453125,0.97119140625,0.15576171875
2023-08-01T16:24:27.295350,0.9999988675117493,-0.0007110936567187309,-0.0011744601652026176,0.0006784601137042046,0.03564453125,0.97119140625,0.15576171875
2023-08-01T16:24:27.319813,0.9999988675117493,-0.0007110936567187309,-0.0011744601652026176,0.0006784601137042046,0.033203125,0.97216796875,0.150390625
2023-08-01T16:24:27.320810,0.9999986886978149,-0.0007111016311682761,-0.0012902556918561459,0.000752236635889858,0.033203125,0.97216796875,0.150390625
2023-08-01T16:24:27.345385,0.9999986886978149,-0.0007111016311682761,-0.0012902556918561459,0.000752236635889858,0.03271484375,0.974609375,0.150390625
2023-08-01T16:24:27.346891,0.9999983906745911,-0.0007110892329365015,-0.001469199894927442,0.0008471126202493906,0.03271484375,0.974609375,0.150390625
2023-08-01T16:24:27.347893,0.9999983906745911,-0.0007110892329365015,-0.001469199894927442,0.0008471126202493906,0.03662109375,0.962890625,0.1640625
2023-08-01T16:24:27.347893,0.9999979138374329,-0.0007111079175956547,-0.0016502654179930687,0.0009644273086450994,0.03662109375,0.962890625,0.1640625
2023-08-01T16:24:27.348921,0.9999979138374329,-0.0007111079175956547,-0.0016502654179930687,0.0009644273086450994,0.03076171875,0.96337890625,0.17626953125
2023-08-01T16:24:27.349919,0.9999977350234985,-0.0007111345184966922,-0.0017397464253008366,0.0010329213691875339,0.03076171875,0.96337890625,0.17626953125
2023-08-01T16:24:27.367021,0.9999977350234985,-0.0007111345184966922,-0.0017397464253008366,0.0010329213691875339,0.0283203125,0.96533203125,0.1728515625
2023-08-01T16:24:27.367021,0.9999976754188538,-0.0007112535531632602,-0.001739697763696313,0.0011013518087565899,0.0283203125,0.96533203125,0.1728515625
2023-08-01T16:24:27.368021,0.9999976754188538,-0.0007112535531632602,-0.001739697763696313,0.0011013518087565899,0.0380859375,0.9619140625,0.16259765625
2023-08-01T16:24:27.368524,0.9999977946281433,-0.0007114702020771801,-0.0016344317700713873,0.0011591800721362233,0.0380859375,0.9619140625,0.16259765625
2023-08-01T16:24:27.368524,0.9999977946281433,-0.0007114702020771801,-0.0016344317700713873,0.0011591800721362233,0.03759765625,0.96484375,0.15380859375
2023-08-01T16:24:27.369524,0.9999980330467224,-0.0007116470951586962,-0.0014818343333899975,0.0011590714566409588,0.03759765625,0.96484375,0.15380859375
2023-08-01T16:24:27.369524,0.9999980330467224,-0.0007116470951586962,-0.0014818343333899975,0.0011590714566409588,0.0322265625,0.96875,0.15234375
2023-08-01T16:24:27.370521,0.999998152256012,-0.0007117202621884644,-0.0014187186025083065,0.0011590265203267336,0.0322265625,0.96875,0.15234375
2023-08-01T16:24:27.375509,0.999998152256012,-0.0007117202621884644,-0.0014187186025083065,0.0011590265203267336,0.03173828125,0.970703125,0.15185546875
2023-08-01T16:24:27.378021,0.9999979734420776,-0.0007118023349903524,-0.001418677275069058,0.00121692952234298,0.03173828125,0.970703125,0.15185546875
2023-08-01T16:24:27.384050,0.9999979734420776,-0.0007118023349903524,-0.001418677275069058,0.00121692952234298,0.033203125,0.97412109375,0.15234375
2023-08-01T16:24:27.384050,0.9999978542327881,-0.0007809752714820206,-0.00147207488771528,0.0012168692192062736,0.033203125,0.97412109375,0.15234375
2023-08-01T16:24:27.391753,0.9999978542327881,-0.0007809752714820206,-0.00147207488771528,0.0012168692192062736,0.03955078125,0.97265625,0.16064453125
2023-08-01T16:24:27.391753,0.999997615814209,-0.0008967822068370879,-0.0015248588752001524,0.001269379397854209,0.03955078125,0.97265625,0.16064453125
2023-08-01T16:24:27.406857,0.999997615814209,-0.0008967822068370879,-0.0015248588752001524,0.001269379397854209,0.0478515625,0.96875,0.17041015625
2023-08-01T16:24:27.406857,0.9999975562095642,-0.0009494121186435223,-0.001524925697594881,0.0012692991876974702,0.0478515625,0.96875,0.17041015625
2023-08-01T16:24:27.414228,0.9999975562095642,-0.0009494121186435223,-0.001524925697594881,0.0012692991876974702,0.0439453125,0.97607421875,0.17041015625
2023-08-01T16:24:27.414228,0.9999974966049194,-0.0010020420886576176,-0.0015249925199896097,0.0012692189775407314,0.0439453125,0.97607421875,0.17041015625
2023-08-01T16:24:27.421438,0.9999974966049194,-0.0010020420886576176,-0.0015249925199896097,0.0012692189775407314,0.04248046875,0.97265625,0.166015625
2023-08-01T16:24:27.423435,0.9999974370002747,-0.001065199263393879,-0.0015250727301463485,0.0012691227020695806,0.04248046875,0.97265625,0.166015625
2023-08-01T16:24:27.436002,0.9999974370002747,-0.001065199263393879,-0.0015250727301463485,0.0012691227020695806,0.04541015625,0.974609375,0.16259765625
2023-08-01T16:24:27.437000,0.9999977946281433,-0.0010652645723894238,-0.0013725650496780872,0.0011847452260553837,0.04541015625,0.974609375,0.16259765625
2023-08-01T16:24:27.443848,0.9999977946281433,-0.0010652645723894238,-0.0013725650496780872,0.0011847452260553837,0.04345703125,0.9765625,0.15576171875
2023-08-01T16:24:27.444846,0.9999980926513672,-0.0010652946075424552,-0.0012253433233126998,0.0010793188121169806,0.04345703125,0.9765625,0.15576171875
2023-08-01T16:24:27.451443,0.9999980926513672,-0.0010652946075424552,-0.0012253433233126998,0.0010793188121169806,0.0390625,0.97607421875,0.15869140625
2023-08-01T16:24:27.452441,0.9999980926513672,-0.0010652946075424552,-0.0012253433233126998,0.0010793188121169806,0.0390625,0.97607421875,0.15869140625
2023-08-01T16:24:27.466444,0.9999980926513672,-0.0010652946075424552,-0.0012253433233126998,0.0010793188121169806,0.0341796875,0.966796875,0.17138671875
2023-08-01T16:24:27.474446,0.9999979734420776,-0.001065214048139751,-0.0012999626342207193,0.0010793983237817883,0.0341796875,0.966796875,0.17138671875
2023-08-01T16:24:27.481445,0.9999979734420776,-0.001065214048139751,-0.0012999626342207193,0.0010793983237817883,0.0322265625,0.96728515625,0.171875
2023-08-01T16:24:27.482444,0.9999978542327881,-0.001065135933458805,-0.00137233582790941,0.0010794753907248378,0.0322265625,0.96728515625,0.171875
2023-08-01T16:24:27.482444,0.9999978542327881,-0.001065135933458805,-0.00137233582790941,0.0010794753907248378,0.02978515625,0.97265625,0.1689453125
2023-08-01T16:24:27.483440,0.9999978542327881,-0.001065135933458805,-0.00137233582790941,0.0010794753907248378,0.02978515625,0.97265625,0.1689453125
2023-08-01T16:24:27.496959,0.9999978542327881,-0.001065135933458805,-0.00137233582790941,0.0010794753907248378,0.0302734375,0.97314453125,0.16796875
2023-08-01T16:24:27.496959,0.9999978542327881,-0.001065135933458805,-0.00137233582790941,0.0010794753907248378,0.0302734375,0.97314453125,0.16796875
2023-08-01T16:24:27.504295,0.9999978542327881,-0.001065135933458805,-0.00137233582790941,0.0010794753907248378,0.0283203125,0.97216796875,0.16845703125
2023-08-01T16:24:27.504295,0.9999979138374329,-0.0010083019733428955,-0.0013722744770348072,0.0010795533889904618,0.0283203125,0.97216796875,0.16845703125
2023-08-01T16:24:27.511846,0.9999979138374329,-0.0010083019733428955,-0.0013722744770348072,0.0010795533889904618,0.0341796875,0.97216796875,0.16943359375
2023-08-01T16:24:27.511846,0.9999979734420776,-0.000939051213208586,-0.0013721997383981943,0.0010796483838930726,0.0341796875,0.97216796875,0.16943359375
2023-08-01T16:24:27.526284,0.9999979734420776,-0.000939051213208586,-0.0013721997383981943,0.0010796483838930726,0.0283203125,0.9716796875,0.16552734375
2023-08-01T16:24:27.527281,0.9999982118606567,-0.0008496199152432382,-0.0013195148203521967,0.0010797219583764672,0.0283203125,0.9716796875,0.16552734375
2023-08-01T16:24:27.533791,0.9999982118606567,-0.0008496199152432382,-0.0013195148203521967,0.0010797219583764672,0.02587890625,0.9736328125,0.15966796875
2023-08-01T16:24:27.534789,0.9999982714653015,-0.0007811862742528319,-0.0013194408966228366,0.001079812296666205,0.02587890625,0.9736328125,0.15966796875
2023-08-01T16:24:27.541350,0.9999982714653015,-0.0007811862742528319,-0.0013194408966228366,0.001079812296666205,0.03125,0.974609375,0.15283203125
2023-08-01T16:24:27.541350,0.9999982714653015,-0.0007286129985004663,-0.0013193429913371801,0.0011325213126838207,0.03125,0.974609375,0.15283203125
2023-08-01T16:24:27.548352,0.9999982714653015,-0.0007286129985004663,-0.0013193429913371801,0.0011325213126838207,0.04248046875,0.96923828125,0.1533203125
2023-08-01T16:24:27.555335,0.9999982118606567,-0.0007286893669515848,-0.0013193008489906788,0.0011904245475307107,0.04248046875,0.96923828125,0.1533203125
2023-08-01T16:24:27.563914,0.9999982118606567,-0.0007286893669515848,-0.0013193008489906788,0.0011904245475307107,0.0439453125,0.96484375,0.16455078125
2023-08-01T16:24:27.563914,0.9999982714653015,-0.0007288401830010116,-0.0012508832151070237,0.0012430142378434539,0.0439453125,0.96484375,0.16455078125
2023-08-01T16:24:27.570940,0.9999982714653015,-0.0007288401830010116,-0.0012508832151070237,0.0012430142378434539,0.041015625,0.96240234375,0.16943359375
2023-08-01T16:24:27.571938,0.9999984502792358,-0.0007290298817679286,-0.001098285662010312,0.0012429030612111092,0.041015625,0.96240234375,0.16943359375
2023-08-01T16:24:27.578974,0.9999984502792358,-0.0007290298817679286,-0.001098285662010312,0.0012429030612111092,0.04345703125,0.96630859375,0.1630859375
2023-08-01T16:24:27.578974,0.9999984502792358,-0.0007291606161743402,-0.0009930606465786695,0.0012428262270987034,0.04345703125,0.96630859375,0.1630859375
2023-08-01T16:24:27.593998,0.9999984502792358,-0.0007291606161743402,-0.0009930606465786695,0.0012428262270987034,0.04248046875,0.970703125,0.15625
2023-08-01T16:24:27.594997,0.9999985694885254,-0.0007292929803952575,-0.0008865793352015316,0.0012427485780790448,0.04248046875,0.970703125,0.15625
2023-08-01T16:24:27.601206,0.9999985694885254,-0.0007292929803952575,-0.0008865793352015316,0.0012427485780790448,0.0361328125,0.974609375,0.1494140625
2023-08-01T16:24:27.602203,0.9999986886978149,-0.0007293088710866868,-0.0008287732489407063,0.001179546001367271,0.0361328125,0.974609375,0.1494140625
2023-08-01T16:24:27.615744,0.9999986886978149,-0.0007293088710866868,-0.0008287732489407063,0.001179546001367271,0.03369140625,0.97314453125,0.1591796875
2023-08-01T16:24:27.617250,0.9999986886978149,-0.0007293088710866868,-0.0008287732489407063,0.001179546001367271,0.03369140625,0.97314453125,0.1591796875
2023-08-01T16:24:27.623946,0.9999986886978149,-0.0007293088710866868,-0.0008287732489407063,0.001179546001367271,0.0380859375,0.966796875,0.17041015625
2023-08-01T16:24:27.624943,0.9999986886978149,-0.0007293088710866868,-0.0008287732489407063,0.001179546001367271,0.0380859375,0.966796875,0.17041015625
2023-08-01T16:24:27.630946,0.9999986886978149,-0.0007293088710866868,-0.0008287732489407063,0.001179546001367271,0.037109375,0.96484375,0.1708984375
2023-08-01T16:24:27.631944,0.9999988675117493,-0.0007293259259313345,-0.0007551916060037911,0.0010952772572636604,0.037109375,0.96484375,0.1708984375
2023-08-01T16:24:27.639024,0.9999988675117493,-0.0007293259259313345,-0.0007551916060037911,0.0010952772572636604,0.0302734375,0.96923828125,0.16552734375
2023-08-01T16:24:27.639943,0.9999988675117493,-0.0007293259259313345,-0.0007551916060037911,0.0010952772572636604,0.0302734375,0.96923828125,0.16552734375
2023-08-01T16:24:27.654920,0.9999988675117493,-0.0007293259259313345,-0.0007551916060037911,0.0010952772572636604,0.03125,0.97119140625,0.162109375
2023-08-01T16:24:27.655917,0.9999990463256836,-0.0007293373346328735,-0.0006860578432679176,0.0010100060608237982,0.03125,0.97119140625,0.162109375
2023-08-01T16:24:27.661639,0.9999990463256836,-0.0007293373346328735,-0.0006860578432679176,0.0010100060608237982,0.03076171875,0.97119140625,0.1650390625
2023-08-01T16:24:27.662635,0.9999991059303284,-0.0006345854490064085,-0.0006859621498733759,0.0010100710205733776,0.03076171875,0.97119140625,0.1650390625
2023-08-01T16:24:27.669194,0.9999991059303284,-0.0006345854490064085,-0.0006859621498733759,0.0010100710205733776,0.033203125,0.96875,0.1640625
2023-08-01T16:24:27.676174,0.9999991655349731,-0.0005450971657410264,-0.0006858717533759773,0.0010101323714479804,0.033203125,0.96875,0.1640625
2023-08-01T16:24:27.683362,0.9999991655349731,-0.0005450971657410264,-0.0006858717533759773,0.0010101323714479804,0.03271484375,0.966796875,0.16064453125
2023-08-01T16:24:27.684362,0.9999991655349731,-0.00043445860501378775,-0.0007805535569787025,0.001010259846225381,0.03271484375,0.966796875,0.16064453125
2023-08-01T16:24:27.691897,0.9999991655349731,-0.00043445860501378775,-0.0007805535569787025,0.001010259846225381,0.0390625,0.966796875,0.16162109375
2023-08-01T16:24:27.706901,0.9999991059303284,-0.0003502339532133192,-0.0007804683409631252,0.0010103255044668913,0.0390625,0.966796875,0.16162109375
2023-08-01T16:24:27.714103,0.9999991059303284,-0.0003502339532133192,-0.0007804683409631252,0.0010103255044668913,0.0478515625,0.96728515625,0.15966796875
2023-08-01T16:24:27.714103,0.9999991655349731,-0.00024495477555319667,-0.0007803619955666363,0.001010407693684101,0.0478515625,0.96728515625,0.15966796875
2023-08-01T16:24:27.715102,0.9999991655349731,-0.00024495477555319667,-0.0007803619955666363,0.001010407693684101,0.0439453125,0.96826171875,0.1591796875
2023-08-01T16:24:27.720994,0.9999992251396179,-0.00014382024528458714,-0.0007057372713461518,0.001010468346066773,0.0439453125,0.96826171875,0.1591796875
2023-08-01T16:24:27.721994,0.9999992251396179,-0.00014382024528458714,-0.0007057372713461518,0.001010468346066773,0.044921875,0.97265625,0.15087890625
2023-08-01T16:24:27.721994,0.9999994039535522,-0.00014387727424036711,-0.0005794721655547619,0.0009104441851377487,0.044921875,0.97265625,0.15087890625
2023-08-01T16:24:27.728943,0.9999994039535522,-0.00014387727424036711,-0.0005794721655547619,0.0009104441851377487,0.041015625,0.97509765625,0.14599609375
2023-08-01T16:24:27.729670,0.9999995231628418,-0.00014381017535924911,-0.0005794888129457831,0.0007946472615003586,0.041015625,0.97509765625,0.14599609375
2023-08-01T16:24:27.743652,0.9999995231628418,-0.00014381017535924911,-0.0005794888129457831,0.0007946472615003586,0.0458984375,0.96728515625,0.1484375
2023-08-01T16:24:27.744649,0.9999995827674866,-0.00014376136823557317,-0.0005795009201392531,0.0007104321848601103,0.0458984375,0.96728515625,0.1484375
2023-08-01T16:24:27.751653,0.9999995827674866,-0.00014376136823557317,-0.0005795009201392531,0.0007104321848601103,0.046875,0.96630859375,0.154296875
2023-08-01T16:24:27.751653,0.9999997019767761,-0.00014366071263793856,-0.000579525891225785,0.0005367351695895195,0.046875,0.96630859375,0.154296875
2023-08-01T16:24:27.766667,0.9999997019767761,-0.00014366071263793856,-0.000579525891225785,0.0005367351695895195,0.03125,0.9677734375,0.16162109375
2023-08-01T16:24:27.774270,0.9999997615814209,-0.00014359359920490533,-0.0005795425386168063,0.0004209382168482989,0.03125,0.9677734375,0.16162109375
2023-08-01T16:24:27.774270,0.9999997615814209,-0.00014359359920490533,-0.0005795425386168063,0.0004209382168482989,0.02734375,0.9716796875,0.16845703125
2023-08-01T16:24:27.775268,0.9999998211860657,-0.00014353259757626802,-0.0005795576726086438,0.0003156685270369053,0.02734375,0.9716796875,0.16845703125
2023-08-01T16:24:27.781094,0.9999998211860657,-0.00014353259757626802,-0.0005795576726086438,0.0003156685270369053,0.0283203125,0.97216796875,0.1689453125
2023-08-01T16:24:27.782090,0.9999999403953552,-9.084258635994047e-05,-0.0005164418835192919,0.00019989299471490085,0.0283203125,0.97216796875,0.1689453125
2023-08-01T16:24:27.789159,0.9999999403953552,-9.084258635994047e-05,-0.0005164418835192919,0.00019989299471490085,0.02734375,0.974609375,0.162109375
2023-08-01T16:24:27.790160,0.9999999403953552,-3.2216783438343555e-05,-0.00046322046546265483,0.00012535070709418505,0.02734375,0.974609375,0.162109375
2023-08-01T16:24:27.804162,0.9999999403953552,-3.2216783438343555e-05,-0.00046322046546265483,0.00012535070709418505,0.0263671875,0.97216796875,0.15966796875
2023-08-01T16:24:27.804162,0.9999999403953552,-3.222469604224898e-05,-0.000400104618165642,0.00012534866982605308,0.0263671875,0.97216796875,0.15966796875
2023-08-01T16:24:27.810885,0.9999999403953552,-3.222469604224898e-05,-0.000400104618165642,0.00012534866982605308,0.0244140625,0.97265625,0.15576171875
2023-08-01T16:24:27.811882,0.9999999403953552,-3.223326712031849e-05,-0.00033172513940371573,0.0001253464724868536,0.0244140625,0.97265625,0.15576171875
2023-08-01T16:24:27.818921,0.9999999403953552,-3.223326712031849e-05,-0.00033172513940371573,0.0001253464724868536,0.0263671875,0.97802734375,0.154296875
2023-08-01T16:24:27.818921,0.9999999403953552,-3.224117972422391e-05,-0.0002686092921067029,0.00012534443521872163,0.0263671875,0.97802734375,0.154296875
2023-08-01T16:24:27.825901,0.9999999403953552,-3.224117972422391e-05,-0.0002686092921067029,0.00012534443521872163,0.03271484375,0.974609375,0.1650390625
2023-08-01T16:24:27.833449,0.9999999403953552,-3.2262389140669256e-05,-0.0002686067600734532,0.00020430228323675692,0.03271484375,0.974609375,0.1650390625
2023-08-01T16:24:27.840825,0.9999999403953552,-3.2262389140669256e-05,-0.0002686067600734532,0.00020430228323675692,0.04443359375,0.97705078125,0.16796875
2023-08-01T16:24:27.848898,0.9999999403953552,-3.2262389140669256e-05,-0.0002686067600734532,0.00020430228323675692,0.04443359375,0.97705078125,0.16796875
2023-08-01T16:24:27.849896,0.9999999403953552,-3.2262389140669256e-05,-0.0002686067600734532,0.00020430228323675692,0.0439453125,0.98046875,0.1611328125
2023-08-01T16:24:27.849896,0.9999999403953552,-3.227850902476348e-05,-0.00018969998927786946,0.00020429973665159196,0.0439453125,0.98046875,0.1611328125
2023-08-01T16:24:27.863932,0.9999999403953552,-3.227850902476348e-05,-0.00018969998927786946,0.00020429973665159196,0.0458984375,0.9794921875,0.1611328125
2023-08-01T16:24:27.863932,0.9999999403953552,2.097987089655362e-05,-0.00012581961345858872,0.00020430776930879802,0.0458984375,0.9794921875,0.1611328125
2023-08-01T16:24:27.879176,0.9999999403953552,2.097987089655362e-05,-0.00012581961345858872,0.00020430776930879802,0.04443359375,0.9755859375,0.17041015625
2023-08-01T16:24:27.879176,0.9999999403953552,0.00011570970673346892,2.1535204723477364e-05,0.00014116223610471934,0.04443359375,0.9755859375,0.17041015625
2023-08-01T16:24:27.880181,0.9999999403953552,0.00011570970673346892,2.1535204723477364e-05,0.00014116223610471934,0.03759765625,0.97119140625,0.1669921875
2023-08-01T16:24:27.886177,0.9999999403953552,0.00018412998178973794,0.00010572381142992526,6.74826733302325e-05,0.03759765625,0.97119140625,0.1669921875
2023-08-01T16:24:27.887185,0.9999999403953552,0.00018412998178973794,0.00010572381142992526,6.74826733302325e-05,0.0419921875,0.97021484375,0.1591796875
2023-08-01T16:24:27.887692,0.9999999403953552,0.00024729451979510486,0.00010573776671662927,1.4842746168142185e-05,0.0419921875,0.97021484375,0.1591796875
2023-08-01T16:24:27.901735,0.9999999403953552,0.00024729451979510486,0.00010573776671662927,1.4842746168142185e-05,0.04638671875,0.9716796875,0.15771484375
2023-08-01T16:24:27.908752,0.9999999403953552,0.00024728840799070895,0.00010575208580121398,-4.305414768168703e-05,0.04638671875,0.9716796875,0.15771484375
2023-08-01T16:24:27.909749,0.9999999403953552,0.00024728840799070895,0.00010575208580121398,-4.305414768168703e-05,0.037109375,0.9775390625,0.158203125
2023-08-01T16:24:27.909749,0.9999999403953552,0.0002472795022185892,0.00010577290959190577,-0.00012726927525363863,0.037109375,0.9775390625,0.158203125
2023-08-01T16:24:27.915751,0.9999999403953552,0.0002472795022185892,0.00010577290959190577,-0.00012726927525363863,0.02880859375,0.97802734375,0.15869140625
2023-08-01T16:24:27.917259,0.9999999403953552,0.0002472795022185892,0.00010577290959190577,-0.00012726927525363863,0.02880859375,0.97802734375,0.15869140625
2023-08-01T16:24:27.930932,0.9999999403953552,0.0002472795022185892,0.00010577290959190577,-0.00012726927525363863,0.03515625,0.97216796875,0.1650390625
2023-08-01T16:24:27.931929,0.9999999403953552,0.0003005509206559509,0.00010576612839940935,-0.000127274906844832,0.03515625,0.97216796875,0.1650390625
2023-08-01T16:24:27.939464,0.9999999403953552,0.0003005509206559509,0.00010576612839940935,-0.000127274906844832,0.03369140625,0.9716796875,0.1640625
2023-08-01T16:24:27.939464,0.9999999403953552,0.0003637210465967655,0.00010575808846624568,-0.00012728158617392182,0.03369140625,0.9716796875,0.1640625
2023-08-01T16:24:27.945455,0.9999999403953552,0.0003637210465967655,0.00010575808846624568,-0.00012728158617392182,0.029296875,0.97509765625,0.15234375
2023-08-01T16:24:27.946961,0.9999999403953552,0.0003637210465967655,0.00010575808846624568,-0.00012728158617392182,0.029296875,0.97509765625,0.15234375
2023-08-01T16:24:27.961329,0.9999999403953552,0.0003637210465967655,0.00010575808846624568,-0.00012728158617392182,0.033203125,0.97119140625,0.154296875
2023-08-01T16:24:27.962336,0.9999999403953552,0.00036372774047777057,0.00015834663645364344,-0.00012726246495731175,0.033203125,0.97119140625,0.154296875
2023-08-01T16:24:27.969356,0.9999999403953552,0.00036372774047777057,0.00015834663645364344,-0.00012726246495731175,0.0341796875,0.9755859375,0.1572265625
2023-08-01T16:24:27.969356,0.9999999403953552,0.0004216462548356503,0.00025303696747869253,-0.00012723718828056008,0.0341796875,0.9755859375,0.1572265625
2023-08-01T16:24:27.976337,0.9999999403953552,0.0004216462548356503,0.00025303696747869253,-0.00012723718828056008,0.025390625,0.9765625,0.1572265625
2023-08-01T16:24:27.977334,0.9999999403953552,0.0004216692177578807,0.00030622651684097946,-6.329355528578162e-05,0.025390625,0.9765625,0.1572265625
2023-08-01T16:24:27.999189,0.9999999403953552,0.0004216692177578807,0.00030622651684097946,-6.329355528578162e-05,0.033203125,0.97119140625,0.154296875
2023-08-01T16:24:27.999189,0.9999999403953552,0.0004216692177578807,0.00030622651684097946,-6.329355528578162e-05,0.033203125,0.97119140625,0.154296875
2023-08-01T16:24:28.000195,0.9999999403953552,0.0004216692177578807,0.00030622651684097946,-6.329355528578162e-05,0.03759765625,0.970703125,0.15234375
2023-08-01T16:24:28.005611,0.9999997615814209,0.00048560131108388305,0.0004286833864171058,-6.32614828646183e-05,0.03759765625,0.970703125,0.15234375
2023-08-01T16:24:28.007117,0.9999997615814209,0.00048560131108388305,0.0004286833864171058,-6.32614828646183e-05,0.03662109375,0.97119140625,0.150390625
2023-08-01T16:24:28.013611,0.9999997019767761,0.0005435164202935994,0.0005654865526594222,-6.321987166302279e-05,0.03662109375,0.97119140625,0.150390625
2023-08-01T16:24:28.021190,0.9999997019767761,0.0005435164202935994,0.0005654865526594222,-6.321987166302279e-05,0.0380859375,0.9716796875,0.1474609375
2023-08-01T16:24:28.022187,0.9999995827674866,0.0005435278872027993,0.0007465389790013433,-6.312146433629096e-05,0.0380859375,0.9716796875,0.1474609375
2023-08-01T16:24:28.029321,0.9999995827674866,0.0005435278872027993,0.0007465389790013433,-6.312146433629096e-05,0.02685546875,0.96337890625,0.1552734375
2023-08-01T16:24:28.030132,0.9999993443489075,0.0006004300666972995,0.0009685942786745727,9.28631197893992e-06,0.02685546875,0.96337890625,0.1552734375
2023-08-01T16:24:28.036116,0.9999993443489075,0.0006004300666972995,0.0009685942786745727,9.28631197893992e-06,0.0341796875,0.96728515625,0.16455078125
2023-08-01T16:24:28.037113,0.9999992251396179,0.0006004950846545398,0.0011053599882870913,7.779899169690907e-05,0.0341796875,0.96728515625,0.16455078125
2023-08-01T16:24:28.052193,0.9999992251396179,0.0006004950846545398,0.0011053599882870913,7.779899169690907e-05,0.03857421875,0.97119140625,0.1650390625
2023-08-01T16:24:28.052193,0.9999989867210388,0.0006005483446642756,0.001328985788859427,0.00014185445616021752,0.03857421875,0.97119140625,0.1650390625
2023-08-01T16:24:28.059129,0.9999989867210388,0.0006005483446642756,0.001328985788859427,0.00014185445616021752,0.04150390625,0.97412109375,0.1611328125
2023-08-01T16:24:28.059129,0.9999987483024597,0.00060052121989429,0.0015200868947431445,0.00014196922711562365,0.04150390625,0.97412109375,0.1611328125
2023-08-01T16:24:28.066113,0.9999987483024597,0.00060052121989429,0.0015200868947431445,0.00014196922711562365,0.0517578125,0.9755859375,0.17041015625
2023-08-01T16:24:28.067110,0.9999983310699463,0.00068572728196159,0.0016904979711398482,0.00014194198593031615,0.0517578125,0.9755859375,0.17041015625
2023-08-01T16:24:28.081128,0.9999983310699463,0.00068572728196159,0.0016904979711398482,0.00014194198593031615,0.05078125,0.97412109375,0.18359375
2023-08-01T16:24:28.082126,0.9999979734420776,0.0008277048473246396,0.0018484297906979918,6.812225910834968e-05,0.05078125,0.97412109375,0.18359375
2023-08-01T16:24:28.089173,0.9999979734420776,0.0008277048473246396,0.0018484297906979918,6.812225910834968e-05,0.0419921875,0.974609375,0.1826171875
2023-08-01T16:24:28.089173,0.9999978542327881,0.0009696444612927735,0.0018485222244635224,-3.2146293960977346e-05,0.0419921875,0.974609375,0.1826171875
2023-08-01T16:24:28.096102,0.9999978542327881,0.0009696444612927735,0.0018485222244635224,-3.2146293960977346e-05,0.04150390625,0.9736328125,0.1748046875
2023-08-01T16:24:28.097100,0.9999978542327881,0.0010747364722192287,0.0017801406793296337,-0.00013241314445622265,0.04150390625,0.9736328125,0.1748046875
2023-08-01T16:24:28.104495,0.9999978542327881,0.0010747364722192287,0.0017801406793296337,-0.00013241314445622265,0.04296875,0.97021484375,0.1728515625
2023-08-01T16:24:28.112493,0.9999977350234985,0.0012007616460323334,0.0017170931678265333,-0.0003011390217579901,0.04296875,0.97021484375,0.1728515625
2023-08-01T16:24:28.119499,0.9999977350234985,0.0012007616460323334,0.0017170931678265333,-0.0003011390217579901,0.03466796875,0.96875,0.1728515625
2023-08-01T16:24:28.119499,0.9999974966049194,0.001358415000140667,0.0017172289080917835,-0.0004540523514151573,0.03466796875,0.96875,0.1728515625
2023-08-01T16:24:28.126990,0.9999974966049194,0.001358415000140667,0.0017172289080917835,-0.0004540523514151573,0.0283203125,0.97021484375,0.1669921875
2023-08-01T16:24:28.126990,0.9999975562095642,0.0014370492426678538,0.0015752344625070691,-0.000607023190241307,0.0283203125,0.97021484375,0.1669921875
2023-08-01T16:24:28.134483,0.9999975562095642,0.0014370492426678538,0.0015752344625070691,-0.000607023190241307,0.025390625,0.97265625,0.15478515625
2023-08-01T16:24:28.141482,0.9999977946281433,0.0014366789255291224,0.0013250401243567467,-0.0007458683103322983,0.025390625,0.97265625,0.15478515625
2023-08-01T16:24:28.149480,0.9999977946281433,0.0014366789255291224,0.0013250401243567467,-0.0007458683103322983,0.02490234375,0.97509765625,0.1513671875
2023-08-01T16:24:28.149480,0.9999982118606567,0.0014362777583301067,0.0009461392182856798,-0.0008358914055861533,0.02490234375,0.97509765625,0.1513671875
2023-08-01T16:24:28.155463,0.9999982118606567,0.0014362777583301067,0.0009461392182856798,-0.0008358914055861533,0.02783203125,0.9755859375,0.15771484375
2023-08-01T16:24:28.163978,0.9999984502792358,0.0014359476044774055,0.0005513185751624405,-0.0008364583482034504,0.02783203125,0.9755859375,0.15771484375
2023-08-01T16:24:28.164975,0.9999984502792358,0.0014359476044774055,0.0005513185751624405,-0.0008364583482034504,0.029296875,0.97900390625,0.1572265625
2023-08-01T16:24:28.164975,0.9999984502792358,0.001530376961454749,0.00020387458789628,-0.0008949062903411686,0.029296875,0.97900390625,0.1572265625
2023-08-01T16:24:28.178214,0.9999984502792358,0.001530376961454749,0.00020387458789628,-0.0008949062903411686,0.02099609375,0.982421875,0.150390625
2023-08-01T16:24:28.188932,0.9999982118606567,0.0016195715870708227,-0.000111990979348775,-0.0009480409789830446,0.02099609375,0.982421875,0.150390625
2023-08-01T16:24:28.188932,0.9999982118606567,0.0016195715870708227,-0.000111990979348775,-0.0009480409789830446,0.0244140625,0.97314453125,0.1455078125
2023-08-01T16:24:28.189929,0.9999979734420776,0.0017246592324227095,-0.00032256473787128925,-0.0010220579570159316,0.0244140625,0.97314453125,0.1455078125
2023-08-01T16:24:28.194915,0.9999979734420776,0.0017246592324227095,-0.00032256473787128925,-0.0010220579570159316,0.02734375,0.96923828125,0.1435546875
2023-08-01T16:24:28.194915,0.9999977350234985,0.001787787419743836,-0.00040142290527001023,-0.0011432341998443007,0.02734375,0.96923828125,0.1435546875
2023-08-01T16:24:28.208133,0.9999977350234985,0.001787787419743836,-0.00040142290527001023,-0.0011432341998443007,0.0205078125,0.96337890625,0.13330078125
2023-08-01T16:24:28.209432,0.9999971985816956,0.0018836543895304203,-0.0004599436651915312,-0.0012711326126009226,0.0205078125,0.96337890625,0.13330078125
2023-08-01T16:24:28.215415,0.9999971985816956,0.0018836543895304203,-0.0004599436651915312,-0.0012711326126009226,0.02490234375,0.9599609375,0.1279296875
2023-08-01T16:24:28.216922,0.9999969601631165,0.0019782825838774443,-0.0005915243527851999,-0.001366079319268465,0.02490234375,0.9599609375,0.1279296875
2023-08-01T16:24:28.224415,0.9999969601631165,0.0019782825838774443,-0.0005915243527851999,-0.001366079319268465,0.02587890625,0.9619140625,0.1279296875
2023-08-01T16:24:28.225412,0.9999964237213135,0.0020359850022941828,-0.0008019152446649969,-0.0015085763297975063,0.02587890625,0.9619140625,0.1279296875
2023-08-01T16:24:28.239083,0.9999964237213135,0.0020359850022941828,-0.0008019152446649969,-0.0015085763297975063,0.0224609375,0.9609375,0.13427734375
2023-08-01T16:24:28.240105,0.9999959468841553,0.0021094437688589096,-0.0010019313776865602,-0.0015878757694736123,0.0224609375,0.9609375,0.13427734375
2023-08-01T16:24:28.248094,0.9999959468841553,0.0021094437688589096,-0.0010019313776865602,-0.0015878757694736123,0.03173828125,0.96533203125,0.13427734375
2023-08-01T16:24:28.249309,0.9999954700469971,0.002209409372881055,-0.0011229017982259393,-0.001730145886540413,0.03173828125,0.96533203125,0.13427734375
2023-08-01T16:24:28.254299,0.9999954700469971,0.002209409372881055,-0.0011229017982259393,-0.001730145886540413,0.0263671875,0.9677734375,0.13720703125
2023-08-01T16:24:28.255296,0.9999949336051941,0.0023108101449906826,-0.0011227002833038568,-0.0019004761707037687,0.0263671875,0.9677734375,0.13720703125
2023-08-01T16:24:28.270820,0.9999949336051941,0.0023108101449906826,-0.0011227002833038568,-0.0019004761707037687,0.02099609375,0.96630859375,0.1376953125
2023-08-01T16:24:28.271818,0.9999945759773254,0.0024196843151003122,-0.0009935252601280808,-0.00201887427829206,0.02099609375,0.96630859375,0.1376953125
2023-08-01T16:24:28.279013,0.9999945759773254,0.0024196843151003122,-0.0009935252601280808,-0.00201887427829206,0.03076171875,0.96826171875,0.130859375
2023-08-01T16:24:28.285858,0.9999945759773254,0.0024203164502978325,-0.0007429203833453357,-0.002146100625395775,0.03076171875,0.96826171875,0.130859375
2023-08-01T16:24:28.303879,0.9999945759773254,0.0024203164502978325,-0.0007429203833453357,-0.002146100625395775,0.0341796875,0.9736328125,0.1259765625
2023-08-01T16:24:28.304876,0.9999942779541016,0.002420915523543954,-0.0005214886623434722,-0.0023139978293329477,0.0341796875,0.9736328125,0.1259765625
2023-08-01T16:24:28.307957,0.9999942779541016,0.002420915523543954,-0.0005214886623434722,-0.0023139978293329477,0.03759765625,0.9755859375,0.140625
2023-08-01T16:24:28.312950,0.9999942779541016,0.002342130756005645,-0.0004685265594162047,-0.0023928626906126738,0.03759765625,0.9755859375,0.140625
2023-08-01T16:24:28.313948,0.9999942779541016,0.002342130756005645,-0.0004685265594162047,-0.0023928626906126738,0.0478515625,0.97998046875,0.15673828125
2023-08-01T16:24:28.317949,0.9999940395355225,0.002342182444408536,-0.00046826768084429204,-0.00250339531339705,0.0478515625,0.97998046875,0.15673828125
2023-08-01T16:24:28.323950,0.9999940395355225,0.002342182444408536,-0.00046826768084429204,-0.00250339531339705,0.05224609375,0.9912109375,0.1591796875
2023-08-01T16:24:28.323950,0.9999934434890747,0.002342130756005645,-0.000525746785569936,-0.0027035449165850878,0.05224609375,0.9912109375,0.1591796875
2023-08-01T16:24:28.330961,0.9999934434890747,0.002342130756005645,-0.000525746785569936,-0.0027035449165850878,0.04736328125,0.99658203125,0.16455078125
2023-08-01T16:24:28.331958,0.9999929666519165,0.0023419007193297148,-0.0006425906904041767,-0.0028689366299659014,0.04736328125,0.99658203125,0.16455078125
2023-08-01T16:24:28.361962,0.9999929666519165,0.0023419007193297148,-0.0006425906904041767,-0.0028689366299659014,0.0400390625,0.99365234375,0.16943359375
2023-08-01T16:24:28.367958,0.9999922513961792,0.0024140984751284122,-0.0007251282804645598,-0.003029230749234557,0.0400390625,0.99365234375,0.16943359375
2023-08-01T16:24:28.369967,0.9999922513961792,0.0024140984751284122,-0.0007251282804645598,-0.003029230749234557,0.03125,0.99560546875,0.1650390625
2023-08-01T16:24:28.371962,0.9999916553497314,0.0024887756444513798,-0.000725019839592278,-0.0031676613725721836,0.03125,0.99560546875,0.1650390625
2023-08-01T16:24:28.372960,0.9999916553497314,0.0024887756444513798,-0.000725019839592278,-0.0031676613725721836,0.01904296875,0.99658203125,0.16162109375
2023-08-01T16:24:28.373956,0.9999914169311523,0.0024888329207897186,-0.0007248233305290341,-0.003246612148359418,0.01904296875,0.99658203125,0.16162109375
2023-08-01T16:24:28.374954,0.9999914169311523,0.0024888329207897186,-0.0007248233305290341,-0.003246612148359418,0.0048828125,0.99609375,0.16357421875
2023-08-01T16:24:28.378967,0.9999914765357971,0.002489123260602355,-0.0006353900535032153,-0.003246389562264085,0.0048828125,0.99609375,0.16357421875
2023-08-01T16:24:28.379967,0.9999914765357971,0.002489123260602355,-0.0006353900535032153,-0.003246389562264085,-0.00244140625,0.99560546875,0.16162109375
2023-08-01T16:24:28.381962,0.9999921917915344,0.002341678598895669,-0.0006351867341436446,-0.003135944250971079,-0.00244140625,0.99560546875,0.16162109375
2023-08-01T16:24:28.389968,0.9999921917915344,0.002341678598895669,-0.0006351867341436446,-0.003135944250971079,-0.005859375,0.99951171875,0.15380859375
2023-08-01T16:24:28.390965,0.9999931454658508,0.0021941533777862787,-0.0006352791679091752,-0.0028991722501814365,-0.005859375,0.99951171875,0.15380859375
2023-08-01T16:24:28.396949,0.9999931454658508,0.0021941533777862787,-0.0006352791679091752,-0.0028991722501814365,0.00244140625,1.00390625,0.15576171875
2023-08-01T16:24:28.397958,0.9999944567680359,0.0020781296771019697,-0.0006357404054142535,-0.0025360537692904472,0.00244140625,1.00390625,0.15576171875
2023-08-01T16:24:28.404235,0.9999944567680359,0.0020781296771019697,-0.0006357404054142535,-0.0025360537692904472,0.0107421875,0.9990234375,0.16650390625
2023-08-01T16:24:28.405233,0.9999954700469971,0.0020253686234354973,-0.0005838826764374971,-0.0021201488561928272,0.0107421875,0.9990234375,0.16650390625
2023-08-01T16:24:28.414771,0.9999954700469971,0.0020253686234354973,-0.0005838826764374971,-0.0021201488561928272,0.0126953125,0.99462890625,0.16357421875
2023-08-01T16:24:28.418825,0.9999964237213135,0.00202510436065495,-0.0005847996799275279,-0.0016673954669386148,0.0126953125,0.99462890625,0.16357421875
2023-08-01T16:24:28.427831,0.9999964237213135,0.00202510436065495,-0.0005847996799275279,-0.0016673954669386148,0.0166015625,0.98974609375,0.15771484375
2023-08-01T16:24:28.429070,0.999997079372406,0.0020248270593583584,-0.0005857590003870428,-0.0011936657829210162,0.0166015625,0.98974609375,0.15771484375
2023-08-01T16:24:28.441352,0.999997079372406,0.0020248270593583584,-0.0005857590003870428,-0.0011936657829210162,0.033203125,0.984375,0.15576171875
2023-08-01T16:24:28.442348,0.9999975562095642,0.0020247872453182936,-0.0004182020202279091,-0.0007827583467587829,0.033203125,0.984375,0.15576171875
2023-08-01T16:24:28.443346,0.9999975562095642,0.0020247872453182936,-0.0004182020202279091,-0.0007827583467587829,0.03564453125,0.97802734375,0.15283203125
2023-08-01T16:24:28.449353,0.9999979138374329,0.0020247732754796743,-0.00024003247381187975,-0.0004139386292081326,0.03564453125,0.97802734375,0.15283203125
2023-08-01T16:24:28.456844,0.9999979138374329,0.0020247732754796743,-0.00024003247381187975,-0.0004139386292081326,0.03173828125,0.96630859375,0.1513671875
2023-08-01T16:24:28.466086,0.9999980330467224,0.001956315478309989,-7.251102215377614e-05,2.8534319426398724e-05,0.03173828125,0.96630859375,0.1513671875
2023-08-01T16:24:28.467085,0.9999980330467224,0.001956315478309989,-7.251102215377614e-05,2.8534319426398724e-05,0.04296875,0.96240234375,0.1474609375
2023-08-01T16:24:28.468061,0.9999982118606567,0.001851011416874826,0.0001371287798974663,0.0004658233083318919,0.04296875,0.96240234375,0.1474609375
2023-08-01T16:24:28.471213,0.9999982118606567,0.001851011416874826,0.0001371287798974663,0.0004658233083318919,0.04736328125,0.96484375,0.1396484375
2023-08-01T16:24:28.479213,0.9999979138374329,0.0017562173306941986,0.0003836090909317136,0.0009084424236789346,0.04736328125,0.96484375,0.1396484375
2023-08-01T16:24:28.486193,0.9999979138374329,0.0017562173306941986,0.0003836090909317136,0.0009084424236789346,0.0400390625,0.966796875,0.13525390625
2023-08-01T16:24:28.487191,0.9999975562095642,0.0016230387846007943,0.0006169350817799568,0.001404271461069584,0.0400390625,0.966796875,0.13525390625
2023-08-01T16:24:28.493375,0.9999975562095642,0.0016230387846007943,0.0006169350817799568,0.001404271461069584,0.04638671875,0.96337890625,0.13916015625
2023-08-01T16:24:28.496876,0.9999967813491821,0.0014810038264840841,0.000773810432292521,0.0018888722406700253,0.04638671875,0.96337890625,0.13916015625
2023-08-01T16:24:28.501263,0.9999967813491821,0.0014810038264840841,0.000773810432292521,0.0018888722406700253,0.048828125,0.95654296875,0.1572265625
2023-08-01T16:24:28.502260,0.999995768070221,0.0013757323613390326,0.0009676240151748061,0.0023577080573886633,0.048828125,0.95654296875,0.1572265625
2023-08-01T16:24:28.518982,0.999995768070221,0.0013757323613390326,0.0009676240151748061,0.0023577080573886633,0.05029296875,0.94921875,0.1650390625
2023-08-01T16:24:28.518982,0.9999947547912598,0.00125466613098979,0.0011456673964858055,0.0027844279538840055,0.05029296875,0.94921875,0.1650390625
2023-08-01T16:24:28.562869,0.9999947547912598,0.00125466613098979,0.0011456673964858055,0.0027844279538840055,0.048828125,0.94921875,0.166015625
2023-08-01T16:24:28.563866,0.9999935030937195,0.0011597295524552464,0.0013502270448952913,0.003111140802502632,0.048828125,0.94921875,0.166015625
2023-08-01T16:24:28.563866,0.9999935030937195,0.0011597295524552464,0.0013502270448952913,0.003111140802502632,0.04931640625,0.9482421875,0.1630859375
2023-08-01T16:24:28.564864,0.9999923706054688,0.0010955535108223557,0.0015573843847960234,0.003393773688003421,0.04931640625,0.9482421875,0.1630859375
2023-08-01T16:24:28.565861,0.9999923706054688,0.0010955535108223557,0.0015573843847960234,0.003393773688003421,0.04931640625,0.9462890625,0.162109375
2023-08-01T16:24:28.565861,0.9999916553497314,0.0010181362740695477,0.0016291794599965215,0.0035954557824879885,0.04931640625,0.9462890625,0.162109375
2023-08-01T16:24:28.565861,0.9999916553497314,0.0010181362740695477,0.0016291794599965215,0.0035954557824879885,0.04443359375,0.9443359375,0.16455078125
2023-08-01T16:24:28.567865,0.9999911189079285,0.0009544856729917228,0.001628786907531321,0.003755356650799513,0.04443359375,0.9443359375,0.16455078125
2023-08-01T16:24:28.577095,0.9999911189079285,0.0009544856729917228,0.001628786907531321,0.003755356650799513,0.04443359375,0.9453125,0.15625
2023-08-01T16:24:28.577095,0.9999907612800598,0.0008754494483582675,0.0016862667398527265,0.0038344974163919687,0.04443359375,0.9453125,0.15625
2023-08-01T16:24:28.578113,0.9999907612800598,0.0008754494483582675,0.0016862667398527265,0.0038344974163919687,0.04296875,0.9482421875,0.1533203125
2023-08-01T16:24:28.591339,0.999990701675415,0.0007257029064930975,0.0018454401288181543,0.003834889270365238,0.04296875,0.9482421875,0.1533203125
2023-08-01T16:24:28.599861,0.999990701675415,0.0007257029064930975,0.0018454401288181543,0.003834889270365238,0.0478515625,0.94775390625,0.14697265625
2023-08-01T16:24:28.599861,0.9999901652336121,0.0005596464616246521,0.0020668611396104097,0.003892185864970088,0.0478515625,0.94775390625,0.14697265625
2023-08-01T16:24:28.600857,0.9999901652336121,0.0005596464616246521,0.0020668611396104097,0.003892185864970088,0.048828125,0.9462890625,0.13916015625
2023-08-01T16:24:28.606840,0.9999897480010986,0.0003481259336695075,0.0023186460603028536,0.003892762353643775,0.048828125,0.9462890625,0.13916015625
2023-08-01T16:24:28.606840,0.9999897480010986,0.0003481259336695075,0.0023186460603028536,0.003892762353643775,0.05224609375,0.951171875,0.125
2023-08-01T16:24:28.614249,0.9999889731407166,8.603794412920251e-05,0.0025998821947723627,0.0038934648036956787,0.05224609375,0.951171875,0.125
2023-08-01T16:24:28.614249,0.9999889731407166,8.603794412920251e-05,0.0025998821947723627,0.0038934648036956787,0.05810546875,0.9580078125,0.1279296875
2023-08-01T16:24:28.615246,0.9999884963035583,-0.00013627647422254086,0.0028779490385204554,0.003830903908237815,0.05810546875,0.9580078125,0.1279296875
2023-08-01T16:24:28.621816,0.9999884963035583,-0.00013627647422254086,0.0028779490385204554,0.003830903908237815,0.06298828125,0.96337890625,0.140625
2023-08-01T16:24:28.621816,0.9999880790710449,-0.000327075133100152,0.0031456041615456343,0.003731407690793276,0.06298828125,0.96337890625,0.140625
2023-08-01T16:24:28.638079,0.9999880790710449,-0.000327075133100152,0.0031456041615456343,0.003731407690793276,0.060546875,0.97509765625,0.14990234375
2023-08-01T16:24:28.638079,0.9999878406524658,-0.0004864589427597821,0.0033870309125632048,0.003547602565959096,0.060546875,0.97509765625,0.14990234375
2023-08-01T16:24:28.644306,0.9999878406524658,-0.0004864589427597821,0.0033870309125632048,0.003547602565959096,0.0537109375,0.97900390625,0.14990234375
2023-08-01T16:24:28.644306,0.9999880790710449,-0.0005879875388927758,0.0035707280039787292,0.003289939370006323,0.0537109375,0.97900390625,0.14990234375
2023-08-01T16:24:28.651298,0.9999880790710449,-0.0005879875388927758,0.0035707280039787292,0.003289939370006323,0.05810546875,0.974609375,0.15185546875
2023-08-01T16:24:28.658793,0.9999881982803345,-0.0006791738560423255,0.0037649613805115223,0.0029901228845119476,0.05810546875,0.974609375,0.15185546875
2023-08-01T16:24:28.665776,0.9999881982803345,-0.0006791738560423255,0.0037649613805115223,0.0029901228845119476,0.05810546875,0.97216796875,0.15869140625
2023-08-01T16:24:28.667282,0.9999883770942688,-0.0006809806218370795,0.003964711911976337,0.002668911824002862,0.05810546875,0.97216796875,0.15869140625
2023-08-01T16:24:28.674216,0.9999883770942688,-0.0006809806218370795,0.003964711911976337,0.002668911824002862,0.05029296875,0.96728515625,0.16455078125
2023-08-01T16:24:28.674216,0.9999886155128479,-0.0006823746953159571,0.004080276470631361,0.0023951297625899315,0.05029296875,0.96728515625,0.16455078125
2023-08-01T16:24:28.682134,0.9999886155128479,-0.0006823746953159571,0.004080276470631361,0.0023951297625899315,0.0458984375,0.97021484375,0.1640625
2023-08-01T16:24:28.683131,0.9999887943267822,-0.0006836500251665711,0.004164265934377909,0.002131895860657096,0.0458984375,0.97021484375,0.1640625
2023-08-01T16:24:28.689453,0.9999887943267822,-0.0006836500251665711,0.004164265934377909,0.002131895860657096,0.04736328125,0.98388671875,0.1630859375
2023-08-01T16:24:28.696830,0.9999894499778748,-0.0006314882193692029,0.0041641974821686745,0.001865355297923088,0.04736328125,0.98388671875,0.1630859375
2023-08-01T16:24:28.704927,0.9999894499778748,-0.0006314882193692029,0.0041641974821686745,0.001865355297923088,0.0419921875,0.9892578125,0.16552734375
2023-08-01T16:24:28.705925,0.9999898672103882,-0.0005691297701559961,0.004164192359894514,0.0016703426372259855,0.0419921875,0.9892578125,0.16552734375
2023-08-01T16:24:28.711115,0.9999898672103882,-0.0005691297701559961,0.004164192359894514,0.0016703426372259855,0.03369140625,0.98876953125,0.15771484375
2023-08-01T16:24:28.712113,0.9999901056289673,-0.0005067273741587996,0.004164192825555801,0.0014858568320050836,0.03369140625,0.98876953125,0.15771484375
2023-08-01T16:24:28.719360,0.9999901056289673,-0.0005067273741587996,0.004164192825555801,0.0014858568320050836,0.03125,0.98046875,0.14990234375
2023-08-01T16:24:28.719360,0.9999904036521912,-0.0005075164372101426,0.004164096899330616,0.001296370755881071,0.03125,0.98046875,0.14990234375
2023-08-01T16:24:28.734453,0.9999904036521912,-0.0005075164372101426,0.004164096899330616,0.001296370755881071,0.03271484375,0.9736328125,0.14892578125
2023-08-01T16:24:28.734453,0.9999901652336121,-0.0005082748248241842,0.004258716478943825,0.0011436815839260817,0.03271484375,0.9736328125,0.14892578125
2023-08-01T16:24:28.742962,0.9999901652336121,-0.0005082748248241842,0.004258716478943825,0.0011436815839260817,0.02734375,0.97607421875,0.14697265625
2023-08-01T16:24:28.743958,0.9999898076057434,-0.0005826455308124423,0.004369052592664957,0.0010123527608811855,0.02734375,0.97607421875,0.14697265625
2023-08-01T16:24:28.749211,0.9999898076057434,-0.0005826455308124423,0.004369052592664957,0.0010123527608811855,0.02490234375,0.97900390625,0.14892578125
2023-08-01T16:24:28.749625,0.9999895691871643,-0.0006831075297668576,0.004437278024852276,0.0009232719894498587,0.02490234375,0.97900390625,0.14892578125
2023-08-01T16:24:28.764609,0.9999895691871643,-0.0006831075297668576,0.004437278024852276,0.0009232719894498587,0.0322265625,0.9853515625,0.1552734375
2023-08-01T16:24:28.764609,0.9999889135360718,-0.0008594032842665911,0.0045754932798445225,0.0008334110607393086,0.0322265625,0.9853515625,0.1552734375
2023-08-01T16:24:28.771150,0.9999889135360718,-0.0008594032842665911,0.0045754932798445225,0.0008334110607393086,0.029296875,0.98681640625,0.158203125
2023-08-01T16:24:28.772147,0.9999876022338867,-0.001070571132004261,0.004812049213796854,0.0007394294370897114,0.029296875,0.98681640625,0.158203125
2023-08-01T16:24:28.779598,0.9999876022338867,-0.001070571132004261,0.004812049213796854,0.0007394294370897114,0.025390625,0.982421875,0.15380859375
2023-08-01T16:24:28.779598,0.9999865293502808,-0.001302286866120994,0.004980264697223902,0.0007403636118397117,0.025390625,0.982421875,0.15380859375
2023-08-01T16:24:28.793581,0.9999865293502808,-0.001302286866120994,0.004980264697223902,0.0007403636118397117,0.03125,0.978515625,0.15576171875
2023-08-01T16:24:28.794578,0.9999854564666748,-0.0015865989262238145,0.005095804575830698,0.0007416282896883786,0.03125,0.978515625,0.15576171875
2023-08-01T16:24:28.802575,0.9999854564666748,-0.0015865989262238145,0.005095804575830698,0.0007416282896883786,0.03515625,0.97509765625,0.1669921875
2023-08-01T16:24:28.802575,0.9999849200248718,-0.001923460979014635,0.005095554515719414,0.0007433448918163776,0.03515625,0.97509765625,0.1669921875
2023-08-01T16:24:28.809116,0.9999849200248718,-0.001923460979014635,0.005095554515719414,0.0007433448918163776,0.0380859375,0.97314453125,0.1826171875
2023-08-01T16:24:28.810113,0.9999842643737793,-0.0022129504941403866,0.00509533891454339,0.0007448199321515858,0.0380859375,0.97314453125,0.1826171875
2023-08-01T16:24:28.824176,0.9999842643737793,-0.0022129504941403866,0.00509533891454339,0.0007448199321515858,0.04296875,0.9765625,0.19091796875
2023-08-01T16:24:28.825174,0.9999837279319763,-0.0024850796908140182,0.005094924475997686,0.0006503318436443806,0.04296875,0.9765625,0.19091796875
2023-08-01T16:24:28.831903,0.9999837279319763,-0.0024850796908140182,0.005094924475997686,0.0006503318436443806,0.0517578125,0.978515625,0.18896484375
2023-08-01T16:24:28.832901,0.9999831914901733,-0.0027385286521166563,0.005094367545098066,0.0004937155172228813,0.0517578125,0.978515625,0.18896484375
2023-08-01T16:24:28.839011,0.9999831914901733,-0.0027385286521166563,0.005094367545098066,0.0004937155172228813,0.05126953125,0.978515625,0.19189453125
2023-08-01T16:24:28.840027,0.9999826550483704,-0.0029604495503008366,0.005093797110021114,0.0003264111001044512,0.05126953125,0.978515625,0.19189453125
2023-08-01T16:24:28.857014,0.9999826550483704,-0.0029604495503008366,0.005093797110021114,0.0003264111001044512,0.0400390625,0.97119140625,0.18701171875
2023-08-01T16:24:28.858070,0.9999820590019226,-0.003150788601487875,0.0050932359881699085,0.00015894576790742576,0.0400390625,0.97119140625,0.18701171875
2023-08-01T16:24:28.862195,0.9999820590019226,-0.003150788601487875,0.0050932359881699085,0.00015894576790742576,0.03662109375,0.9638671875,0.173828125
2023-08-01T16:24:28.863192,0.9999814629554749,-0.003341074101626873,0.005092708393931389,2.0075676729902625e-06,0.03662109375,0.9638671875,0.173828125
2023-08-01T16:24:28.869306,0.9999814629554749,-0.003341074101626873,0.005092708393931389,2.0075676729902625e-06,0.03125,0.96337890625,0.17333984375
2023-08-01T16:24:28.870304,0.9999814629554749,-0.0035311984829604626,0.004965913016349077,-0.00012292714382056147,0.03125,0.96337890625,0.17333984375
2023-08-01T16:24:28.897375,0.9999814629554749,-0.0035311984829604626,0.004965913016349077,-0.00012292714382056147,0.029296875,0.96630859375,0.18115234375
2023-08-01T16:24:28.897878,0.9999818801879883,-0.0037128713447600603,0.004752436187118292,-0.00023312645498663187,0.029296875,0.96630859375,0.18115234375
2023-08-01T16:24:28.900281,0.9999818801879883,-0.0037128713447600603,0.004752436187118292,-0.00023312645498663187,0.0361328125,0.96875,0.1826171875
2023-08-01T16:24:28.900281,0.9999821782112122,-0.003865957958623767,0.004536305088549852,-0.00031581317307427526,0.0361328125,0.96875,0.1826171875
2023-08-01T16:24:28.901278,0.9999821782112122,-0.003865957958623767,0.004536305088549852,-0.00031581317307427526,0.03955078125,0.9716796875,0.18115234375
2023-08-01T16:24:28.902275,0.9999825358390808,-0.003955938387662172,0.004367465618997812,-0.00041476020123809576,0.03955078125,0.9716796875,0.18115234375
2023-08-01T16:24:28.915753,0.9999825358390808,-0.003955938387662172,0.004367465618997812,-0.00041476020123809576,0.03173828125,0.96923828125,0.17431640625
2023-08-01T16:24:28.921883,0.9999827146530151,-0.003956402186304331,0.004313752520829439,-0.0005157476989552379,0.03173828125,0.96923828125,0.17431640625
2023-08-01T16:24:28.936059,0.9999827146530151,-0.003956402186304331,0.004313752520829439,-0.0005157476989552379,0.03466796875,0.96484375,0.15966796875
2023-08-01T16:24:28.937057,0.9999827146530151,-0.003956647124141455,0.0043135276064276695,-0.0005725714727304876,0.03466796875,0.96484375,0.15966796875
2023-08-01T16:24:28.944059,0.9999827146530151,-0.003956647124141455,0.0043135276064276695,-0.0005725714727304876,0.03662109375,0.958984375,0.146484375
2023-08-01T16:24:28.944059,0.9999828338623047,-0.0039042322896420956,0.004313289187848568,-0.0006254308973439038,0.03662109375,0.958984375,0.146484375
2023-08-01T16:24:28.945056,0.9999828338623047,-0.0039042322896420956,0.004313289187848568,-0.0006254308973439038,0.02783203125,0.96142578125,0.14111328125
2023-08-01T16:24:28.952059,0.9999830722808838,-0.0039042686112225056,0.004255342297255993,-0.0006252046441659331,0.02783203125,0.96142578125,0.14111328125
2023-08-01T16:24:28.953056,0.9999830722808838,-0.0039042686112225056,0.004255342297255993,-0.0006252046441659331,0.0224609375,0.96044921875,0.14404296875
2023-08-01T16:24:28.953056,0.999983549118042,-0.0039043377619236708,0.004144759848713875,-0.0006247729179449379,0.0224609375,0.96044921875,0.14404296875
2023-08-01T16:24:28.960057,0.999983549118042,-0.0039043377619236708,0.004144759848713875,-0.0006247729179449379,0.02880859375,0.96240234375,0.1474609375
2023-08-01T16:24:28.960057,0.9999841451644897,-0.0039044308941811323,0.003995571751147509,-0.0006241904338821769,0.02880859375,0.96240234375,0.1474609375
2023-08-01T16:24:28.974379,0.9999841451644897,-0.0039044308941811323,0.003995571751147509,-0.0006241904338821769,0.02197265625,0.97119140625,0.1513671875
2023-08-01T16:24:28.975377,0.9999843835830688,-0.0039047261234372854,0.003926850855350494,-0.0006870826473459601,0.02197265625,0.97119140625,0.1513671875
2023-08-01T16:24:28.989142,0.9999843835830688,-0.0039047261234372854,0.003926850855350494,-0.0006870826473459601,0.0205078125,0.98583984375,0.15576171875
2023-08-01T16:24:28.990140,0.9999843239784241,-0.0039051808416843414,0.003926398698240519,-0.0008028778247535229,0.0205078125,0.98583984375,0.15576171875
2023-08-01T16:24:28.996122,0.9999843239784241,-0.0039051808416843414,0.003926398698240519,-0.0008028778247535229,0.02197265625,0.98193359375,0.1650390625
2023-08-01T16:24:28.997121,0.9999842643737793,-0.00390551146119833,0.003926069941371679,-0.0008870916208252311,0.02197265625,0.98193359375,0.1650390625
2023-08-01T16:24:28.998159,0.9999842643737793,-0.00390551146119833,0.003926069941371679,-0.0008870916208252311,0.02099609375,0.97314453125,0.169921875
2023-08-01T16:24:29.004287,0.9999833106994629,-0.003969012293964624,0.004072985146194696,-0.001008477876894176,0.02099609375,0.97314453125,0.169921875
2023-08-01T16:24:29.012302,0.9999833106994629,-0.003969012293964624,0.004072985146194696,-0.001008477876894176,0.02001953125,0.97216796875,0.1728515625
2023-08-01T16:24:29.013299,0.999981701374054,-0.004095516167581081,0.004314770922064781,-0.0011141920695081353,0.02001953125,0.97216796875,0.1728515625
2023-08-01T16:24:29.026094,0.999981701374054,-0.004095516167581081,0.004314770922064781,-0.0011141920695081353,0.0185546875,0.9716796875,0.1787109375
2023-08-01T16:24:29.027090,0.9999804496765137,-0.004263808485120535,0.004435972310602665,-0.001113960868678987,0.0185546875,0.9716796875,0.1787109375
2023-08-01T16:24:29.027090,0.9999804496765137,-0.004263808485120535,0.004435972310602665,-0.001113960868678987,0.0263671875,0.97412109375,0.18603515625
2023-08-01T16:24:29.033454,0.9999794363975525,-0.004513835068792105,0.004436546470969915,-0.0010436039883643389,0.0263671875,0.97412109375,0.18603515625
2023-08-01T16:24:29.040974,0.9999794363975525,-0.004513835068792105,0.004436546470969915,-0.0010436039883643389,0.033203125,0.98046875,0.18994140625
2023-08-01T16:24:29.041971,0.9999783635139465,-0.004813671577721834,0.004384413827210665,-0.0009893964743241668,0.033203125,0.98046875,0.18994140625
2023-08-01T16:24:29.049157,0.9999783635139465,-0.004813671577721834,0.004384413827210665,-0.0009893964743241668,0.0400390625,0.9873046875,0.1943359375
2023-08-01T16:24:29.050159,0.9999772906303406,-0.00510828010737896,0.0042954301461577415,-0.0009350345353595912,0.0400390625,0.9873046875,0.1943359375
2023-08-01T16:24:29.056143,0.9999772906303406,-0.00510828010737896,0.0042954301461577415,-0.0009350345353595912,0.04736328125,0.990234375,0.203125
2023-08-01T16:24:29.064172,0.9999756813049316,-0.005434385966509581,0.004296003840863705,-0.0008809943101368845,0.04736328125,0.990234375,0.203125
2023-08-01T16:24:29.071899,0.9999756813049316,-0.005434385966509581,0.004296003840863705,-0.0008809943101368845,0.0498046875,0.9892578125,0.20166015625
2023-08-01T16:24:29.071899,0.999973714351654,-0.005776507779955864,0.0042963046580553055,-0.0008795243920758367,0.0498046875,0.9892578125,0.20166015625
2023-08-01T16:24:29.079988,0.999973714351654,-0.005776507779955864,0.0042963046580553055,-0.0008795243920758367,0.04296875,0.98681640625,0.19140625
2023-08-01T16:24:29.079988,0.9999721646308899,-0.006123994942754507,0.0041807652451097965,-0.0008773626759648323,0.04296875,0.98681640625,0.19140625
2023-08-01T16:24:29.085970,0.9999721646308899,-0.006123994942754507,0.0041807652451097965,-0.0008773626759648323,0.046875,0.96630859375,0.19482421875
2023-08-01T16:24:29.086969,0.9999710917472839,-0.006428970489650965,0.003971153404563665,-0.0007589964079670608,0.046875,0.96630859375,0.19482421875
2023-08-01T16:24:29.100848,0.9999710917472839,-0.006428970489650965,0.003971153404563665,-0.0007589964079670608,0.05224609375,0.9599609375,0.201171875
2023-08-01T16:24:29.101847,0.9999707937240601,-0.00665226811543107,0.0037218956276774406,-0.0006073574186302722,0.05224609375,0.9599609375,0.201171875
2023-08-01T16:24:29.108822,0.9999707937240601,-0.00665226811543107,0.0037218956276774406,-0.0006073574186302722,0.04736328125,0.9892578125,0.19482421875
2023-08-01T16:24:29.108822,0.9999710321426392,-0.006789051927626133,0.0034013125114142895,-0.0005362832453101873,0.04736328125,0.9892578125,0.19482421875
2023-08-01T16:24:29.116810,0.9999710321426392,-0.006789051927626133,0.0034013125114142895,-0.0005362832453101873,0.03662109375,1.005859375,0.19287109375
2023-08-01T16:24:29.116810,0.9999719858169556,-0.0068943738006055355,0.0028911905828863382,-0.0004692934453487396,0.03662109375,1.005859375,0.19287109375
2023-08-01T16:24:29.131342,0.9999719858169556,-0.0068943738006055355,0.0028911905828863382,-0.0004692934453487396,0.04345703125,0.99658203125,0.201171875
2023-08-01T16:24:29.131342,0.9999731183052063,-0.0068945991806685925,0.002406900515779853,-0.00046595436288043857,0.04345703125,0.99658203125,0.201171875
2023-08-01T16:24:29.138984,0.9999731183052063,-0.0068945991806685925,0.002406900515779853,-0.00046595436288043857,0.0478515625,0.982421875,0.20263671875
2023-08-01T16:24:29.138984,0.9999750852584839,-0.006710505113005638,0.002117274096235633,-0.0004644014697987586,0.0478515625,0.982421875,0.20263671875
2023-08-01T16:24:29.153962,0.9999750852584839,-0.006710505113005638,0.002117274096235633,-0.0004644014697987586,0.0390625,0.97265625,0.1796875
2023-08-01T16:24:29.153962,0.9999772906303406,-0.006447416264563799,0.0019170904997736216,-0.0004636161611415446,0.0390625,0.97265625,0.1796875
2023-08-01T16:24:29.161961,0.9999772906303406,-0.006447416264563799,0.0019170904997736216,-0.0004636161611415446,0.03125,0.966796875,0.162109375
2023-08-01T16:24:29.161961,0.9999797344207764,-0.006133135873824358,0.0016670027980580926,-0.0003933580592274666,0.03125,0.966796875,0.162109375
2023-08-01T16:24:29.169155,0.9999797344207764,-0.006133135873824358,0.0016670027980580926,-0.0003933580592274666,0.0302734375,0.96044921875,0.16259765625
2023-08-01T16:24:29.169155,0.9999822974205017,-0.005801353603601456,0.001325824181549251,-0.00020758513710461557,0.0302734375,0.96044921875,0.16259765625
2023-08-01T16:24:29.176137,0.9999822974205017,-0.005801353603601456,0.001325824181549251,-0.00020758513710461557,0.02392578125,0.95703125,0.16064453125
2023-08-01T16:24:29.191328,0.9999845027923584,-0.005495863500982523,0.0008953535580076277,1.0323140486434568e-05,0.02392578125,0.95703125,0.16064453125
2023-08-01T16:24:29.192326,0.9999845027923584,-0.005495863500982523,0.0008953535580076277,1.0323140486434568e-05,0.02587890625,0.9541015625,0.1494140625
2023-08-01T16:24:29.192326,0.999985933303833,-0.00526404706761241,0.00044391435221768916,0.0002442037803120911,0.02587890625,0.9541015625,0.1494140625
2023-08-01T16:24:29.199008,0.999985933303833,-0.00526404706761241,0.00044391435221768916,0.0002442037803120911,0.03369140625,0.95556640625,0.140625
2023-08-01T16:24:29.199845,0.999987006187439,-0.005079618655145168,6.088996815378778e-05,0.000477745255921036,0.03369140625,0.95556640625,0.140625
2023-08-01T16:24:29.205831,0.999987006187439,-0.005079618655145168,6.088996815378778e-05,0.000477745255921036,0.04052734375,0.95361328125,0.13330078125
2023-08-01T16:24:29.214067,0.9999876618385315,-0.004921542014926672,-0.00024843026767484844,0.0007161775138229132,0.04052734375,0.95361328125,0.13330078125
2023-08-01T16:24:29.221070,0.9999876618385315,-0.004921542014926672,-0.00024843026767484844,0.0007161775138229132,0.04248046875,0.9501953125,0.12255859375
2023-08-01T16:24:29.222068,0.9999876618385315,-0.004863542038947344,-0.00044746825005859137,0.0009171956335194409,0.04248046875,0.9501953125,0.12255859375
2023-08-01T16:24:29.229245,0.9999876618385315,-0.004863542038947344,-0.00044746825005859137,0.0009171956335194409,0.04541015625,0.9482421875,0.115234375
2023-08-01T16:24:29.229245,0.9999873638153076,-0.004863431211560965,-0.0006415260722860694,0.0010707899928092957,0.04541015625,0.9482421875,0.115234375
2023-08-01T16:24:29.236226,0.9999873638153076,-0.004863431211560965,-0.0006415260722860694,0.0010707899928092957,0.04345703125,0.9462890625,0.1171875
2023-08-01T16:24:29.237223,0.9999863505363464,-0.0050230612978339195,-0.0008701085462234914,0.0012102921027690172,0.04345703125,0.9462890625,0.1171875
2023-08-01T16:24:29.244284,0.9999863505363464,-0.0050230612978339195,-0.0008701085462234914,0.0012102921027690172,0.048828125,0.9423828125,0.12451171875
2023-08-01T16:24:29.251904,0.999984860420227,-0.0052597979083657265,-0.00101224216632545,0.0012739660451188684,0.048828125,0.9423828125,0.12451171875
2023-08-01T16:24:29.265925,0.999984860420227,-0.0052597979083657265,-0.00101224216632545,0.0012739660451188684,0.052734375,0.94677734375,0.12451171875
2023-08-01T16:24:29.266922,0.9999831914901733,-0.0055859447456896305,-0.0010973380412906408,0.0011951285414397717,0.052734375,0.94677734375,0.12451171875
2023-08-01T16:24:29.267933,0.9999831914901733,-0.0055859447456896305,-0.0010973380412906408,0.0011951285414397717,0.05712890625,0.94970703125,0.12939453125
2023-08-01T16:24:29.274260,0.9999809861183167,-0.005959370173513889,-0.0011777265463024378,0.0010267288889735937,0.05712890625,0.94970703125,0.12939453125
2023-08-01T16:24:29.274260,0.9999809861183167,-0.005959370173513889,-0.0011777265463024378,0.0010267288889735937,0.0478515625,0.95068359375,0.1552734375
2023-08-01T16:24:29.289295,0.99997878074646,-0.006359060760587454,-0.0012374643702059984,0.000795010244473815,0.0478515625,0.95068359375,0.1552734375
2023-08-01T16:24:29.289295,0.99997878074646,-0.006359060760587454,-0.0012374643702059984,0.000795010244473815,0.0263671875,0.96435546875,0.16796875
2023-08-01T16:24:29.290295,0.9999768733978271,-0.0067008794285357,-0.0010558698559179902,0.0004302349698264152,0.0263671875,0.96435546875,0.16796875
2023-08-01T16:24:29.296280,0.9999768733978271,-0.0067008794285357,-0.0010558698559179902,0.0004302349698264152,0.048828125,0.96875,0.16259765625
2023-08-01T16:24:29.296280,0.9999746084213257,-0.00706889946013689,-0.0009222578955814242,-2.373050301684998e-05,0.048828125,0.96875,0.16259765625
2023-08-01T16:24:29.303770,0.9999746084213257,-0.00706889946013689,-0.0009222578955814242,-2.373050301684998e-05,0.0517578125,0.9697265625,0.17578125
2023-08-01T16:24:29.304767,0.9999723434448242,-0.007382739335298538,-0.0007442898931913078,-0.00046205849503166974,0.0517578125,0.9697265625,0.17578125
2023-08-01T16:24:29.319272,0.9999723434448242,-0.007382739335298538,-0.0007442898931913078,-0.00046205849503166974,0.033203125,0.97265625,0.18310546875
2023-08-01T16:24:29.319272,0.9999700784683228,-0.007661290932446718,-0.0005631729145534337,-0.0008952295174822211,0.033203125,0.97265625,0.18310546875
2023-08-01T16:24:29.326257,0.9999700784683228,-0.007661290932446718,-0.0005631729145534337,-0.0008952295174822211,0.02392578125,0.97705078125,0.1796875
2023-08-01T16:24:29.327255,0.9999675750732422,-0.007934624329209328,-0.0004293510864954442,-0.0013175074709579349,0.02392578125,0.97705078125,0.1796875
2023-08-01T16:24:29.334314,0.9999675750732422,-0.007934624329209328,-0.0004293510864954442,-0.0013175074709579349,0.02490234375,0.97705078125,0.18212890625
2023-08-01T16:24:29.335311,0.9999655485153198,-0.008118519559502602,-0.000311061623506248,-0.0016922499053180218,0.02490234375,0.97705078125,0.18212890625
2023-08-01T16:24:29.348952,0.9999655485153198,-0.008118519559502602,-0.000311061623506248,-0.0016922499053180218,0.03076171875,0.98291015625,0.18603515625
2023-08-01T16:24:29.348952,0.9999640583992004,-0.008244544267654419,-0.00019762077135965228,-0.002003770088776946,0.03076171875,0.98291015625,0.18603515625
2023-08-01T16:24:29.355936,0.9999640583992004,-0.008244544267654419,-0.00019762077135965228,-0.002003770088776946,0.0234375,0.98974609375,0.18603515625
2023-08-01T16:24:29.356933,0.9999627470970154,-0.008333800360560417,-0.00011522687418619171,-0.0022413337137550116,0.0234375,0.98974609375,0.18603515625
2023-08-01T16:24:29.364038,0.9999627470970154,-0.008333800360560417,-0.00011522687418619171,-0.0022413337137550116,0.01806640625,0.9912109375,0.1845703125
2023-08-01T16:24:29.364038,0.9999619126319885,-0.008391521871089935,-4.794839333044365e-05,-0.00238928385078907,0.01806640625,0.9912109375,0.1845703125
2023-08-01T16:24:29.378212,0.9999619126319885,-0.008391521871089935,-4.794839333044365e-05,-0.00238928385078907,0.0205078125,0.98681640625,0.189453125
2023-08-01T16:24:29.379485,0.9999616742134094,-0.00839135143905878,2.039574974332936e-05,-0.0024910608772188425,0.0205078125,0.98681640625,0.189453125
2023-08-01T16:24:29.385468,0.9999616742134094,-0.00839135143905878,2.039574974332936e-05,-0.0024910608772188425,0.02880859375,0.9794921875,0.193359375
2023-08-01T16:24:29.386974,0.9999616742134094,-0.00839135143905878,2.039574974332936e-05,-0.0024910608772188425,0.02880859375,0.9794921875,0.193359375
2023-08-01T16:24:29.402011,0.9999616742134094,-0.00839135143905878,2.039574974332936e-05,-0.0024910608772188425,0.03076171875,0.9755859375,0.1904296875
2023-08-01T16:24:29.402011,0.9999616742134094,-0.008391482755541801,-3.2286570785799995e-05,-0.002490618731826544,0.03076171875,0.9755859375,0.1904296875
2023-08-01T16:24:29.409555,0.9999616742134094,-0.008391482755541801,-3.2286570785799995e-05,-0.002490618731826544,0.02880859375,0.97900390625,0.1865234375
2023-08-01T16:24:29.416118,0.9999622106552124,-0.008328472264111042,-9.565310756443068e-05,-0.0024900862481445074,0.02880859375,0.97900390625,0.1865234375
2023-08-01T16:24:29.417116,0.9999622106552124,-0.008328472264111042,-9.565310756443068e-05,-0.0024900862481445074,0.03857421875,0.974609375,0.18408203125
2023-08-01T16:24:29.417619,0.9999626278877258,-0.008275831118226051,-9.578419121680781e-05,-0.002490081125870347,0.03857421875,0.974609375,0.18408203125
2023-08-01T16:24:29.424116,0.9999626278877258,-0.008275831118226051,-9.578419121680781e-05,-0.002490081125870347,0.04150390625,0.974609375,0.18212890625
2023-08-01T16:24:29.425115,0.9999631643295288,-0.008212663233280182,-9.594149014446884e-05,-0.002490075072273612,0.04150390625,0.974609375,0.18212890625
2023-08-01T16:24:29.439914,0.9999631643295288,-0.008212663233280182,-9.594149014446884e-05,-0.002490075072273612,0.0390625,0.98046875,0.17578125
2023-08-01T16:24:29.440912,0.9999635219573975,-0.008138750679790974,-1.2692538803094067e-05,-0.002580234780907631,0.0390625,0.98046875,0.17578125
2023-08-01T16:24:29.446894,0.9999635219573975,-0.008138750679790974,-1.2692538803094067e-05,-0.002580234780907631,0.03515625,0.982421875,0.17236328125
2023-08-01T16:24:29.446894,0.9999640583992004,-0.008048979565501213,9.691860759630799e-05,-0.0026600814890116453,0.03515625,0.982421875,0.17236328125
2023-08-01T16:24:29.454303,0.9999640583992004,-0.008048979565501213,9.691860759630799e-05,-0.0026600814890116453,0.03466796875,0.98046875,0.17138671875
2023-08-01T16:24:29.454303,0.9999644756317139,-0.007963395677506924,0.00023418419004883617,-0.0027783794794231653,0.03466796875,0.98046875,0.17138671875
2023-08-01T16:24:29.469444,0.9999644756317139,-0.007963395677506924,0.00023418419004883617,-0.0027783794794231653,0.03125,0.97900390625,0.17236328125
2023-08-01T16:24:29.469444,0.999964714050293,-0.007893724367022514,0.0003930114908143878,-0.0028702120762318373,0.03125,0.97900390625,0.17236328125
2023-08-01T16:24:29.476933,0.999964714050293,-0.007893724367022514,0.0003930114908143878,-0.0028702120762318373,0.02490234375,0.9794921875,0.158203125
2023-08-01T16:24:29.476933,0.9999647736549377,-0.007836711592972279,0.0004645541775971651,-0.0029431250877678394,0.02490234375,0.9794921875,0.158203125
2023-08-01T16:24:29.484054,0.9999647736549377,-0.007836711592972279,0.0004645541775971651,-0.0029431250877678394,0.03271484375,0.97509765625,0.16064453125
2023-08-01T16:24:29.485050,0.9999648928642273,-0.007836712524294853,0.000464554235804826,-0.0029431255534291267,0.03271484375,0.97509765625,0.16064453125
2023-08-01T16:24:29.505314,0.9999648928642273,-0.007836712524294853,0.000464554235804826,-0.0029431255534291267,0.03466796875,0.974609375,0.17041015625
2023-08-01T16:24:29.506820,0.9999648332595825,-0.007836461998522282,0.0005497267702594399,-0.0029437930788844824,0.03466796875,0.974609375,0.17041015625
2023-08-01T16:24:29.507820,0.9999648332595825,-0.007836461998522282,0.0005497267702594399,-0.0029437930788844824,0.02099609375,0.9775390625,0.16845703125
2023-08-01T16:24:29.514122,0.999964714050293,-0.00783594511449337,0.0007253233925439417,-0.0029451691079884768,0.02099609375,0.9775390625,0.16845703125
2023-08-01T16:24:29.514122,0.999964714050293,-0.00783594511449337,0.0007253233925439417,-0.0029451691079884768,0.02587890625,0.97705078125,0.1630859375
2023-08-01T16:24:29.515120,0.9999648332595825,-0.00783560425043106,0.0008269339450635016,-0.0028873691335320473,0.02587890625,0.97705078125,0.1630859375
2023-08-01T16:24:29.528225,0.9999648332595825,-0.00783560425043106,0.0008269339450635016,-0.0028873691335320473,0.0341796875,0.96875,0.17333984375
2023-08-01T16:24:29.529307,0.9999644756317139,-0.007893111556768417,0.0009382045827805996,-0.002809231635183096,0.0341796875,0.96875,0.17333984375
2023-08-01T16:24:29.536289,0.9999644756317139,-0.007893111556768417,0.0009382045827805996,-0.002809231635183096,0.02392578125,0.96533203125,0.1806640625
2023-08-01T16:24:29.536289,0.9999644756317139,-0.007892466150224209,0.0011491520563140512,-0.002752991858869791,0.02392578125,0.96533203125,0.1806640625
2023-08-01T16:24:29.543864,0.9999644756317139,-0.007892466150224209,0.0011491520563140512,-0.002752991858869791,0.01806640625,0.96337890625,0.1748046875
2023-08-01T16:24:29.544861,0.9999638199806213,-0.007976238615810871,0.0012711016461253166,-0.002664367901161313,0.01806640625,0.96337890625,0.1748046875
2023-08-01T16:24:29.551279,0.9999638199806213,-0.007976238615810871,0.0012711016461253166,-0.002664367901161313,0.02880859375,0.9580078125,0.17724609375
2023-08-01T16:24:29.559234,0.9999635815620422,-0.008044314570724964,0.001340668648481369,-0.002538500353693962,0.02880859375,0.9580078125,0.17724609375
2023-08-01T16:24:29.566216,0.9999635815620422,-0.008044314570724964,0.001340668648481369,-0.002538500353693962,0.03125,0.958984375,0.18603515625
2023-08-01T16:24:29.573740,0.9999631643295288,-0.008101745508611202,0.001473116222769022,-0.0024447357282042503,0.03125,0.958984375,0.18603515625
2023-08-01T16:24:29.574738,0.9999631643295288,-0.008101745508611202,0.001473116222769022,-0.0024447357282042503,0.03125,0.9677734375,0.1787109375
2023-08-01T16:24:29.574738,0.9999627470970154,-0.008153961040079594,0.0015948960790410638,-0.00236668367870152,0.03125,0.9677734375,0.1787109375
2023-08-01T16:24:29.581026,0.9999627470970154,-0.008153961040079594,0.0015948960790410638,-0.00236668367870152,0.0341796875,0.97021484375,0.1787109375
2023-08-01T16:24:29.582024,0.9999626278877258,-0.008153606206178665,0.0017018945654854178,-0.0023036329075694084,0.0341796875,0.97021484375,0.1787109375
2023-08-01T16:24:29.595482,0.9999626278877258,-0.008153606206178665,0.0017018945654854178,-0.0023036329075694084,0.03564453125,0.966796875,0.19091796875
2023-08-01T16:24:29.596990,0.999962329864502,-0.00815320573747158,0.0018755404744297266,-0.0023050487507134676,0.03564453125,0.966796875,0.19091796875
2023-08-01T16:24:29.603500,0.999962329864502,-0.00815320573747158,0.0018755404744297266,-0.0023050487507134676,0.03662109375,0.9677734375,0.189453125
2023-08-01T16:24:29.604497,0.9999616146087646,-0.008205469697713852,0.0020335172303020954,-0.002306237118318677,0.03662109375,0.9677734375,0.189453125
2023-08-01T16:24:29.619114,0.9999616146087646,-0.008205469697713852,0.0020335172303020954,-0.002306237118318677,0.03076171875,0.96875,0.18115234375
2023-08-01T16:24:29.620108,0.9999610781669617,-0.008257952518761158,0.0020967519376426935,-0.0023066478315740824,0.03076171875,0.96875,0.18115234375
2023-08-01T16:24:29.626092,0.9999610781669617,-0.008257952518761158,0.0020967519376426935,-0.0023066478315740824,0.03955078125,0.97021484375,0.181640625
2023-08-01T16:24:29.627099,0.9999606609344482,-0.008310580626130104,0.002096873242408037,-0.0023065374698489904,0.03955078125,0.97021484375,0.181640625
2023-08-01T16:24:29.633317,0.9999606609344482,-0.008310580626130104,0.002096873242408037,-0.0023065374698489904,0.03564453125,0.97412109375,0.18603515625
2023-08-01T16:24:29.641852,0.9999604225158691,-0.00831031333655119,0.0022126210387796164,-0.0023074995260685682,0.03564453125,0.97412109375,0.18603515625
2023-08-01T16:24:29.641852,0.9999604225158691,-0.00831031333655119,0.0022126210387796164,-0.0023074995260685682,0.0341796875,0.97509765625,0.18017578125
2023-08-01T16:24:29.642850,0.9999600648880005,-0.008309961296617985,0.0023652128875255585,-0.002308767754584551,0.0341796875,0.97509765625,0.18017578125
2023-08-01T16:24:29.656248,0.9999600648880005,-0.008309961296617985,0.0023652128875255585,-0.002308767754584551,0.0419921875,0.97412109375,0.17578125
2023-08-01T16:24:29.663745,0.9999590516090393,-0.00840561930090189,0.0024559327866882086,-0.002309293020516634,0.0419921875,0.97412109375,0.17578125
2023-08-01T16:24:29.664743,0.9999590516090393,-0.00840561930090189,0.0024559327866882086,-0.002309293020516634,0.03662109375,0.9736328125,0.18359375
2023-08-01T16:24:29.664743,0.9999584555625916,-0.008479300886392593,0.0024561029858887196,-0.002309112111106515,0.03662109375,0.9736328125,0.18359375
2023-08-01T16:24:29.671286,0.9999584555625916,-0.008479300886392593,0.0024561029858887196,-0.002309112111106515,0.02783203125,0.97265625,0.19189453125
2023-08-01T16:24:29.672286,0.9999585747718811,-0.008479518815875053,0.002361313207075,-0.002308308146893978,0.02783203125,0.97265625,0.19189453125
2023-08-01T16:24:29.685761,0.9999585747718811,-0.008479518815875053,0.002361313207075,-0.002308308146893978,0.025390625,0.9716796875,0.193359375
2023-08-01T16:24:29.687823,0.999958872795105,-0.008479834534227848,0.0022244162391871214,-0.00230714725330472,0.025390625,0.9716796875,0.193359375
2023-08-01T16:24:29.693938,0.999958872795105,-0.008479834534227848,0.0022244162391871214,-0.00230714725330472,0.025390625,0.9736328125,0.1923828125
2023-08-01T16:24:29.693938,0.9999593496322632,-0.008480057120323181,0.002077438635751605,-0.00225325976498425,0.025390625,0.9736328125,0.1923828125
2023-08-01T16:24:29.701050,0.9999593496322632,-0.008480057120323181,0.002077438635751605,-0.00225325976498425,0.02880859375,0.97509765625,0.1982421875
2023-08-01T16:24:29.702048,0.9999605417251587,-0.008396013639867306,0.001935668638907373,-0.0021838012617081404,0.02880859375,0.97509765625,0.1982421875
2023-08-01T16:24:29.716064,0.9999605417251587,-0.008396013639867306,0.001935668638907373,-0.0021838012617081404,0.02880859375,0.974609375,0.19384765625
2023-08-01T16:24:29.717062,0.9999620318412781,-0.008253955282270908,0.0018568449886515737,-0.002125512110069394,0.02880859375,0.974609375,0.19384765625
2023-08-01T16:24:29.724292,0.9999620318412781,-0.008253955282270908,0.0018568449886515737,-0.002125512110069394,0.02587890625,0.9716796875,0.1806640625
2023-08-01T16:24:29.724292,0.9999634027481079,-0.008088946342468262,0.0018031822983175516,-0.002125378465279937,0.02587890625,0.9716796875,0.1806640625
2023-08-01T16:24:29.731368,0.9999634027481079,-0.008088946342468262,0.0018031822983175516,-0.002125378465279937,0.0263671875,0.96875,0.17236328125
2023-08-01T16:24:29.731368,0.9999649524688721,-0.007941740565001965,0.0016664823051542044,-0.0020613721571862698,0.0263671875,0.96875,0.17236328125
2023-08-01T16:24:29.746864,0.9999649524688721,-0.007941740565001965,0.0016664823051542044,-0.0020613721571862698,0.0302734375,0.9638671875,0.1650390625
2023-08-01T16:24:29.760914,0.999966561794281,-0.007808803115040064,0.0014752158895134926,-0.0019588677678257227,0.0302734375,0.9638671875,0.1650390625
2023-08-01T16:24:29.761911,0.999966561794281,-0.007808803115040064,0.0014752158895134926,-0.0019588677678257227,0.03515625,0.95947265625,0.1650390625
2023-08-01T16:24:29.762909,0.9999679923057556,-0.007685189601033926,0.0012326486175879836,-0.0018899933202192187,0.03515625,0.95947265625,0.1650390625
2023-08-01T16:24:29.768908,0.9999679923057556,-0.007685189601033926,0.0012326486175879836,-0.0018899933202192187,0.03466796875,0.9609375,0.17138671875
2023-08-01T16:24:29.768908,0.9999690651893616,-0.00758026260882616,0.0009961518226191401,-0.0018093466060236096,0.03466796875,0.9609375,0.17138671875
2023-08-01T16:24:29.769907,0.9999690651893616,-0.00758026260882616,0.0009961518226191401,-0.0018093466060236096,0.02783203125,0.9658203125,0.173828125
2023-08-01T16:24:29.775891,0.9999698996543884,-0.0075006322003901005,0.0008468215819448233,-0.001808295608498156,0.02783203125,0.9658203125,0.173828125
2023-08-01T16:24:29.784037,0.9999698996543884,-0.0075006322003901005,0.0008468215819448233,-0.001808295608498156,0.03369140625,0.97314453125,0.16943359375
2023-08-01T16:24:29.784037,0.9999704957008362,-0.007438876666128635,0.000712346110958606,-0.0018073403043672442,0.03369140625,0.97314453125,0.16943359375
2023-08-01T16:24:29.791092,0.9999704957008362,-0.007438876666128635,0.000712346110958606,-0.0018073403043672442,0.0361328125,0.9716796875,0.16015625
2023-08-01T16:24:29.792089,0.9999704957008362,-0.007438876666128635,0.000712346110958606,-0.0018073403043672442,0.0361328125,0.9716796875,0.16015625
2023-08-01T16:24:29.805390,0.9999704957008362,-0.007438876666128635,0.000712346110958606,-0.0018073403043672442,0.033203125,0.96728515625,0.15673828125
2023-08-01T16:24:29.806897,0.9999709725379944,-0.007375708315521479,0.0007122319657355547,-0.0018073853570967913,0.033203125,0.96728515625,0.15673828125
2023-08-01T16:24:29.814087,0.9999709725379944,-0.007375708315521479,0.0007122319657355547,-0.0018073853570967913,0.03271484375,0.9638671875,0.15673828125
2023-08-01T16:24:29.814087,0.9999709725379944,-0.007375708315521479,0.0007122319657355547,-0.0018073853570967913,0.03271484375,0.9638671875,0.15673828125
2023-08-01T16:24:29.821737,0.9999709725379944,-0.007375708315521479,0.0007122319657355547,-0.0018073853570967913,0.03173828125,0.9580078125,0.15478515625
2023-08-01T16:24:29.821737,0.9999710321426392,-0.007375927176326513,0.0005911237676627934,-0.0018064921023324132,0.03173828125,0.9580078125,0.15478515625
2023-08-01T16:24:29.828867,0.9999710321426392,-0.007375927176326513,0.0005911237676627934,-0.0018064921023324132,0.03515625,0.9599609375,0.1591796875
2023-08-01T16:24:29.836864,0.999970555305481,-0.007444706745445728,0.0003911866806447506,-0.0018049757927656174,0.03515625,0.9599609375,0.1591796875
2023-08-01T16:24:29.844106,0.999970555305481,-0.007444706745445728,0.0003911866806447506,-0.0018049757927656174,0.03662109375,0.9619140625,0.1689453125
2023-08-01T16:24:29.845104,0.9999700784683228,-0.007518636528402567,0.0002544210874475539,-0.0018039277056232095,0.03662109375,0.9619140625,0.1689453125
2023-08-01T16:24:29.851669,0.9999700784683228,-0.007518636528402567,0.0002544210874475539,-0.0018039277056232095,0.046875,0.966796875,0.17138671875
2023-08-01T16:24:29.851669,0.9999694228172302,-0.007602940779179335,0.0002018902450799942,-0.0018035101238638163,0.046875,0.966796875,0.17138671875
2023-08-01T16:24:29.859071,0.9999694228172302,-0.007602940779179335,0.0002018902450799942,-0.0018035101238638163,0.04443359375,0.97802734375,0.173828125
2023-08-01T16:24:29.865961,0.9999692440032959,-0.0076029603369534016,0.00020116132509429008,-0.001899380935356021,0.04443359375,0.97802734375,0.173828125
2023-08-01T16:24:29.873365,0.9999692440032959,-0.0076029603369534016,0.00020116132509429008,-0.001899380935356021,0.0341796875,0.9833984375,0.17138671875
2023-08-01T16:24:29.874362,0.9999690651893616,-0.007602978497743607,0.00020048102305736393,-0.001988857053220272,0.0341796875,0.9833984375,0.17138671875
2023-08-01T16:24:29.881362,0.9999690651893616,-0.007602978497743607,0.00020048102305736393,-0.001988857053220272,0.033203125,0.97802734375,0.1728515625
2023-08-01T16:24:29.882359,0.999968945980072,-0.0076029933989048,0.0001999207743210718,-0.0020625425968319178,0.033203125,0.97802734375,0.1728515625
2023-08-01T16:24:29.888368,0.999968945980072,-0.0076029933989048,0.0001999207743210718,-0.0020625425968319178,0.0341796875,0.97119140625,0.17529296875
2023-08-01T16:24:29.889367,0.9999692440032959,-0.007539842743426561,0.00019911017443519086,-0.0021520310547202826,0.0341796875,0.97119140625,0.17529296875
2023-08-01T16:24:29.903346,0.9999692440032959,-0.007539842743426561,0.00019911017443519086,-0.0021520310547202826,0.02587890625,0.9716796875,0.173828125
2023-08-01T16:24:29.904344,0.9999697804450989,-0.007466147653758526,0.00019895157311111689,-0.0021520457230508327,0.02587890625,0.9716796875,0.173828125
2023-08-01T16:24:29.910919,0.9999697804450989,-0.007466147653758526,0.00019895157311111689,-0.0021520457230508327,0.0244140625,0.96875,0.177734375
2023-08-01T16:24:29.911917,0.9999704360961914,-0.007382152136415243,9.345271246274933e-05,-0.0021512762177735567,0.0244140625,0.96875,0.177734375
2023-08-01T16:24:29.919004,0.9999704360961914,-0.007382152136415243,9.345271246274933e-05,-0.0021512762177735567,0.029296875,0.970703125,0.17431640625
2023-08-01T16:24:29.919004,0.9999712109565735,-0.007276875898241997,9.322622645413503e-05,-0.00215128599666059,0.029296875,0.970703125,0.17431640625
2023-08-01T16:24:29.933982,0.9999712109565735,-0.007276875898241997,9.322622645413503e-05,-0.00215128599666059,0.03076171875,0.974609375,0.166015625
2023-08-01T16:24:29.934980,0.9999721050262451,-0.007154363673180342,9.296266216551885e-05,-0.002151297405362129,0.03076171875,0.974609375,0.166015625
2023-08-01T16:24:29.940981,0.9999721050262451,-0.007154363673180342,9.296266216551885e-05,-0.002151297405362129,0.033203125,0.97412109375,0.166015625
2023-08-01T16:24:29.941980,0.9999729990959167,-0.0070280334912240505,9.269088332075626e-05,-0.002151309046894312,0.033203125,0.97412109375,0.166015625
2023-08-01T16:24:29.949056,0.9999729990959167,-0.0070280334912240505,9.269088332075626e-05,-0.002151309046894312,0.03662109375,0.9765625,0.16162109375
2023-08-01T16:24:29.949579,0.9999739527702332,-0.006896439474076033,9.240777580998838e-05,-0.002151321154087782,0.03662109375,0.9765625,0.16162109375
2023-08-01T16:24:29.964079,0.9999739527702332,-0.006896439474076033,9.240777580998838e-05,-0.002151321154087782,0.02978515625,0.97802734375,0.15576171875
2023-08-01T16:24:29.964079,0.9999748468399048,-0.006770108826458454,9.213598968926817e-05,-0.0021513327956199646,0.02978515625,0.97802734375,0.15576171875
2023-08-01T16:24:29.979185,0.9999748468399048,-0.006770108826458454,9.213598968926817e-05,-0.0021513327956199646,0.029296875,0.97412109375,0.15478515625
2023-08-01T16:24:29.979185,0.999975323677063,-0.006685885135084391,9.195478196488693e-05,-0.0021513402462005615,0.029296875,0.97412109375,0.15478515625
2023-08-01T16:24:29.980182,0.999975323677063,-0.006685885135084391,9.195478196488693e-05,-0.0021513402462005615,0.0341796875,0.9716796875,0.1591796875
2023-08-01T16:24:29.994212,0.9999759197235107,-0.006595330312848091,9.175996092380956e-05,-0.002151348628103733,0.0341796875,0.9716796875,0.1591796875
2023-08-01T16:24:29.995209,0.9999759197235107,-0.006595330312848091,9.175996092380956e-05,-0.002151348628103733,0.03662109375,0.97021484375,0.162109375
2023-08-01T16:24:29.995209,0.999976396560669,-0.006521476432681084,0.00016524277452845126,-0.002151841064915061,0.03662109375,0.97021484375,0.162109375
2023-08-01T16:24:30.001026,0.999976396560669,-0.006521476432681084,0.00016524277452845126,-0.002151841064915061,0.03271484375,0.96728515625,0.16162109375
2023-08-01T16:24:30.009492,0.999976396560669,-0.006521295290440321,0.00024941121228039265,-0.002152390079572797,0.03271484375,0.96728515625,0.16162109375
2023-08-01T16:24:30.010490,0.999976396560669,-0.006521295290440321,0.00024941121228039265,-0.002152390079572797,0.03466796875,0.96484375,0.1640625
2023-08-01T16:24:30.010490,0.999976396560669,-0.006521057337522507,0.000359897268936038,-0.0021531106904149055,0.03466796875,0.96484375,0.1640625
2023-08-01T16:24:30.024077,0.999976396560669,-0.006521057337522507,0.000359897268936038,-0.0021531106904149055,0.041015625,0.96875,0.1630859375
2023-08-01T16:24:30.025075,0.9999763369560242,-0.006520706228911877,0.0005230185342952609,-0.00215417449362576,0.041015625,0.96875,0.1630859375
2023-08-01T16:24:30.031658,0.9999763369560242,-0.006520706228911877,0.0005230185342952609,-0.00215417449362576,0.03466796875,0.97119140625,0.16748046875
2023-08-01T16:24:30.032655,0.9999762773513794,-0.006520354654639959,0.0006861397996544838,-0.0021552382968366146,0.03466796875,0.97119140625,0.16748046875
2023-08-01T16:24:30.046216,0.9999762773513794,-0.006520354654639959,0.0006861397996544838,-0.0021552382968366146,0.029296875,0.96923828125,0.1630859375
2023-08-01T16:24:30.053856,0.9999760985374451,-0.006520092952996492,0.0008071527699939907,-0.002156027127057314,0.029296875,0.96923828125,0.1630859375
2023-08-01T16:24:30.054854,0.9999760985374451,-0.006520092952996492,0.0008071527699939907,-0.002156027127057314,0.03173828125,0.9677734375,0.16162109375
2023-08-01T16:24:30.054854,0.9999755024909973,-0.006599775515496731,0.0009031512308865786,-0.002156587550416589,0.03173828125,0.9677734375,0.16162109375
2023-08-01T16:24:30.061374,0.9999755024909973,-0.006599775515496731,0.0009031512308865786,-0.002156587550416589,0.03369140625,0.9638671875,0.1669921875
2023-08-01T16:24:30.063369,0.9999750852584839,-0.006656417157500982,0.0009858834091573954,-0.0021570816170424223,0.03369140625,0.9638671875,0.1669921875
2023-08-01T16:24:30.068981,0.9999750852584839,-0.006656417157500982,0.0009858834091573954,-0.0021570816170424223,0.0322265625,0.9619140625,0.17333984375
2023-08-01T16:24:30.070022,0.9999744892120361,-0.0067254467867314816,0.0010818588780239224,-0.0021576513536274433,0.0322265625,0.9619140625,0.17333984375
2023-08-01T16:24:30.084016,0.9999744892120361,-0.0067254467867314816,0.0010818588780239224,-0.0021576513536274433,0.03515625,0.96337890625,0.17626953125
2023-08-01T16:24:30.085014,0.9999743700027466,-0.006725231185555458,0.0011818177299574018,-0.002158323535695672,0.03515625,0.96337890625,0.17626953125
2023-08-01T16:24:30.092030,0.9999743700027466,-0.006725231185555458,0.0011818177299574018,-0.002158323535695672,0.03759765625,0.96630859375,0.17822265625
2023-08-01T16:24:30.092030,0.999974250793457,-0.00672502676025033,0.001276512979529798,-0.0021589603275060654,0.03759765625,0.96630859375,0.17822265625
2023-08-01T16:24:30.099161,0.999974250793457,-0.00672502676025033,0.001276512979529798,-0.0021589603275060654,0.03857421875,0.97314453125,0.17529296875
2023-08-01T16:24:30.100037,0.9999741315841675,-0.006724867969751358,0.0013501541689038277,-0.002159455558285117,0.03857421875,0.97314453125,0.17529296875
2023-08-01T16:24:30.107018,0.9999741315841675,-0.006724867969751358,0.0013501541689038277,-0.002159455558285117,0.04052734375,0.9775390625,0.169921875
2023-08-01T16:24:30.115029,0.9999741315841675,-0.006724867969751358,0.0013501541689038277,-0.002159455558285117,0.04052734375,0.9775390625,0.169921875
2023-08-01T16:24:30.122043,0.9999741315841675,-0.006724867969751358,0.0013501541689038277,-0.002159455558285117,0.03955078125,0.974609375,0.17041015625
2023-08-01T16:24:30.123040,0.9999739527702332,-0.006724981591105461,0.0013495878083631396,-0.0022436685394495726,0.03955078125,0.974609375,0.17041015625
2023-08-01T16:24:30.129049,0.9999739527702332,-0.006724981591105461,0.0013495878083631396,-0.0022436685394495726,0.03662109375,0.974609375,0.171875
2023-08-01T16:24:30.137032,0.9999737739562988,-0.006724936421960592,0.0014076994266360998,-0.0023079754319041967,0.03662109375,0.974609375,0.171875
2023-08-01T16:24:30.139199,0.9999737739562988,-0.006724936421960592,0.0014076994266360998,-0.0023079754319041967,0.03466796875,0.97412109375,0.17041015625
2023-08-01T16:24:30.144085,0.9999735951423645,-0.006725040264427662,0.0014072038466110826,-0.0023816614411771297,0.03466796875,0.97412109375,0.17041015625
2023-08-01T16:24:30.159276,0.9999735951423645,-0.006725040264427662,0.0014072038466110826,-0.0023816614411771297,0.033203125,0.96875,0.171875
2023-08-01T16:24:30.159276,0.9999734163284302,-0.0067251441068947315,0.0014067082665860653,-0.002455347217619419,0.033203125,0.96875,0.171875
2023-08-01T16:24:30.160275,0.9999734163284302,-0.0067251441068947315,0.0014067082665860653,-0.002455347217619419,0.03173828125,0.966796875,0.171875
2023-08-01T16:24:30.166259,0.9999731183052063,-0.006725081708282232,0.0014797830954194069,-0.0025400554295629263,0.03173828125,0.966796875,0.171875
2023-08-01T16:24:30.167256,0.9999731183052063,-0.006725081708282232,0.0014797830954194069,-0.0025400554295629263,0.029296875,0.97021484375,0.16845703125
2023-08-01T16:24:30.173760,0.9999728202819824,-0.0067250593565404415,0.001537067350000143,-0.0026246574707329273,0.029296875,0.97021484375,0.16845703125
2023-08-01T16:24:30.181237,0.9999728202819824,-0.0067250593565404415,0.001537067350000143,-0.0026246574707329273,0.0244140625,0.97216796875,0.17138671875
2023-08-01T16:24:30.182235,0.9999725222587585,-0.00672499043866992,0.001599756651557982,-0.0026882407255470753,0.0244140625,0.97216796875,0.17138671875
2023-08-01T16:24:30.189369,0.9999725222587585,-0.00672499043866992,0.001599756651557982,-0.0026882407255470753,0.03076171875,0.96875,0.16943359375
2023-08-01T16:24:30.196858,0.9999717473983765,-0.006788062863051891,0.0016834927955642343,-0.002778182039037347,0.03076171875,0.96875,0.16943359375
2023-08-01T16:24:30.197858,0.9999717473983765,-0.006788062863051891,0.0016834927955642343,-0.002778182039037347,0.029296875,0.9716796875,0.16748046875
2023-08-01T16:24:30.198363,0.9999713897705078,-0.006787862163037062,0.001793549512512982,-0.002842090791091323,0.029296875,0.9716796875,0.16748046875
2023-08-01T16:24:30.211352,0.9999713897705078,-0.006787862163037062,0.001793549512512982,-0.002842090791091323,0.029296875,0.9775390625,0.16650390625
2023-08-01T16:24:30.211352,0.9999710917472839,-0.006787985563278198,0.001793079311028123,-0.002911329735070467,0.029296875,0.9775390625,0.16650390625
2023-08-01T16:24:30.219136,0.9999710917472839,-0.006787985563278198,0.001793079311028123,-0.002911329735070467,0.033203125,0.9736328125,0.16845703125
2023-08-01T16:24:30.220135,0.9999710917472839,-0.006787985563278198,0.001793079311028123,-0.002911329735070467,0.033203125,0.9736328125,0.16845703125
2023-08-01T16:24:30.227118,0.9999710917472839,-0.006787985563278198,0.001793079311028123,-0.002911329735070467,0.03466796875,0.9697265625,0.1748046875
2023-08-01T16:24:30.227623,0.9999710321426392,-0.006788279395550489,0.0017242487519979477,-0.0029634968377649784,0.03466796875,0.9697265625,0.1748046875
2023-08-01T16:24:30.241486,0.9999710321426392,-0.006788279395550489,0.0017242487519979477,-0.0029634968377649784,0.02294921875,0.9697265625,0.17431640625
