Timestamp,w,x,y,z,ax,ay,az
2023-08-01T15:51:26.825416,0.8870375156402588,-0.005577089264988899,-0.4606097638607025,0.031176624819636345,-0.73828125,-0.01171875,0.71484375
2023-08-01T15:51:26.831943,0.8864139318466187,-0.00581563264131546,-0.4618077874183655,0.031146463006734848,-0.73828125,-0.01171875,0.71484375
2023-08-01T15:51:26.832941,0.8864139318466187,-0.00581563264131546,-0.4618077874183655,0.031146463006734848,-0.72216796875,-0.01611328125,0.7177734375
2023-08-01T15:51:26.840169,0.9999986886978149,-0.00044209221960045397,-0.0015287447022274137,0.0,-0.72216796875,-0.01611328125,0.7177734375
2023-08-01T15:51:26.899046,0.9999986886978149,-0.00044209221960045397,-0.0015287447022274137,0.0,-0.6572265625,-0.03564453125,0.7900390625
2023-08-01T15:51:26.900370,0.9999980330467224,-0.0006710027228109539,-0.0018803703133016825,-8.008882286958396e-05,-0.6572265625,-0.03564453125,0.7900390625
2023-08-01T15:51:26.915195,0.9999980330467224,-0.0006710027228109539,-0.0018803703133016825,-8.008882286958396e-05,-0.6640625,-0.03662109375,0.79443359375
2023-08-01T15:51:26.916192,0.9999977946281433,-0.000833996688015759,-0.0019541531801223755,-0.00017508838209323585,-0.6640625,-0.03662109375,0.79443359375
2023-08-01T15:51:26.921702,0.9999977946281433,-0.000833996688015759,-0.0019541531801223755,-0.00017508838209323585,-0.66796875,-0.0390625,0.79150390625
2023-08-01T15:51:26.922700,0.9999977946281433,-0.0009495753911323845,-0.0018437212565913796,-0.00027541263261809945,-0.66796875,-0.0390625,0.79150390625
2023-08-01T15:51:26.929197,0.9999977946281433,-0.0009495753911323845,-0.0018437212565913796,-0.00027541263261809945,-0.681640625,-0.04150390625,0.78271484375
2023-08-01T15:51:26.930404,0.9999980926513672,-0.0010019992478191853,-0.0016596009954810143,-0.00035989948082715273,-0.681640625,-0.04150390625,0.78271484375
2023-08-01T15:51:26.945046,0.9999980926513672,-0.0010019992478191853,-0.0016596009954810143,-0.00035989948082715273,-0.68701171875,-0.0419921875,0.7744140625
2023-08-01T15:51:26.945046,0.9999983906745911,-0.0010019291657954454,-0.0014648879878222942,-0.00036009459290653467,-0.68701171875,-0.0419921875,0.7744140625
2023-08-01T15:51:26.952295,0.9999983906745911,-0.0010019291657954454,-0.0014648879878222942,-0.00036009459290653467,-0.69189453125,-0.03955078125,0.7685546875
2023-08-01T15:51:26.952295,0.9999985694885254,-0.001001789583824575,-0.0013371582608669996,-0.00042413725168444216,-0.69189453125,-0.03955078125,0.7685546875
2023-08-01T15:51:26.959986,0.9999985694885254,-0.001001789583824575,-0.0013371582608669996,-0.00042413725168444216,-0.69482421875,-0.03759765625,0.76318359375
2023-08-01T15:51:26.960923,0.9999985694885254,-0.001001789583824575,-0.0013371582608669996,-0.00042413725168444216,-0.69482421875,-0.03759765625,0.76318359375
2023-08-01T15:51:26.974147,0.9999985694885254,-0.001001789583824575,-0.0013371582608669996,-0.00042413725168444216,-0.69287109375,-0.03515625,0.7607421875
2023-08-01T15:51:26.975146,0.9999985098838806,-0.0010018119355663657,-0.0013898360775783658,-0.0004240844864398241,-0.69287109375,-0.03515625,0.7607421875
2023-08-01T15:51:26.982366,0.9999985098838806,-0.0010018119355663657,-0.0013898360775783658,-0.0004240844864398241,-0.6884765625,-0.0341796875,0.75634765625
2023-08-01T15:51:26.982366,0.9999982714653015,-0.0010018766624853015,-0.0015425230376422405,-0.0004239315167069435,-0.6884765625,-0.0341796875,0.75634765625
2023-08-01T15:51:26.989974,0.9999982714653015,-0.0010018766624853015,-0.0015425230376422405,-0.0004239315167069435,-0.6796875,-0.03125,0.76025390625
2023-08-01T15:51:26.989974,0.9999979734420776,-0.0010019547771662474,-0.0017267917282879353,-0.00042374691111035645,-0.6796875,-0.03125,0.76025390625
2023-08-01T15:51:27.004949,0.9999979734420776,-0.0010019547771662474,-0.0017267917282879353,-0.00042374691111035645,-0.677734375,-0.0341796875,0.76416015625
2023-08-01T15:51:27.005947,0.9999974966049194,-0.0010020461631938815,-0.0019426420331001282,-0.00042353058233857155,-0.677734375,-0.0341796875,0.76416015625
2023-08-01T15:51:27.012479,0.9999974966049194,-0.0010020461631938815,-0.0019426420331001282,-0.00042353058233857155,-0.6748046875,-0.04443359375,0.77001953125
2023-08-01T15:51:27.013476,0.9999973773956299,-0.0009023965103551745,-0.0021057454869151115,-0.00027052423683926463,-0.6748046875,-0.04443359375,0.77001953125
2023-08-01T15:51:27.020016,0.9999973773956299,-0.0009023965103551745,-0.0021057454869151115,-0.00027052423683926463,-0.66748046875,-0.033203125,0.77294921875
2023-08-01T15:51:27.020016,0.9999975562095642,-0.0007854541763663292,-0.0021056714467704296,-0.00015309161972254515,-0.66748046875,-0.033203125,0.77294921875
2023-08-01T15:51:27.034417,0.9999975562095642,-0.0007854541763663292,-0.0021056714467704296,-0.00015309161972254515,-0.67529296875,-0.02734375,0.771484375
2023-08-01T15:51:27.035414,0.999997615814209,-0.0006845248863101006,-0.002105582505464554,-1.971315941773355e-05,-0.67529296875,-0.02734375,0.771484375
2023-08-01T15:51:27.041921,0.999997615814209,-0.0006845248863101006,-0.002105582505464554,-1.971315941773355e-05,-0.67919921875,-0.03125,0.7705078125
2023-08-01T15:51:27.042919,0.9999978542327881,-0.0005608117207884789,-0.0020073766354471445,0.00011480398825369775,-0.67919921875,-0.03125,0.7705078125
2023-08-01T15:51:27.050168,0.9999978542327881,-0.0005608117207884789,-0.0020073766354471445,0.00011480398825369775,-0.68603515625,-0.02978515625,0.77392578125
2023-08-01T15:51:27.051168,0.9999980926513672,-0.00044002794311381876,-0.001907318364828825,0.00025184862897731364,-0.68603515625,-0.02978515625,0.77392578125
2023-08-01T15:51:27.064366,0.9999980926513672,-0.00044002794311381876,-0.001907318364828825,0.00025184862897731364,-0.68994140625,-0.0263671875,0.77587890625
2023-08-01T15:51:27.065363,0.9999982714653015,-0.0003231385489925742,-0.0018060641596093774,0.0003958460292778909,-0.68994140625,-0.0263671875,0.77587890625
2023-08-01T15:51:27.072494,0.9999982714653015,-0.0003231385489925742,-0.0018060641596093774,0.0003958460292778909,-0.6884765625,-0.02587890625,0.7734375
2023-08-01T15:51:27.072494,0.9999984502792358,-0.00019932526629418135,-0.0017027074936777353,0.0004735321563202888,-0.6884765625,-0.02587890625,0.7734375
2023-08-01T15:51:27.079999,0.9999984502792358,-0.00019932526629418135,-0.0017027074936777353,0.0004735321563202888,-0.6875,-0.02587890625,0.7705078125
2023-08-01T15:51:27.079999,0.9999985694885254,-9.948658407665789e-05,-0.0016132040182128549,0.0005526423337869346,-0.6875,-0.02587890625,0.7705078125
2023-08-01T15:51:27.094976,0.9999985694885254,-9.948658407665789e-05,-0.0016132040182128549,0.0005526423337869346,-0.68896484375,-0.02587890625,0.77001953125
2023-08-01T15:51:27.096970,0.9999986290931702,-1.9698127289302647e-05,-0.0015599316684529185,0.0006060340674594045,-0.68896484375,-0.02587890625,0.77001953125
2023-08-01T15:51:27.113065,0.9999986290931702,-1.9698127289302647e-05,-0.0015599316684529185,0.0006060340674594045,-0.685546875,-0.02490234375,0.76806640625
2023-08-01T15:51:27.114062,0.9999986290931702,-1.9698127289302647e-05,-0.0015599316684529185,0.0006060340674594045,-0.685546875,-0.02490234375,0.76806640625
2023-08-01T15:51:27.115059,0.9999986290931702,-1.9698127289302647e-05,-0.0015599316684529185,0.0006060340674594045,-0.68017578125,-0.02587890625,0.76611328125
2023-08-01T15:51:27.115059,0.9999986290931702,-1.9698127289302647e-05,-0.0015599316684529185,0.0006060340674594045,-0.68017578125,-0.02587890625,0.76611328125
2023-08-01T15:51:27.117053,0.9999986290931702,-1.9698127289302647e-05,-0.0015599316684529185,0.0006060340674594045,-0.6826171875,-0.0263671875,0.7666015625
2023-08-01T15:51:27.125175,0.9999986290931702,-1.9698127289302647e-05,-0.0015599316684529185,0.0006060340674594045,-0.6826171875,-0.0263671875,0.7666015625
2023-08-01T15:51:27.132272,0.9999986290931702,-1.9698127289302647e-05,-0.0015599316684529185,0.0006060340674594045,-0.68359375,-0.02734375,0.76611328125
2023-08-01T15:51:27.133274,0.9999986886978149,-1.9616023564594798e-05,-0.001559932716190815,0.0005534008960239589,-0.68359375,-0.02734375,0.76611328125
2023-08-01T15:51:27.141379,0.9999986886978149,-1.9616023564594798e-05,-0.001559932716190815,0.0005534008960239589,-0.68017578125,-0.02783203125,0.76611328125
2023-08-01T15:51:27.141379,0.9999986290931702,-1.9517496184562333e-05,-0.0015599337639287114,0.0004902403452433646,-0.68017578125,-0.02783203125,0.76611328125
2023-08-01T15:51:27.147361,0.9999986290931702,-1.9517496184562333e-05,-0.0015599337639287114,0.0004902403452433646,-0.6826171875,-0.02587890625,0.76416015625
2023-08-01T15:51:27.148360,0.9999986886978149,-1.9394337869016454e-05,-0.0015599352773278952,0.00041128898737952113,-0.6826171875,-0.02587890625,0.76416015625
2023-08-01T15:51:27.182452,0.9999986886978149,-1.9394337869016454e-05,-0.0015599352773278952,0.00041128898737952113,-0.68408203125,-0.02685546875,0.7626953125
2023-08-01T15:51:27.182452,0.9999987483024597,-7.785463822074234e-05,-0.001559960888698697,0.00033130348310805857,-0.68408203125,-0.02685546875,0.7626953125
2023-08-01T15:51:27.183449,0.9999987483024597,-7.785463822074234e-05,-0.001559960888698697,0.00033130348310805857,-0.6865234375,-0.02783203125,0.7666015625
2023-08-01T15:51:27.183449,0.9999987483024597,-0.0001619350805412978,-0.0015599953476339579,0.0002469570899847895,-0.6865234375,-0.02783203125,0.7666015625
2023-08-01T15:51:27.184446,0.9999987483024597,-0.0001619350805412978,-0.0015599953476339579,0.0002469570899847895,-0.68505859375,-0.0302734375,0.76953125
2023-08-01T15:51:27.185445,0.9999987483024597,-0.0002249938261229545,-0.0015600211918354034,0.00018369811004959047,-0.68505859375,-0.0302734375,0.76953125
2023-08-01T15:51:27.192452,0.9999987483024597,-0.0002249938261229545,-0.0015600211918354034,0.00018369811004959047,-0.68017578125,-0.0322265625,0.767578125
2023-08-01T15:51:27.193449,0.9999987483024597,-0.00029858804191462696,-0.00156004773452878,0.00012568634701892734,-0.68017578125,-0.0322265625,0.767578125
2023-08-01T15:51:27.200446,0.9999987483024597,-0.00029858804191462696,-0.00156004773452878,0.00012568634701892734,-0.68212890625,-0.033203125,0.765625
2023-08-01T15:51:27.201444,0.9999988675117493,-0.00029859531787224114,-0.0015021892031654716,0.00012566907389555126,-0.68212890625,-0.033203125,0.765625
2023-08-01T15:51:27.208937,0.9999988675117493,-0.00029859531787224114,-0.0015021892031654716,0.00012566907389555126,-0.68896484375,-0.0341796875,0.7666015625
2023-08-01T15:51:27.214115,0.9999988675117493,-0.00029859531787224114,-0.0015021892031654716,0.00012566907389555126,-0.68896484375,-0.0341796875,0.7666015625
2023-08-01T15:51:27.228117,0.9999988675117493,-0.00029859531787224114,-0.0015021892031654716,0.00012566907389555126,-0.68701171875,-0.03271484375,0.76513671875
2023-08-01T15:51:27.228117,0.9999988675117493,-0.00029859531787224114,-0.0015021892031654716,0.00012566907389555126,-0.68701171875,-0.03271484375,0.76513671875
2023-08-01T15:51:27.229976,0.9999988675117493,-0.00029859531787224114,-0.0015021892031654716,0.00012566907389555126,-0.68798828125,-0.0322265625,0.7666015625
2023-08-01T15:51:27.229976,0.9999988675117493,-0.00029859531787224114,-0.0015021892031654716,0.00012566907389555126,-0.68798828125,-0.0322265625,0.7666015625
2023-08-01T15:51:27.236481,0.9999988675117493,-0.00029859531787224114,-0.0015021892031654716,0.00012566907389555126,-0.6865234375,-0.03173828125,0.76611328125
2023-08-01T15:51:27.237987,0.9999988675117493,-0.00029859531787224114,-0.0015021892031654716,0.00012566907389555126,-0.6865234375,-0.03173828125,0.76611328125
2023-08-01T15:51:27.255950,0.9999988675117493,-0.00029859531787224114,-0.0015021892031654716,0.00012566907389555126,-0.68359375,-0.02978515625,0.76708984375
2023-08-01T15:51:27.256947,0.9999988675117493,-0.00029859531787224114,-0.0015021892031654716,0.00012566907389555126,-0.68359375,-0.02978515625,0.76708984375
2023-08-01T15:51:27.261145,0.9999988675117493,-0.00029859531787224114,-0.0015021892031654716,0.00012566907389555126,-0.68505859375,-0.029296875,0.763671875
2023-08-01T15:51:27.262143,0.9999988675117493,-0.00029859531787224114,-0.0015021892031654716,0.00012566907389555126,-0.68505859375,-0.029296875,0.763671875
2023-08-01T15:51:27.276150,0.9999988675117493,-0.00029859531787224114,-0.0015021892031654716,0.00012566907389555126,-0.685546875,-0.03076171875,0.7626953125
2023-08-01T15:51:27.277147,0.9999988675117493,-0.00029859531787224114,-0.0015021892031654716,0.00012566907389555126,-0.685546875,-0.03076171875,0.7626953125
2023-08-01T15:51:27.290981,0.9999988675117493,-0.00029859531787224114,-0.0015021892031654716,0.00012566907389555126,-0.68212890625,-0.03173828125,0.76416015625
2023-08-01T15:51:27.290981,0.9999988675117493,-0.00029859531787224114,-0.0015021892031654716,0.00012566907389555126,-0.68212890625,-0.03173828125,0.76416015625
2023-08-01T15:51:27.291978,0.9999988675117493,-0.00029859531787224114,-0.0015021892031654716,0.00012566907389555126,-0.6826171875,-0.03076171875,0.767578125
2023-08-01T15:51:27.292975,0.9999988675117493,-0.00029859531787224114,-0.0015021892031654716,0.00012566907389555126,-0.6826171875,-0.03076171875,0.767578125
2023-08-01T15:51:27.359550,0.9999988675117493,-0.00029859531787224114,-0.0015021892031654716,0.00012566907389555126,-0.68359375,-0.0302734375,0.76953125
2023-08-01T15:51:27.360549,0.9999988675117493,-0.00029859531787224114,-0.0015021892031654716,0.00012566907389555126,-0.68359375,-0.0302734375,0.76953125
2023-08-01T15:51:27.361547,0.9999988675117493,-0.00029859531787224114,-0.0015021892031654716,0.00012566907389555126,-0.68359375,-0.02978515625,0.7685546875
2023-08-01T15:51:27.362545,0.999998927116394,-0.0002986019244417548,-0.0014495942741632462,0.00012565337237901986,-0.68359375,-0.02978515625,0.7685546875
2023-08-01T15:51:27.363542,0.999998927116394,-0.0002986019244417548,-0.0014495942741632462,0.00012565337237901986,-0.685546875,-0.03076171875,0.76708984375
2023-08-01T15:51:27.364539,0.999998927116394,-0.0002986019244417548,-0.0014495942741632462,0.00012565337237901986,-0.685546875,-0.03076171875,0.76708984375
2023-08-01T15:51:27.365538,0.999998927116394,-0.0002986019244417548,-0.0014495942741632462,0.00012565337237901986,-0.6845703125,-0.03125,0.767578125
2023-08-01T15:51:27.365538,0.999998927116394,-0.00024595914874225855,-0.001449587638489902,0.0001257296826224774,-0.6845703125,-0.03125,0.767578125
2023-08-01T15:51:27.368040,0.999998927116394,-0.00024595914874225855,-0.001449587638489902,0.0001257296826224774,-0.68505859375,-0.02880859375,0.76708984375
2023-08-01T15:51:27.369040,0.9999990463256836,-0.00024597052833996713,-0.0013590792659670115,0.000125707418192178,-0.68505859375,-0.02880859375,0.76708984375
2023-08-01T15:51:27.370056,0.9999990463256836,-0.00024597052833996713,-0.0013590792659670115,0.000125707418192178,-0.68701171875,-0.02734375,0.7626953125
2023-08-01T15:51:27.371053,0.9999990463256836,-0.00024597052833996713,-0.0013590792659670115,0.000125707418192178,-0.68701171875,-0.02734375,0.7626953125
2023-08-01T15:51:27.372051,0.9999990463256836,-0.00024597052833996713,-0.0013590792659670115,0.000125707418192178,-0.68603515625,-0.0283203125,0.76025390625
2023-08-01T15:51:27.372051,0.9999990463256836,-0.0002460563846398145,-0.0013590637827292085,0.00018887428450398147,-0.68603515625,-0.0283203125,0.76025390625
2023-08-01T15:51:27.373049,0.9999990463256836,-0.0002460563846398145,-0.0013590637827292085,0.00018887428450398147,-0.68994140625,-0.029296875,0.763671875
2023-08-01T15:51:27.375043,0.9999990463256836,-0.0002461360127199441,-0.001359049347229302,0.00024746893905103207,-0.68994140625,-0.029296875,0.763671875
2023-08-01T15:51:27.383372,0.9999990463256836,-0.0002461360127199441,-0.001359049347229302,0.00024746893905103207,-0.6904296875,-0.02880859375,0.7646484375
2023-08-01T15:51:27.385368,0.9999990463256836,-0.0002461360127199441,-0.001359049347229302,0.00024746893905103207,-0.6904296875,-0.02880859375,0.7646484375
2023-08-01T15:51:27.439735,0.9999990463256836,-0.0002461360127199441,-0.001359049347229302,0.00024746893905103207,-0.68603515625,-0.02978515625,0.76513671875
2023-08-01T15:51:27.440735,0.9999990463256836,-0.0002461360127199441,-0.001359049347229302,0.00024746893905103207,-0.68603515625,-0.02978515625,0.76513671875
2023-08-01T15:51:27.494627,0.9999990463256836,-0.0002461360127199441,-0.001359049347229302,0.00024746893905103207,-0.68359375,-0.02880859375,0.7646484375
2023-08-01T15:51:27.495623,0.9999990463256836,-0.0002461360127199441,-0.001359049347229302,0.00024746893905103207,-0.68359375,-0.02880859375,0.7646484375
2023-08-01T15:51:27.496621,0.9999990463256836,-0.0002461360127199441,-0.001359049347229302,0.00024746893905103207,-0.68310546875,-0.03173828125,0.7646484375
2023-08-01T15:51:27.499129,0.9999990463256836,-0.0002461360127199441,-0.001359049347229302,0.00024746893905103207,-0.68310546875,-0.03173828125,0.7646484375
2023-08-01T15:51:27.499129,0.9999990463256836,-0.0002461360127199441,-0.001359049347229302,0.00024746893905103207,-0.6865234375,-0.03125,0.7666015625
2023-08-01T15:51:27.503390,0.9999990463256836,-0.0002461360127199441,-0.001359049347229302,0.00024746893905103207,-0.6865234375,-0.03125,0.7666015625
2023-08-01T15:51:27.504387,0.9999990463256836,-0.0002461360127199441,-0.001359049347229302,0.00024746893905103207,-0.68408203125,-0.0302734375,0.7666015625
2023-08-01T15:51:27.505385,0.9999990463256836,-0.0002461360127199441,-0.001359049347229302,0.00024746893905103207,-0.68408203125,-0.0302734375,0.7666015625
2023-08-01T15:51:27.507889,0.9999990463256836,-0.0002461360127199441,-0.001359049347229302,0.00024746893905103207,-0.68505859375,-0.0302734375,0.76416015625
2023-08-01T15:51:27.508889,0.9999990463256836,-0.0002461360127199441,-0.001359049347229302,0.00024746893905103207,-0.68505859375,-0.0302734375,0.76416015625
2023-08-01T15:51:27.513968,0.9999990463256836,-0.0002461360127199441,-0.001359049347229302,0.00024746893905103207,-0.6865234375,-0.02783203125,0.76171875
2023-08-01T15:51:27.533264,0.9999990463256836,-0.0002461360127199441,-0.001359049347229302,0.00024746893905103207,-0.6865234375,-0.02783203125,0.76171875
2023-08-01T15:51:27.534260,0.9999990463256836,-0.0002461360127199441,-0.001359049347229302,0.00024746893905103207,-0.68798828125,-0.0283203125,0.76123046875
2023-08-01T15:51:27.535258,0.9999990463256836,-0.0002461360127199441,-0.001359049347229302,0.00024746893905103207,-0.68798828125,-0.0283203125,0.76123046875
2023-08-01T15:51:27.536255,0.9999990463256836,-0.0002461360127199441,-0.001359049347229302,0.00024746893905103207,-0.689453125,-0.0283203125,0.759765625
2023-08-01T15:51:27.537254,0.9999990463256836,-0.0002461360127199441,-0.001359049347229302,0.00024746893905103207,-0.689453125,-0.0283203125,0.759765625
2023-08-01T15:51:27.545489,0.9999990463256836,-0.0002461360127199441,-0.001359049347229302,0.00024746893905103207,-0.68798828125,-0.029296875,0.76025390625
2023-08-01T15:51:27.546485,0.9999990463256836,-0.0002461360127199441,-0.001359049347229302,0.00024746893905103207,-0.68798828125,-0.029296875,0.76025390625
2023-08-01T15:51:27.555481,0.9999990463256836,-0.0002461360127199441,-0.001359049347229302,0.00024746893905103207,-0.68798828125,-0.02978515625,0.76171875
2023-08-01T15:51:27.556480,0.9999990463256836,-0.0002461360127199441,-0.001359049347229302,0.00024746893905103207,-0.68798828125,-0.02978515625,0.76171875
2023-08-01T15:51:27.564993,0.9999990463256836,-0.0002461360127199441,-0.001359049347229302,0.00024746893905103207,-0.685546875,-0.029296875,0.76318359375
2023-08-01T15:51:27.565989,0.9999990463256836,-0.0002461360127199441,-0.001359049347229302,0.00024746893905103207,-0.685546875,-0.029296875,0.76318359375
2023-08-01T15:51:27.567984,0.9999990463256836,-0.0002461360127199441,-0.001359049347229302,0.00024746893905103207,-0.68310546875,-0.0283203125,0.7626953125
2023-08-01T15:51:27.567984,0.999998927116394,-0.0002461188705638051,-0.0014283357886597514,0.0002474859938956797,-0.68310546875,-0.0283203125,0.7626953125
2023-08-01T15:51:27.567984,0.999998927116394,-0.0002461188705638051,-0.0014283357886597514,0.0002474859938956797,-0.6826171875,-0.02734375,0.7666015625
2023-08-01T15:51:27.589247,0.9999988079071045,-0.00024610324180684984,-0.0014915409265086055,0.00024750156444497406,-0.6826171875,-0.02734375,0.7666015625
2023-08-01T15:51:27.590515,0.9999988079071045,-0.00024610324180684984,-0.0014915409265086055,0.00024750156444497406,-0.68310546875,-0.02734375,0.7685546875
2023-08-01T15:51:27.591512,0.9999986886978149,-0.00024608499370515347,-0.0015652733854949474,0.0002475196961313486,-0.68310546875,-0.02734375,0.7685546875
2023-08-01T15:51:27.591512,0.9999986886978149,-0.00024608499370515347,-0.0015652733854949474,0.0002475196961313486,-0.6826171875,-0.0283203125,0.77099609375
2023-08-01T15:51:27.592509,0.9999985694885254,-0.00024606933584436774,-0.0016284785233438015,0.0002475352375768125,-0.6826171875,-0.0283203125,0.77099609375
2023-08-01T15:51:27.593507,0.9999985694885254,-0.00024606933584436774,-0.0016284785233438015,0.0002475352375768125,-0.68408203125,-0.029296875,0.771484375
2023-08-01T15:51:27.594504,0.9999985694885254,-0.00024606933584436774,-0.0016284785233438015,0.0002475352375768125,-0.68408203125,-0.029296875,0.771484375
2023-08-01T15:51:27.596499,0.9999985694885254,-0.00024606933584436774,-0.0016284785233438015,0.0002475352375768125,-0.68310546875,-0.02685546875,0.7685546875
2023-08-01T15:51:27.598006,0.9999985694885254,-0.00024606933584436774,-0.0016284785233438015,0.0002475352375768125,-0.68310546875,-0.02685546875,0.7685546875
2023-08-01T15:51:27.603500,0.9999985694885254,-0.00024606933584436774,-0.0016284785233438015,0.0002475352375768125,-0.68212890625,-0.02734375,0.76953125
2023-08-01T15:51:27.605495,0.9999985694885254,-0.00024606933584436774,-0.0016284785233438015,0.0002475352375768125,-0.68212890625,-0.02734375,0.76953125
2023-08-01T15:51:27.605495,0.9999985694885254,-0.00024606933584436774,-0.0016284785233438015,0.0002475352375768125,-0.68505859375,-0.02783203125,0.76904296875
2023-08-01T15:51:27.606492,0.9999985694885254,-0.00024606933584436774,-0.0016284785233438015,0.0002475352375768125,-0.68505859375,-0.02783203125,0.76904296875
2023-08-01T15:51:27.606492,0.9999985694885254,-0.00024606933584436774,-0.0016284785233438015,0.0002475352375768125,-0.68603515625,-0.025390625,0.76806640625
2023-08-01T15:51:27.608999,0.9999985694885254,-0.00024606933584436774,-0.0016284785233438015,0.0002475352375768125,-0.68603515625,-0.025390625,0.76806640625
2023-08-01T15:51:27.610180,0.9999985694885254,-0.00024606933584436774,-0.0016284785233438015,0.0002475352375768125,-0.68603515625,-0.02685546875,0.76513671875
2023-08-01T15:51:27.611197,0.9999985694885254,-0.00024606933584436774,-0.0016284785233438015,0.0002475352375768125,-0.68603515625,-0.02685546875,0.76513671875
2023-08-01T15:51:27.612194,0.9999985694885254,-0.00024606933584436774,-0.0016284785233438015,0.0002475352375768125,-0.6806640625,-0.0263671875,0.76806640625
2023-08-01T15:51:27.613192,0.9999985694885254,-0.00024606933584436774,-0.0016284785233438015,0.0002475352375768125,-0.6806640625,-0.0263671875,0.76806640625
2023-08-01T15:51:27.619141,0.9999985694885254,-0.00024606933584436774,-0.0016284785233438015,0.0002475352375768125,-0.68212890625,-0.02783203125,0.77001953125
2023-08-01T15:51:27.620334,0.9999985694885254,-0.00024606933584436774,-0.0016284785233438015,0.0002475352375768125,-0.68212890625,-0.02783203125,0.77001953125
2023-08-01T15:51:27.628313,0.9999985694885254,-0.00024606933584436774,-0.0016284785233438015,0.0002475352375768125,-0.681640625,-0.02880859375,0.77099609375
2023-08-01T15:51:27.628817,0.9999985694885254,-0.00024606933584436774,-0.0016284785233438015,0.0002475352375768125,-0.681640625,-0.02880859375,0.77099609375
2023-08-01T15:51:27.635954,0.9999985694885254,-0.00024606933584436774,-0.0016284785233438015,0.0002475352375768125,-0.68212890625,-0.0283203125,0.7685546875
2023-08-01T15:51:27.635954,0.9999987483024597,-0.0002460953837726265,-0.0015232473379001021,0.000247509335167706,-0.68212890625,-0.0283203125,0.7685546875
2023-08-01T15:51:27.656258,0.9999987483024597,-0.0002460953837726265,-0.0015232473379001021,0.000247509335167706,-0.6845703125,-0.0283203125,0.765625
2023-08-01T15:51:27.658254,0.999998927116394,-0.00024612832930870354,-0.0013901271158829331,0.00024747656425461173,-0.6845703125,-0.0283203125,0.765625
2023-08-01T15:51:27.658847,0.999998927116394,-0.00024612832930870354,-0.0013901271158829331,0.00024747656425461173,-0.68505859375,-0.0302734375,0.76513671875
2023-08-01T15:51:27.658847,0.9999990463256836,-0.00024615306756459177,-0.0012901595328003168,0.0002474519715178758,-0.68505859375,-0.0302734375,0.76513671875
2023-08-01T15:51:27.677269,0.9999990463256836,-0.00024615306756459177,-0.0012901595328003168,0.0002474519715178758,-0.68310546875,-0.02978515625,0.7646484375
2023-08-01T15:51:27.678770,0.9999991655349731,-0.00024617911549285054,-0.0011849282309412956,0.0002474260691087693,-0.68310546875,-0.02978515625,0.7646484375
2023-08-01T15:51:27.678770,0.9999991655349731,-0.00024617911549285054,-0.0011849282309412956,0.0002474260691087693,-0.68408203125,-0.0283203125,0.76318359375
2023-08-01T15:51:27.680138,0.9999994039535522,-0.00024620647309347987,-0.0010744334431365132,0.0002473988861311227,-0.68408203125,-0.0283203125,0.76318359375
2023-08-01T15:51:27.699117,0.9999994039535522,-0.00024620647309347987,-0.0010744334431365132,0.0002473988861311227,-0.68408203125,-0.029296875,0.76123046875
2023-08-01T15:51:27.699117,0.999999463558197,-0.00024622210185043514,-0.0010113111929968,0.0002473833446856588,-0.68408203125,-0.029296875,0.76123046875
2023-08-01T15:51:27.701120,0.999999463558197,-0.00024622210185043514,-0.0010113111929968,0.0002473833446856588,-0.68603515625,-0.03076171875,0.7607421875
2023-08-01T15:51:27.702118,0.9999995231628418,-0.0002462390111759305,-0.0009429253404960036,0.00024736649356782436,-0.68603515625,-0.03076171875,0.7607421875
2023-08-01T15:51:27.703115,0.9999995231628418,-0.0002462390111759305,-0.0009429253404960036,0.00024736649356782436,-0.68505859375,-0.029296875,0.76123046875
2023-08-01T15:51:27.709108,0.9999995827674866,-0.0002462533302605152,-0.0008850668091326952,0.00024735223269090056,-0.68505859375,-0.029296875,0.76123046875
2023-08-01T15:51:27.717273,0.9999995827674866,-0.0002462533302605152,-0.0008850668091326952,0.00024735223269090056,-0.681640625,-0.02880859375,0.76123046875
2023-08-01T15:51:27.718271,0.9999996423721313,-0.00024626782396808267,-0.0008265173528343439,0.0002473378262948245,-0.681640625,-0.02880859375,0.76123046875
2023-08-01T15:51:27.725210,0.9999996423721313,-0.00024626782396808267,-0.0008265173528343439,0.0002473378262948245,-0.681640625,-0.029296875,0.7626953125
2023-08-01T15:51:27.726208,0.9999997019767761,-0.00024628735263831913,-0.0007476042374037206,0.0002473183849360794,-0.681640625,-0.029296875,0.7626953125
2023-08-01T15:51:27.732709,0.9999997019767761,-0.00024628735263831913,-0.0007476042374037206,0.0002473183849360794,-0.6826171875,-0.0302734375,0.76513671875
2023-08-01T15:51:27.733708,0.9999997615814209,-0.0002463081618770957,-0.0006634274614043534,0.0002472976630087942,-0.6826171875,-0.0302734375,0.76513671875
2023-08-01T15:51:27.746691,0.9999997615814209,-0.0002463081618770957,-0.0006634274614043534,0.0002472976630087942,-0.68603515625,-0.0283203125,0.76513671875
2023-08-01T15:51:27.748197,0.9999998211860657,-0.000246334180701524,-0.0005581961013376713,0.00024727173149585724,-0.68603515625,-0.0283203125,0.76513671875
2023-08-01T15:51:27.755098,0.9999998211860657,-0.000246334180701524,-0.0005581961013376713,0.00024727173149585724,-0.69384765625,-0.0263671875,0.76611328125
2023-08-01T15:51:27.755098,0.9999998211860657,-0.000246334180701524,-0.0005581961013376713,0.00024727173149585724,-0.69384765625,-0.0263671875,0.76611328125
2023-08-01T15:51:27.796868,0.9999998211860657,-0.000246334180701524,-0.0005581961013376713,0.00024727173149585724,-0.69677734375,-0.02587890625,0.76416015625
2023-08-01T15:51:27.796868,0.9999998211860657,-0.000246334180701524,-0.0005581961013376713,0.00024727173149585724,-0.69677734375,-0.02587890625,0.76416015625
2023-08-01T15:51:27.798375,0.9999998211860657,-0.000246334180701524,-0.0005581961013376713,0.00024727173149585724,-0.6923828125,-0.025390625,0.76416015625
2023-08-01T15:51:27.825887,0.9999998211860657,-0.000246334180701524,-0.0005581961013376713,0.00024727173149585724,-0.6923828125,-0.025390625,0.76416015625
2023-08-01T15:51:27.826884,0.9999998211860657,-0.000246334180701524,-0.0005581961013376713,0.00024727173149585724,-0.6884765625,-0.0263671875,0.76708984375
2023-08-01T15:51:27.849745,0.9999997615814209,-0.000246318377321586,-0.0006221560761332512,0.00024728747666813433,-0.6884765625,-0.0263671875,0.76708984375
2023-08-01T15:51:27.850745,0.9999997615814209,-0.000246318377321586,-0.0006221560761332512,0.00024728747666813433,-0.6865234375,-0.02783203125,0.76708984375
2023-08-01T15:51:27.851743,0.9999997019767761,-0.0002463040582370013,-0.0006800976698286831,0.00024730173754505813,-0.6865234375,-0.02783203125,0.76708984375
2023-08-01T15:51:27.852740,0.9999997019767761,-0.0002463040582370013,-0.0006800976698286831,0.00024730173754505813,-0.685546875,-0.02880859375,0.7705078125
2023-08-01T15:51:27.853738,0.9999997019767761,-0.0002463040582370013,-0.0006800976698286831,0.00024730173754505813,-0.685546875,-0.02880859375,0.7705078125
2023-08-01T15:51:27.853738,0.9999997019767761,-0.0002463040582370013,-0.0006800976698286831,0.00024730173754505813,-0.685546875,-0.029296875,0.7685546875
2023-08-01T15:51:27.854734,0.9999997019767761,-0.0002463040582370013,-0.0006800976698286831,0.00024730173754505813,-0.685546875,-0.029296875,0.7685546875
2023-08-01T15:51:27.854734,0.9999997019767761,-0.0002463040582370013,-0.0006800976698286831,0.00024730173754505813,-0.681640625,-0.0302734375,0.76611328125
2023-08-01T15:51:27.856729,0.9999997019767761,-0.0002463040582370013,-0.0006800976698286831,0.00024730173754505813,-0.681640625,-0.0302734375,0.76611328125
2023-08-01T15:51:27.856729,0.9999997019767761,-0.0002463040582370013,-0.0006800976698286831,0.00024730173754505813,-0.68017578125,-0.03076171875,0.76513671875
2023-08-01T15:51:27.858291,0.9999997019767761,-0.0002463040582370013,-0.0006800976698286831,0.00024730173754505813,-0.68017578125,-0.03076171875,0.76513671875
2023-08-01T15:51:27.860080,0.9999997019767761,-0.0002463040582370013,-0.0006800976698286831,0.00024730173754505813,-0.6826171875,-0.03271484375,0.763671875
2023-08-01T15:51:27.860807,0.9999997019767761,-0.0002463040582370013,-0.0006800976698286831,0.00024730173754505813,-0.6826171875,-0.03271484375,0.763671875
2023-08-01T15:51:27.894227,0.9999997019767761,-0.0002463040582370013,-0.0006800976698286831,0.00024730173754505813,-0.68115234375,-0.03076171875,0.7646484375
2023-08-01T15:51:27.895224,0.9999997019767761,-0.00018774237832985818,-0.0006800700793974102,0.0003006097686011344,-0.68115234375,-0.03076171875,0.7646484375
2023-08-01T15:51:27.925200,0.9999997019767761,-0.00018774237832985818,-0.0006800700793974102,0.0003006097686011344,-0.68212890625,-0.029296875,0.76513671875
2023-08-01T15:51:27.925200,0.9999997615814209,-0.00012985963257960975,-0.0006011395016685128,0.0003006343322340399,-0.68212890625,-0.029296875,0.76513671875
2023-08-01T15:51:27.926196,0.9999997615814209,-0.00012985963257960975,-0.0006011395016685128,0.0003006343322340399,-0.6845703125,-0.02978515625,0.7666015625
2023-08-01T15:51:27.927194,0.9999998211860657,-5.6182794651249424e-05,-0.0005327314720489085,0.00030066975159570575,-0.6845703125,-0.02978515625,0.7666015625
2023-08-01T15:51:27.927194,0.9999998211860657,-5.6182794651249424e-05,-0.0005327314720489085,0.00030066975159570575,-0.685546875,-0.029296875,0.76416015625
2023-08-01T15:51:27.942055,0.9999998807907104,-5.6203356507467106e-05,-0.00046434561954811215,0.00030066590989008546,-0.685546875,-0.029296875,0.76416015625
2023-08-01T15:51:27.943052,0.9999998807907104,-5.6203356507467106e-05,-0.00046434561954811215,0.00030066590989008546,-0.6875,-0.02880859375,0.7626953125
2023-08-01T15:51:27.943052,0.9999999403953552,1.3026757187617477e-05,-0.00039512236253358424,0.00030069416970945895,-0.6875,-0.02880859375,0.7626953125
2023-08-01T15:51:27.944049,0.9999999403953552,1.3026757187617477e-05,-0.00039512236253358424,0.00030069416970945895,-0.69189453125,-0.02734375,0.765625
2023-08-01T15:51:27.945046,0.9999999403953552,6.467021739808843e-05,-0.00039510763599537313,0.000362711725756526,-0.69189453125,-0.02734375,0.765625
2023-08-01T15:51:27.945046,0.9999999403953552,6.467021739808843e-05,-0.00039510763599537313,0.000362711725756526,-0.6923828125,-0.02490234375,0.76611328125
2023-08-01T15:51:27.946045,0.9999998211860657,6.464074249379337e-05,-0.00039511240902356803,0.0004372858675196767,-0.6923828125,-0.02490234375,0.76611328125
2023-08-01T15:51:27.946045,0.9999998211860657,6.464074249379337e-05,-0.00039511240902356803,0.0004372858675196767,-0.69140625,-0.0234375,0.7666015625
2023-08-01T15:51:27.947041,0.9999997615814209,6.46116241114214e-05,-0.00039511718205176294,0.0005109800840727985,-0.69140625,-0.0234375,0.7666015625
2023-08-01T15:51:27.947041,0.9999997615814209,6.46116241114214e-05,-0.00039511718205176294,0.0005109800840727985,-0.68896484375,-0.02294921875,0.7646484375
2023-08-01T15:51:27.948039,0.9999997615814209,6.46116241114214e-05,-0.00039511718205176294,0.0005109800840727985,-0.68896484375,-0.02294921875,0.7646484375
2023-08-01T15:51:27.948039,0.9999997615814209,6.46116241114214e-05,-0.00039511718205176294,0.0005109800840727985,-0.68798828125,-0.0234375,0.763671875
2023-08-01T15:51:27.956834,0.9999997615814209,6.46466069156304e-05,-0.0004635860677808523,0.0005109756602905691,-0.68798828125,-0.0234375,0.763671875
2023-08-01T15:51:27.956834,0.9999997615814209,6.46466069156304e-05,-0.0004635860677808523,0.0005109756602905691,-0.6845703125,-0.02294921875,0.76318359375
2023-08-01T15:51:27.965034,0.9999997615814209,6.467352068284526e-05,-0.0005162640009075403,0.0005109722260385752,-0.6845703125,-0.02294921875,0.76318359375
2023-08-01T15:51:27.965034,0.9999997615814209,6.467352068284526e-05,-0.0005162640009075403,0.0005109722260385752,-0.68115234375,-0.02294921875,0.763671875
2023-08-01T15:51:27.966032,0.9999997615814209,6.467352068284526e-05,-0.0005162640009075403,0.0005109722260385752,-0.68115234375,-0.02294921875,0.763671875
2023-08-01T15:51:27.972219,0.9999997615814209,6.467352068284526e-05,-0.0005162640009075403,0.0005109722260385752,-0.681640625,-0.02490234375,0.763671875
2023-08-01T15:51:27.973216,0.9999997615814209,6.467352068284526e-05,-0.0005162640009075403,0.0005109722260385752,-0.681640625,-0.02490234375,0.763671875
2023-08-01T15:51:27.980278,0.9999997615814209,6.467352068284526e-05,-0.0005162640009075403,0.0005109722260385752,-0.68115234375,-0.0244140625,0.7626953125
2023-08-01T15:51:27.987259,0.9999997615814209,6.467352068284526e-05,-0.0005162640009075403,0.0005109722260385752,-0.68115234375,-0.0244140625,0.7626953125
2023-08-01T15:51:27.994575,0.9999997615814209,6.467352068284526e-05,-0.0005162640009075403,0.0005109722260385752,-0.6845703125,-0.02587890625,0.76416015625
2023-08-01T15:51:27.995573,0.9999997615814209,6.467352068284526e-05,-0.0005162640009075403,0.0005109722260385752,-0.6845703125,-0.02587890625,0.76416015625
2023-08-01T15:51:28.002336,0.9999997615814209,6.467352068284526e-05,-0.0005162640009075403,0.0005109722260385752,-0.6875,-0.0263671875,0.7626953125
2023-08-01T15:51:28.002336,0.9999997615814209,6.470069638453424e-05,-0.0005162606248632073,0.0004583389963954687,-0.6875,-0.0263671875,0.7626953125
2023-08-01T15:51:28.010910,0.9999997615814209,6.470069638453424e-05,-0.0005162606248632073,0.0004583389963954687,-0.689453125,-0.02587890625,0.76416015625
2023-08-01T15:51:28.011907,0.9999997615814209,6.470069638453424e-05,-0.0005162606248632073,0.0004583389963954687,-0.689453125,-0.02587890625,0.76416015625
2023-08-01T15:51:28.025210,0.9999997615814209,6.470069638453424e-05,-0.0005162606248632073,0.0004583389963954687,-0.68896484375,-0.02490234375,0.7646484375
2023-08-01T15:51:28.025210,0.9999997615814209,6.470069638453424e-05,-0.0005162606248632073,0.0004583389963954687,-0.68896484375,-0.02490234375,0.7646484375
2023-08-01T15:51:28.032207,0.9999997615814209,6.470069638453424e-05,-0.0005162606248632073,0.0004583389963954687,-0.6923828125,-0.025390625,0.7646484375
2023-08-01T15:51:28.044850,0.9999997615814209,6.470069638453424e-05,-0.0005162606248632073,0.0004583389963954687,-0.6923828125,-0.025390625,0.7646484375
2023-08-01T15:51:28.045860,0.9999997615814209,6.470069638453424e-05,-0.0005162606248632073,0.0004583389963954687,-0.69140625,-0.02685546875,0.76513671875
2023-08-01T15:51:28.045860,0.9999997615814209,6.470069638453424e-05,-0.0005162606248632073,0.0004583389963954687,-0.69140625,-0.02685546875,0.76513671875
2023-08-01T15:51:28.054854,0.9999997615814209,6.470069638453424e-05,-0.0005162606248632073,0.0004583389963954687,-0.68896484375,-0.02734375,0.76123046875
2023-08-01T15:51:28.055863,0.9999997615814209,6.470069638453424e-05,-0.0005162606248632073,0.0004583389963954687,-0.68896484375,-0.02734375,0.76123046875
2023-08-01T15:51:28.062375,0.9999997615814209,6.470069638453424e-05,-0.0005162606248632073,0.0004583389963954687,-0.68798828125,-0.02783203125,0.7626953125
2023-08-01T15:51:28.068357,0.9999997615814209,6.470069638453424e-05,-0.0005162606248632073,0.0004583389963954687,-0.68798828125,-0.02783203125,0.7626953125
2023-08-01T15:51:28.070011,0.9999997615814209,6.470069638453424e-05,-0.0005162606248632073,0.0004583389963954687,-0.68701171875,-0.029296875,0.76318359375
2023-08-01T15:51:28.070011,0.9999997615814209,6.470069638453424e-05,-0.0005162606248632073,0.0004583389963954687,-0.68701171875,-0.029296875,0.76318359375
2023-08-01T15:51:28.084618,0.9999997615814209,6.470069638453424e-05,-0.0005162606248632073,0.0004583389963954687,-0.68505859375,-0.0283203125,0.76318359375
2023-08-01T15:51:28.085616,0.9999997615814209,6.470069638453424e-05,-0.0005162606248632073,0.0004583389963954687,-0.68505859375,-0.0283203125,0.76318359375
2023-08-01T15:51:28.092618,0.9999997615814209,6.470069638453424e-05,-0.0005162606248632073,0.0004583389963954687,-0.6875,-0.0283203125,0.76416015625
2023-08-01T15:51:28.093614,0.9999997615814209,6.470069638453424e-05,-0.0005162606248632073,0.0004583389963954687,-0.6875,-0.0283203125,0.76416015625
2023-08-01T15:51:28.099614,0.9999997615814209,6.470069638453424e-05,-0.0005162606248632073,0.0004583389963954687,-0.6875,-0.0283203125,0.76318359375
2023-08-01T15:51:28.099614,0.9999997615814209,6.470069638453424e-05,-0.0005162606248632073,0.0004583389963954687,-0.6875,-0.0283203125,0.76318359375
2023-08-01T15:51:28.114644,0.9999997615814209,6.470069638453424e-05,-0.0005162606248632073,0.0004583389963954687,-0.68994140625,-0.0263671875,0.7646484375
2023-08-01T15:51:28.115642,0.9999997615814209,6.470069638453424e-05,-0.0005162606248632073,0.0004583389963954687,-0.68994140625,-0.0263671875,0.7646484375
2023-08-01T15:51:28.122641,0.9999997615814209,6.470069638453424e-05,-0.0005162606248632073,0.0004583389963954687,-0.6904296875,-0.0263671875,0.763671875
2023-08-01T15:51:28.122641,0.9999997615814209,6.470069638453424e-05,-0.0005162606248632073,0.0004583389963954687,-0.6904296875,-0.0263671875,0.763671875
2023-08-01T15:51:28.129135,0.9999997615814209,6.470069638453424e-05,-0.0005162606248632073,0.0004583389963954687,-0.6904296875,-0.025390625,0.76171875
2023-08-01T15:51:28.130437,0.9999997615814209,6.470069638453424e-05,-0.0005162606248632073,0.0004583389963954687,-0.6904296875,-0.025390625,0.76171875
2023-08-01T15:51:28.144305,0.9999997615814209,6.470069638453424e-05,-0.0005162606248632073,0.0004583389963954687,-0.68896484375,-0.0234375,0.76123046875
2023-08-01T15:51:28.145318,0.9999997615814209,6.47248380118981e-05,-0.0005689385579898953,0.0004583355912473053,-0.68896484375,-0.0234375,0.76123046875
2023-08-01T15:51:28.152216,0.9999997615814209,6.47248380118981e-05,-0.0005689385579898953,0.0004583355912473053,-0.6875,-0.0244140625,0.76318359375
2023-08-01T15:51:28.153214,0.9999997019767761,6.475863483501598e-05,-0.0006426710751838982,0.00045833081821911037,-0.6875,-0.0244140625,0.76318359375
2023-08-01T15:51:28.159208,0.9999997019767761,6.475863483501598e-05,-0.0006426710751838982,0.00045833081821911037,-0.68505859375,-0.02587890625,0.76513671875
2023-08-01T15:51:28.160569,0.9999996423721313,6.479243165813386e-05,-0.0007164035923779011,0.00045832604519091547,-0.68505859375,-0.02587890625,0.76513671875
2023-08-01T15:51:28.174756,0.9999996423721313,6.479243165813386e-05,-0.0007164035923779011,0.00045832604519091547,-0.68408203125,-0.0263671875,0.76513671875
2023-08-01T15:51:28.174756,0.9999995827674866,6.236761237232713e-06,-0.0007803903426975012,0.000458279944723472,-0.68408203125,-0.0263671875,0.76513671875
2023-08-01T15:51:28.181769,0.9999995827674866,6.236761237232713e-06,-0.0007803903426975012,0.000458279944723472,-0.6845703125,-0.02587890625,0.7666015625
2023-08-01T15:51:28.182768,0.9999995827674866,6.236761237232713e-06,-0.0007803903426975012,0.000458279944723472,-0.6845703125,-0.02587890625,0.7666015625
2023-08-01T15:51:28.190039,0.9999995827674866,6.236761237232713e-06,-0.0007803903426975012,0.000458279944723472,-0.68310546875,-0.0263671875,0.7666015625
2023-08-01T15:51:28.190039,0.9999995827674866,-5.1656919822562486e-05,-0.0007804168853908777,0.00045823477557860315,-0.68310546875,-0.0263671875,0.7666015625
2023-08-01T15:51:28.205102,0.9999995827674866,-5.1656919822562486e-05,-0.0007804168853908777,0.00045823477557860315,-0.68359375,-0.02685546875,0.76611328125
2023-08-01T15:51:28.205102,0.9999995827674866,-0.00010955060133710504,-0.0007804434280842543,0.0004581896064337343,-0.68359375,-0.02685546875,0.76611328125
2023-08-01T15:51:28.212279,0.9999995827674866,-0.00010955060133710504,-0.0007804434280842543,0.0004581896064337343,-0.68310546875,-0.02734375,0.7666015625
2023-08-01T15:51:28.212279,0.9999995827674866,-0.0001779715676093474,-0.0007804748020134866,0.0004581362009048462,-0.68310546875,-0.02734375,0.7666015625
2023-08-01T15:51:28.219951,0.9999995827674866,-0.0001779715676093474,-0.0007804748020134866,0.0004581362009048462,-0.6845703125,-0.02783203125,0.7666015625
2023-08-01T15:51:28.219951,0.9999995827674866,-0.00026744711794890463,-0.0007805157802067697,0.0004580663808155805,-0.6845703125,-0.02783203125,0.7666015625
2023-08-01T15:51:28.234448,0.9999995827674866,-0.00026744711794890463,-0.0007805157802067697,0.0004580663808155805,-0.685546875,-0.029296875,0.7666015625
2023-08-01T15:51:28.235445,0.9999996423721313,-0.00034642426180653274,-0.0007174297352321446,0.0004579878877848387,-0.685546875,-0.029296875,0.7666015625
2023-08-01T15:51:28.241958,0.9999996423721313,-0.00034642426180653274,-0.0007174297352321446,0.0004579878877848387,-0.68603515625,-0.0283203125,0.767578125
2023-08-01T15:51:28.242956,0.9999997019767761,-0.0003464531619101763,-0.0006543075433000922,0.00045796603080816567,-0.68603515625,-0.0283203125,0.767578125
2023-08-01T15:51:28.250031,0.9999997019767761,-0.0003464531619101763,-0.0006543075433000922,0.00045796603080816567,-0.68701171875,-0.0283203125,0.7646484375
2023-08-01T15:51:28.250031,0.9999996423721313,-0.0003464848268777132,-0.00058510503731668,0.0004579419910442084,-0.68701171875,-0.0283203125,0.7646484375
2023-08-01T15:51:28.264390,0.9999996423721313,-0.0003464848268777132,-0.00058510503731668,0.0004579419910442084,-0.68896484375,-0.02783203125,0.76513671875
2023-08-01T15:51:28.265387,0.9999997019767761,-0.0003465233894530684,-0.0005009282613173127,0.00045791282900609076,-0.68896484375,-0.02783203125,0.76513671875
2023-08-01T15:51:28.272012,0.9999997019767761,-0.0003465233894530684,-0.0005009282613173127,0.00045791282900609076,-0.69140625,-0.0263671875,0.76513671875
2023-08-01T15:51:28.272012,0.9999997019767761,-0.00034654748742468655,-0.0004483333323150873,0.00045789461000822484,-0.69140625,-0.0263671875,0.76513671875
2023-08-01T15:51:28.279098,0.9999997019767761,-0.00034654748742468655,-0.0004483333323150873,0.00045789461000822484,-0.693359375,-0.025390625,0.76220703125
2023-08-01T15:51:28.280174,0.9999997019767761,-0.00034654748742468655,-0.0004483333323150873,0.00045789461000822484,-0.693359375,-0.025390625,0.76220703125
2023-08-01T15:51:28.287154,0.9999997019767761,-0.00034654748742468655,-0.0004483333323150873,0.00045789461000822484,-0.6923828125,-0.02587890625,0.76123046875
2023-08-01T15:51:28.287154,0.9999997019767761,-0.00034654748742468655,-0.0004483333323150873,0.00045789461000822484,-0.6923828125,-0.02587890625,0.76123046875
2023-08-01T15:51:28.309985,0.9999997019767761,-0.00034654748742468655,-0.0004483333323150873,0.00045789461000822484,-0.68896484375,-0.02685546875,0.7607421875
2023-08-01T15:51:28.309985,0.9999997019767761,-0.00034651855821721256,-0.0005115385283716023,0.00045791652519255877,-0.68896484375,-0.02685546875,0.7607421875
2023-08-01T15:51:28.310986,0.9999997019767761,-0.00034651855821721256,-0.0005115385283716023,0.00045791652519255877,-0.68408203125,-0.029296875,0.76220703125
2023-08-01T15:51:28.316969,0.9999996423721313,-0.00034648479777388275,-0.0005852710455656052,0.0004579420783556998,-0.68408203125,-0.029296875,0.76220703125
2023-08-01T15:51:28.317968,0.9999996423721313,-0.00034648479777388275,-0.0005852710455656052,0.0004579420783556998,-0.68359375,-0.02978515625,0.76318359375
2023-08-01T15:51:28.317968,0.9999995827674866,-0.0003464462060946971,-0.000669530825689435,0.0004579712694976479,-0.68359375,-0.02978515625,0.76318359375
2023-08-01T15:51:28.332468,0.9999995827674866,-0.0003464462060946971,-0.000669530825689435,0.0004579712694976479,-0.68017578125,-0.029296875,0.765625
2023-08-01T15:51:28.332468,0.9999995827674866,-0.0003464462060946971,-0.000669530825689435,0.0004579712694976479,-0.68017578125,-0.029296875,0.765625
2023-08-01T15:51:28.339481,0.9999995827674866,-0.0003464462060946971,-0.000669530825689435,0.0004579712694976479,-0.681640625,-0.02783203125,0.7646484375
2023-08-01T15:51:28.340481,0.9999995827674866,-0.0003464462060946971,-0.000669530825689435,0.0004579712694976479,-0.681640625,-0.02783203125,0.7646484375
2023-08-01T15:51:28.346466,0.9999995827674866,-0.0003464462060946971,-0.000669530825689435,0.0004579712694976479,-0.68359375,-0.02783203125,0.76708984375
2023-08-01T15:51:28.347972,0.9999995827674866,-0.0003464462060946971,-0.000669530825689435,0.0004579712694976479,-0.68359375,-0.02783203125,0.76708984375
2023-08-01T15:51:28.362081,0.9999995827674866,-0.0003464462060946971,-0.000669530825689435,0.0004579712694976479,-0.68505859375,-0.0283203125,0.7666015625
2023-08-01T15:51:28.363078,0.9999995827674866,-0.0003464462060946971,-0.000669530825689435,0.0004579712694976479,-0.68505859375,-0.0283203125,0.7666015625
2023-08-01T15:51:28.369071,0.9999995827674866,-0.0003464462060946971,-0.000669530825689435,0.0004579712694976479,-0.68896484375,-0.025390625,0.76513671875
2023-08-01T15:51:28.376525,0.9999995827674866,-0.0003464462060946971,-0.000669530825689435,0.0004579712694976479,-0.68896484375,-0.025390625,0.76513671875
2023-08-01T15:51:28.378031,0.9999995827674866,-0.0003464462060946971,-0.000669530825689435,0.0004579712694976479,-0.68994140625,-0.02587890625,0.76123046875
2023-08-01T15:51:28.378031,0.9999995827674866,-0.0003464462060946971,-0.000669530825689435,0.0004579712694976479,-0.68994140625,-0.02587890625,0.76123046875
2023-08-01T15:51:28.391930,0.9999995827674866,-0.0003464462060946971,-0.000669530825689435,0.0004579712694976479,-0.68994140625,-0.02685546875,0.7646484375
2023-08-01T15:51:28.392927,0.9999995827674866,-0.0003464462060946971,-0.000669530825689435,0.0004579712694976479,-0.68994140625,-0.02685546875,0.7646484375
2023-08-01T15:51:28.398944,0.9999995827674866,-0.0003464462060946971,-0.000669530825689435,0.0004579712694976479,-0.68798828125,-0.02734375,0.7666015625
2023-08-01T15:51:28.401115,0.9999995231628418,-0.00034641934325918555,-0.0007281642756424844,0.0004579915839713067,-0.68798828125,-0.02734375,0.7666015625
2023-08-01T15:51:28.407098,0.9999995231628418,-0.00034641934325918555,-0.0007281642756424844,0.0004579915839713067,-0.68505859375,-0.02880859375,0.76611328125
2023-08-01T15:51:28.407098,0.9999995231628418,-0.00034641934325918555,-0.0007281642756424844,0.0004579915839713067,-0.68505859375,-0.02880859375,0.76611328125
2023-08-01T15:51:28.422508,0.9999995231628418,-0.00034641934325918555,-0.0007281642756424844,0.0004579915839713067,-0.68701171875,-0.02880859375,0.765625
2023-08-01T15:51:28.422508,0.9999995231628418,-0.00034641934325918555,-0.0007281642756424844,0.0004579915839713067,-0.68701171875,-0.02880859375,0.765625
2023-08-01T15:51:28.430029,0.9999995231628418,-0.00034641934325918555,-0.0007281642756424844,0.0004579915839713067,-0.685546875,-0.029296875,0.76171875
2023-08-01T15:51:28.430029,0.9999995231628418,-0.00034641934325918555,-0.0007281642756424844,0.0004579915839713067,-0.685546875,-0.029296875,0.76171875
2023-08-01T15:51:28.436537,0.9999995231628418,-0.00034641934325918555,-0.0007281642756424844,0.0004579915839713067,-0.68603515625,-0.02978515625,0.76171875
2023-08-01T15:51:28.438044,0.9999995231628418,-0.00034641934325918555,-0.0007281642756424844,0.0004579915839713067,-0.68603515625,-0.02978515625,0.76171875
2023-08-01T15:51:28.452256,0.9999995231628418,-0.00034641934325918555,-0.0007281642756424844,0.0004579915839713067,-0.6865234375,-0.029296875,0.763671875
2023-08-01T15:51:28.452256,0.9999995231628418,-0.00034641934325918555,-0.0007281642756424844,0.0004579915839713067,-0.6865234375,-0.029296875,0.763671875
2023-08-01T15:51:28.460058,0.9999995231628418,-0.00034641934325918555,-0.0007281642756424844,0.0004579915839713067,-0.685546875,-0.029296875,0.76318359375
2023-08-01T15:51:28.460058,0.9999995231628418,-0.00034641934325918555,-0.0007281642756424844,0.0004579915839713067,-0.685546875,-0.029296875,0.76318359375
2023-08-01T15:51:28.467056,0.9999995231628418,-0.00034641934325918555,-0.0007281642756424844,0.0004579915839713067,-0.68310546875,-0.02783203125,0.76220703125
2023-08-01T15:51:28.468039,0.9999995231628418,-0.00034641934325918555,-0.0007281642756424844,0.0004579915839713067,-0.68310546875,-0.02783203125,0.76220703125
2023-08-01T15:51:28.490430,0.9999995231628418,-0.00034641934325918555,-0.0007281642756424844,0.0004579915839713067,-0.68212890625,-0.02734375,0.76513671875
2023-08-01T15:51:28.490430,0.9999995231628418,-0.00034641934325918555,-0.0007281642756424844,0.0004579915839713067,-0.68212890625,-0.02734375,0.76513671875
2023-08-01T15:51:28.491102,0.9999995231628418,-0.00034641934325918555,-0.0007281642756424844,0.0004579915839713067,-0.6845703125,-0.02685546875,0.7626953125
2023-08-01T15:51:28.497085,0.9999995231628418,-0.00034641934325918555,-0.0007281642756424844,0.0004579915839713067,-0.6845703125,-0.02685546875,0.7626953125
2023-08-01T15:51:28.498084,0.9999995231628418,-0.00034641934325918555,-0.0007281642756424844,0.0004579915839713067,-0.68701171875,-0.02490234375,0.76416015625
2023-08-01T15:51:28.498084,0.9999995231628418,-0.00034641934325918555,-0.0007281642756424844,0.0004579915839713067,-0.68701171875,-0.02490234375,0.76416015625
2023-08-01T15:51:28.512119,0.9999995231628418,-0.00034641934325918555,-0.0007281642756424844,0.0004579915839713067,-0.69091796875,-0.025390625,0.76611328125
2023-08-01T15:51:28.512119,0.9999995231628418,-0.00034641934325918555,-0.0007281642756424844,0.0004579915839713067,-0.69091796875,-0.025390625,0.76611328125
2023-08-01T15:51:28.519109,0.9999995231628418,-0.00034641934325918555,-0.0007281642756424844,0.0004579915839713067,-0.68701171875,-0.025390625,0.76513671875
2023-08-01T15:51:28.520113,0.9999995231628418,-0.00034641934325918555,-0.0007281642756424844,0.0004579915839713067,-0.68701171875,-0.025390625,0.76513671875
2023-08-01T15:51:28.527096,0.9999995231628418,-0.00034641934325918555,-0.0007281642756424844,0.0004579915839713067,-0.6865234375,-0.02587890625,0.765625
2023-08-01T15:51:28.527096,0.9999995231628418,-0.00034641934325918555,-0.0007281642756424844,0.0004579915839713067,-0.6865234375,-0.02587890625,0.765625
2023-08-01T15:51:28.534624,0.9999995231628418,-0.00034641934325918555,-0.0007281642756424844,0.0004579915839713067,-0.685546875,-0.02734375,0.7666015625
2023-08-01T15:51:28.542621,0.9999995231628418,-0.00034641934325918555,-0.0007281642756424844,0.0004579915839713067,-0.685546875,-0.02734375,0.7666015625
2023-08-01T15:51:28.549617,0.9999995231628418,-0.00034641934325918555,-0.0007281642756424844,0.0004579915839713067,-0.68408203125,-0.02685546875,0.765625
2023-08-01T15:51:28.550616,0.9999995231628418,-0.00034641934325918555,-0.0007281642756424844,0.0004579915839713067,-0.68408203125,-0.02685546875,0.765625
2023-08-01T15:51:28.556602,0.9999995231628418,-0.00034641934325918555,-0.0007281642756424844,0.0004579915839713067,-0.68359375,-0.02734375,0.76611328125
2023-08-01T15:51:28.558109,0.9999995231628418,-0.00034641934325918555,-0.0007281642756424844,0.0004579915839713067,-0.68359375,-0.02734375,0.76611328125
2023-08-01T15:51:28.565120,0.9999995231628418,-0.00034641934325918555,-0.0007281642756424844,0.0004579915839713067,-0.68359375,-0.02685546875,0.7666015625
2023-08-01T15:51:28.572280,0.9999995231628418,-0.00034641934325918555,-0.0007281642756424844,0.0004579915839713067,-0.68359375,-0.02685546875,0.7666015625
2023-08-01T15:51:28.579999,0.9999995231628418,-0.00034641934325918555,-0.0007281642756424844,0.0004579915839713067,-0.6845703125,-0.0263671875,0.76416015625
2023-08-01T15:51:28.580771,0.9999995231628418,-0.00034641934325918555,-0.0007281642756424844,0.0004579915839713067,-0.6845703125,-0.0263671875,0.76416015625
2023-08-01T15:51:28.586755,0.9999995231628418,-0.00034641934325918555,-0.0007281642756424844,0.0004579915839713067,-0.6875,-0.02734375,0.76513671875
2023-08-01T15:51:28.588262,0.9999995231628418,-0.00034641934325918555,-0.0007281642756424844,0.0004579915839713067,-0.6875,-0.02734375,0.76513671875
2023-08-01T15:51:28.595137,0.9999995231628418,-0.00034641934325918555,-0.0007281642756424844,0.0004579915839713067,-0.68701171875,-0.02734375,0.765625
2023-08-01T15:51:28.595137,0.9999995231628418,-0.00034641934325918555,-0.0007281642756424844,0.0004579915839713067,-0.68701171875,-0.02734375,0.765625
2023-08-01T15:51:28.610379,0.9999995231628418,-0.00034641934325918555,-0.0007281642756424844,0.0004579915839713067,-0.68896484375,-0.02685546875,0.76220703125
2023-08-01T15:51:28.610617,0.9999995231628418,-0.00034641934325918555,-0.0007281642756424844,0.0004579915839713067,-0.68896484375,-0.02685546875,0.76220703125
2023-08-01T15:51:28.616601,0.9999995231628418,-0.00034641934325918555,-0.0007281642756424844,0.0004579915839713067,-0.68994140625,-0.02783203125,0.7626953125
2023-08-01T15:51:28.618107,0.9999995231628418,-0.00034641934325918555,-0.0007281642756424844,0.0004579915839713067,-0.68994140625,-0.02783203125,0.7626953125
2023-08-01T15:51:28.624598,0.9999995231628418,-0.00034641934325918555,-0.0007281642756424844,0.0004579915839713067,-0.689453125,-0.0283203125,0.76220703125
2023-08-01T15:51:28.625595,0.9999995231628418,-0.00034641934325918555,-0.0007281642756424844,0.0004579915839713067,-0.689453125,-0.0283203125,0.76220703125
2023-08-01T15:51:28.639556,0.9999995231628418,-0.00034641934325918555,-0.0007281642756424844,0.0004579915839713067,-0.68798828125,-0.02783203125,0.76416015625
2023-08-01T15:51:28.640555,0.9999995231628418,-0.00034641934325918555,-0.0007281642756424844,0.0004579915839713067,-0.68798828125,-0.02783203125,0.76416015625
2023-08-01T15:51:28.646539,0.9999995231628418,-0.00034641934325918555,-0.0007281642756424844,0.0004579915839713067,-0.68701171875,-0.02734375,0.7626953125
2023-08-01T15:51:28.648046,0.9999995231628418,-0.00034641934325918555,-0.0007281642756424844,0.0004579915839713067,-0.68701171875,-0.02734375,0.7626953125
2023-08-01T15:51:28.654539,0.9999995231628418,-0.00034641934325918555,-0.0007281642756424844,0.0004579915839713067,-0.6865234375,-0.0283203125,0.765625
2023-08-01T15:51:28.655536,0.9999995231628418,-0.00034641934325918555,-0.0007281642756424844,0.0004579915839713067,-0.6865234375,-0.0283203125,0.765625
2023-08-01T15:51:28.670051,0.9999995231628418,-0.00034641934325918555,-0.0007281642756424844,0.0004579915839713067,-0.68505859375,-0.0283203125,0.76220703125
2023-08-01T15:51:28.670051,0.9999995231628418,-0.00034641934325918555,-0.0007281642756424844,0.0004579915839713067,-0.68505859375,-0.0283203125,0.76220703125
2023-08-01T15:51:28.677031,0.9999995231628418,-0.00034641934325918555,-0.0007281642756424844,0.0004579915839713067,-0.68603515625,-0.02880859375,0.76513671875
2023-08-01T15:51:28.678029,0.9999995231628418,-0.00034641934325918555,-0.0007281642756424844,0.0004579915839713067,-0.68603515625,-0.02880859375,0.76513671875
2023-08-01T15:51:28.684219,0.9999995231628418,-0.00034641934325918555,-0.0007281642756424844,0.0004579915839713067,-0.6875,-0.0302734375,0.7626953125
2023-08-01T15:51:28.692305,0.9999995231628418,-0.00034641934325918555,-0.0007281642756424844,0.0004579915839713067,-0.6875,-0.0302734375,0.7626953125
2023-08-01T15:51:28.699979,0.9999995231628418,-0.00034641934325918555,-0.0007281642756424844,0.0004579915839713067,-0.68701171875,-0.029296875,0.7646484375
2023-08-01T15:51:28.699979,0.9999995231628418,-0.00034641934325918555,-0.0007281642756424844,0.0004579915839713067,-0.68701171875,-0.029296875,0.7646484375
2023-08-01T15:51:28.707997,0.9999995231628418,-0.00034641934325918555,-0.0007281642756424844,0.0004579915839713067,-0.6865234375,-0.02978515625,0.76416015625
2023-08-01T15:51:28.709058,0.9999995231628418,-0.00034641934325918555,-0.0007281642756424844,0.0004579915839713067,-0.6865234375,-0.02978515625,0.76416015625
2023-08-01T15:51:28.715376,0.9999995231628418,-0.00034641934325918555,-0.0007281642756424844,0.0004579915839713067,-0.685546875,-0.029296875,0.76318359375
2023-08-01T15:51:28.715376,0.9999995231628418,-0.00034641934325918555,-0.0007281642756424844,0.0004579915839713067,-0.685546875,-0.029296875,0.76318359375
2023-08-01T15:51:28.730105,0.9999995231628418,-0.00034641934325918555,-0.0007281642756424844,0.0004579915839713067,-0.68798828125,-0.02880859375,0.763671875
2023-08-01T15:51:28.730105,0.9999995231628418,-0.00034641934325918555,-0.0007281642756424844,0.0004579915839713067,-0.68798828125,-0.02880859375,0.763671875
2023-08-01T15:51:28.738084,0.9999995231628418,-0.00034641934325918555,-0.0007281642756424844,0.0004579915839713067,-0.68798828125,-0.02783203125,0.7646484375
2023-08-01T15:51:28.738084,0.9999995231628418,-0.00034641934325918555,-0.0007281642756424844,0.0004579915839713067,-0.68798828125,-0.02783203125,0.7646484375
2023-08-01T15:51:28.746279,0.9999995231628418,-0.00034641934325918555,-0.0007281642756424844,0.0004579915839713067,-0.68603515625,-0.02734375,0.76611328125
2023-08-01T15:51:28.746279,0.9999995231628418,-0.00034641934325918555,-0.0007281642756424844,0.0004579915839713067,-0.68603515625,-0.02734375,0.76611328125
2023-08-01T15:51:28.758783,0.9999995231628418,-0.00034641934325918555,-0.0007281642756424844,0.0004579915839713067,-0.6845703125,-0.02880859375,0.765625
2023-08-01T15:51:28.760098,0.9999995231628418,-0.00034641934325918555,-0.0007281642756424844,0.0004579915839713067,-0.6845703125,-0.02880859375,0.765625
2023-08-01T15:51:28.767080,0.9999995231628418,-0.00034641934325918555,-0.0007281642756424844,0.0004579915839713067,-0.68359375,-0.03125,0.76708984375
2023-08-01T15:51:28.768078,0.9999995231628418,-0.00034641934325918555,-0.0007281642756424844,0.0004579915839713067,-0.68359375,-0.03125,0.76708984375
2023-08-01T15:51:28.775264,0.9999995231628418,-0.00034641934325918555,-0.0007281642756424844,0.0004579915839713067,-0.68359375,-0.0302734375,0.76904296875
2023-08-01T15:51:28.776260,0.9999995231628418,-0.00034641934325918555,-0.0007281642756424844,0.0004579915839713067,-0.68359375,-0.0302734375,0.76904296875
2023-08-01T15:51:28.790937,0.9999995231628418,-0.00034641934325918555,-0.0007281642756424844,0.0004579915839713067,-0.685546875,-0.02880859375,0.76416015625
2023-08-01T15:51:28.791934,0.9999995231628418,-0.00034641934325918555,-0.0007281642756424844,0.0004579915839713067,-0.685546875,-0.02880859375,0.76416015625
2023-08-01T15:51:28.796921,0.9999995231628418,-0.00034641934325918555,-0.0007281642756424844,0.0004579915839713067,-0.6865234375,-0.0283203125,0.763671875
2023-08-01T15:51:28.797919,0.9999995231628418,-0.00034641934325918555,-0.0007281642756424844,0.0004579915839713067,-0.6865234375,-0.0283203125,0.763671875
2023-08-01T15:51:28.805158,0.9999995231628418,-0.00034641934325918555,-0.0007281642756424844,0.0004579915839713067,-0.6865234375,-0.02783203125,0.7646484375
2023-08-01T15:51:28.806155,0.9999995231628418,-0.00034641934325918555,-0.0007281642756424844,0.0004579915839713067,-0.6865234375,-0.02783203125,0.7646484375
2023-08-01T15:51:28.820131,0.9999995231628418,-0.00034641934325918555,-0.0007281642756424844,0.0004579915839713067,-0.68798828125,-0.02734375,0.765625
2023-08-01T15:51:28.820447,0.999999463558197,-0.00034639492514543235,-0.0007814712007530034,0.0004580100649036467,-0.68798828125,-0.02734375,0.765625
2023-08-01T15:51:28.826430,0.999999463558197,-0.00034639492514543235,-0.0007814712007530034,0.0004580100649036467,-0.6865234375,-0.0283203125,0.765625
2023-08-01T15:51:28.827936,0.9999994039535522,-0.0003463635512162,-0.0008499400573782623,0.00045803378452546895,-0.6865234375,-0.0283203125,0.765625
2023-08-01T15:51:28.835426,0.9999994039535522,-0.0003463635512162,-0.0008499400573782623,0.00045803378452546895,-0.6826171875,-0.02783203125,0.76611328125
2023-08-01T15:51:28.837932,0.9999993443489075,-0.00034633700852282345,-0.0009078815928660333,0.0004580538661684841,-0.6826171875,-0.02783203125,0.76611328125
2023-08-01T15:51:28.842309,0.9999993443489075,-0.00034633700852282345,-0.0009078815928660333,0.0004580538661684841,-0.681640625,-0.02880859375,0.7666015625
2023-08-01T15:51:28.850292,0.9999993443489075,-0.00034633700852282345,-0.0009078815928660333,0.0004580538661684841,-0.681640625,-0.02880859375,0.7666015625
2023-08-01T15:51:28.857275,0.9999993443489075,-0.00034633700852282345,-0.0009078815928660333,0.0004580538661684841,-0.681640625,-0.029296875,0.76708984375
2023-08-01T15:51:28.858273,0.9999993443489075,-0.00034633700852282345,-0.0009078815928660333,0.0004580538661684841,-0.681640625,-0.029296875,0.76708984375
2023-08-01T15:51:28.865768,0.9999993443489075,-0.00034633700852282345,-0.0009078815928660333,0.0004580538661684841,-0.6845703125,-0.0283203125,0.76513671875
2023-08-01T15:51:28.865768,0.9999993443489075,-0.00034633700852282345,-0.0009078815928660333,0.0004580538661684841,-0.6845703125,-0.0283203125,0.76513671875
2023-08-01T15:51:28.874774,0.9999993443489075,-0.00034633700852282345,-0.0009078815928660333,0.0004580538661684841,-0.6884765625,-0.02783203125,0.76708984375
2023-08-01T15:51:28.874774,0.9999993443489075,-0.00034633700852282345,-0.0009078815928660333,0.0004580538661684841,-0.6884765625,-0.02783203125,0.76708984375
2023-08-01T15:51:28.887049,0.9999993443489075,-0.00034633700852282345,-0.0009078815928660333,0.0004580538661684841,-0.68701171875,-0.02978515625,0.767578125
2023-08-01T15:51:28.889053,0.9999993443489075,-0.00034633700852282345,-0.0009078815928660333,0.0004580538661684841,-0.68701171875,-0.02978515625,0.767578125
2023-08-01T15:51:28.895139,0.9999993443489075,-0.00034633700852282345,-0.0009078815928660333,0.0004580538661684841,-0.6865234375,-0.02734375,0.76416015625
2023-08-01T15:51:28.895139,0.9999993443489075,-0.00034633700852282345,-0.0009078815928660333,0.0004580538661684841,-0.6865234375,-0.02734375,0.76416015625
2023-08-01T15:51:28.902369,0.9999993443489075,-0.00034633700852282345,-0.0009078815928660333,0.0004580538661684841,-0.6875,-0.0283203125,0.76806640625
2023-08-01T15:51:28.903348,0.9999993443489075,-0.00034633700852282345,-0.0009078815928660333,0.0004580538661684841,-0.6875,-0.0283203125,0.76806640625
2023-08-01T15:51:28.919530,0.9999993443489075,-0.00034633700852282345,-0.0009078815928660333,0.0004580538661684841,-0.685546875,-0.029296875,0.7705078125
2023-08-01T15:51:28.967858,0.9999995231628418,-0.00029372796416282654,-0.0008342081564478576,0.00045807621791027486,-0.685546875,-0.029296875,0.7705078125
2023-08-01T15:51:28.967858,0.9999995231628418,-0.00029372796416282654,-0.0008342081564478576,0.00045807621791027486,-0.68115234375,-0.02978515625,0.76904296875
2023-08-01T15:51:28.969361,0.9999995827674866,-0.00023584801238030195,-0.0007763230241835117,0.0004581075336318463,-0.68115234375,-0.02978515625,0.76904296875
2023-08-01T15:51:28.970363,0.9999995827674866,-0.00023584801238030195,-0.0007763230241835117,0.0004581075336318463,-0.6845703125,-0.0283203125,0.765625
2023-08-01T15:51:28.971359,0.9999996423721313,-0.0001832510024541989,-0.0006763312267139554,0.0004581248213071376,-0.6845703125,-0.0283203125,0.765625
2023-08-01T15:51:28.972355,0.9999996423721313,-0.0001832510024541989,-0.0006763312267139554,0.0004581248213071376,-0.68798828125,-0.02880859375,0.7626953125
2023-08-01T15:51:28.973353,0.9999997019767761,-0.00018330402963329107,-0.0005605726037174463,0.00045810360461473465,-0.68798828125,-0.02880859375,0.7626953125
2023-08-01T15:51:28.974350,0.9999997019767761,-0.00018330402963329107,-0.0005605726037174463,0.00045810360461473465,-0.6884765625,-0.02783203125,0.76123046875
2023-08-01T15:51:28.974350,0.9999997615814209,-0.00018334061314817518,-0.0004807171644642949,0.0004580889653880149,-0.6884765625,-0.02783203125,0.76123046875
2023-08-01T15:51:28.975347,0.9999997615814209,-0.00018334061314817518,-0.0004807171644642949,0.0004580889653880149,-0.6865234375,-0.02880859375,0.759765625
2023-08-01T15:51:28.977342,0.9999998211860657,-0.00018336952780373394,-0.0004175949434284121,0.00045807738206349313,-0.6865234375,-0.02880859375,0.759765625
2023-08-01T15:51:28.978339,0.9999998211860657,-0.00018336952780373394,-0.0004175949434284121,0.00045807738206349313,-0.68603515625,-0.02978515625,0.7607421875
2023-08-01T15:51:28.978843,0.9999998211860657,-0.00018336952780373394,-0.0004175949434284121,0.00045807738206349313,-0.68603515625,-0.02978515625,0.7607421875
2023-08-01T15:51:28.985235,0.9999998211860657,-0.00018336952780373394,-0.0004175949434284121,0.00045807738206349313,-0.6884765625,-0.02978515625,0.76123046875
2023-08-01T15:51:28.986234,0.9999998211860657,-0.00018336952780373394,-0.0004175949434284121,0.00045807738206349313,-0.6884765625,-0.02978515625,0.76123046875
2023-08-01T15:51:28.992665,0.9999998211860657,-0.00018336952780373394,-0.0004175949434284121,0.00045807738206349313,-0.68798828125,-0.02880859375,0.76220703125
2023-08-01T15:51:28.992665,0.9999998211860657,-0.00018336952780373394,-0.0004175949434284121,0.00045807738206349313,-0.68798828125,-0.02880859375,0.76220703125
2023-08-01T15:51:29.006649,0.9999998211860657,-0.00018336952780373394,-0.0004175949434284121,0.00045807738206349313,-0.6865234375,-0.02685546875,0.7646484375
2023-08-01T15:51:29.008155,0.9999998211860657,-0.000183391515747644,-0.00041758528095670044,0.0005107169854454696,-0.6865234375,-0.02685546875,0.7646484375
2023-08-01T15:51:29.016323,0.9999998211860657,-0.000183391515747644,-0.00041758528095670044,0.0005107169854454696,-0.68408203125,-0.0263671875,0.7646484375
2023-08-01T15:51:29.017321,0.9999998211860657,-0.000183391515747644,-0.00041758528095670044,0.0005107169854454696,-0.68408203125,-0.0263671875,0.7646484375
2023-08-01T15:51:29.021898,0.9999998211860657,-0.000183391515747644,-0.00041758528095670044,0.0005107169854454696,-0.68603515625,-0.02587890625,0.76318359375
2023-08-01T15:51:29.022896,0.9999998211860657,-0.000183391515747644,-0.00041758528095670044,0.0005107169854454696,-0.68603515625,-0.02587890625,0.76318359375
2023-08-01T15:51:29.036876,0.9999998211860657,-0.000183391515747644,-0.00041758528095670044,0.0005107169854454696,-0.68798828125,-0.0244140625,0.7646484375
2023-08-01T15:51:29.037874,0.9999998211860657,-0.000183391515747644,-0.00041758528095670044,0.0005107169854454696,-0.68798828125,-0.0244140625,0.7646484375
2023-08-01T15:51:29.045054,0.9999998211860657,-0.000183391515747644,-0.00041758528095670044,0.0005107169854454696,-0.68701171875,-0.02490234375,0.763671875
2023-08-01T15:51:29.045054,0.9999997615814209,-0.00018335455388296396,-0.0004899523919448256,0.0005107302567921579,-0.68701171875,-0.02490234375,0.763671875
2023-08-01T15:51:29.053209,0.9999997615814209,-0.00018335455388296396,-0.0004899523919448256,0.0005107302567921579,-0.68505859375,-0.02783203125,0.76318359375
2023-08-01T15:51:29.060281,0.9999997019767761,-0.00018331689352635294,-0.0005636849091388285,0.0005107437609694898,-0.68505859375,-0.02783203125,0.76318359375
2023-08-01T15:51:29.067262,0.9999997019767761,-0.00018331689352635294,-0.0005636849091388285,0.0005107437609694898,-0.68603515625,-0.029296875,0.765625
2023-08-01T15:51:29.067262,0.9999996423721313,-0.0002365454420214519,-0.0006223455420695245,0.0005107244942337275,-0.68603515625,-0.029296875,0.765625
2023-08-01T15:51:29.074242,0.9999996423721313,-0.0002365454420214519,-0.0006223455420695245,0.0005107244942337275,-0.685546875,-0.02978515625,0.7685546875
2023-08-01T15:51:29.075240,0.9999996423721313,-0.0002365454420214519,-0.0006223455420695245,0.0005107244942337275,-0.685546875,-0.02978515625,0.7685546875
2023-08-01T15:51:29.082428,0.9999996423721313,-0.0002365454420214519,-0.0006223455420695245,0.0005107244942337275,-0.68505859375,-0.03173828125,0.767578125
2023-08-01T15:51:29.082428,0.9999996423721313,-0.0002365454420214519,-0.0006223455420695245,0.0005107244942337275,-0.68505859375,-0.03173828125,0.767578125
2023-08-01T15:51:29.097123,0.9999996423721313,-0.0002365454420214519,-0.0006223455420695245,0.0005107244942337275,-0.6845703125,-0.03271484375,0.76416015625
2023-08-01T15:51:29.097123,0.9999997019767761,-0.00023657230485696346,-0.0005697506130672991,0.000510712037794292,-0.6845703125,-0.03271484375,0.76416015625
2023-08-01T15:51:29.104380,0.9999997019767761,-0.00023657230485696346,-0.0005697506130672991,0.000510712037794292,-0.68701171875,-0.03271484375,0.76416015625
2023-08-01T15:51:29.109897,0.9999997019767761,-0.00023657230485696346,-0.0005697506130672991,0.000510712037794292,-0.68701171875,-0.03271484375,0.76416015625
2023-08-01T15:51:29.112888,0.9999997019767761,-0.00023657230485696346,-0.0005697506130672991,0.000510712037794292,-0.6904296875,-0.02978515625,0.763671875
2023-08-01T15:51:29.112888,0.9999997019767761,-0.00023657230485696346,-0.0005697506130672991,0.000510712037794292,-0.6904296875,-0.02978515625,0.763671875
2023-08-01T15:51:29.118970,0.9999997019767761,-0.00023657230485696346,-0.0005697506130672991,0.000510712037794292,-0.689453125,-0.029296875,0.76123046875
2023-08-01T15:51:29.127241,0.9999997019767761,-0.00023657230485696346,-0.0005697506130672991,0.000510712037794292,-0.689453125,-0.029296875,0.76123046875
2023-08-01T15:51:29.134525,0.9999997019767761,-0.00023657230485696346,-0.0005697506130672991,0.000510712037794292,-0.68798828125,-0.02880859375,0.76025390625
2023-08-01T15:51:29.135523,0.9999997019767761,-0.00023657230485696346,-0.0005697506130672991,0.000510712037794292,-0.68798828125,-0.02880859375,0.76025390625
2023-08-01T15:51:29.142524,0.9999997019767761,-0.00023657230485696346,-0.0005697506130672991,0.000510712037794292,-0.68408203125,-0.02880859375,0.763671875
2023-08-01T15:51:29.143523,0.9999997019767761,-0.00023660229635424912,-0.0005697381566278636,0.0005633516702800989,-0.68408203125,-0.02880859375,0.763671875
2023-08-01T15:51:29.149522,0.9999997019767761,-0.00023660229635424912,-0.0005697381566278636,0.0005633516702800989,-0.6826171875,-0.0263671875,0.76416015625
2023-08-01T15:51:29.150521,0.9999997019767761,-0.00023660229635424912,-0.0005697381566278636,0.0005633516702800989,-0.6826171875,-0.0263671875,0.76416015625
2023-08-01T15:51:29.165607,0.9999997019767761,-0.00023660229635424912,-0.0005697381566278636,0.0005633516702800989,-0.681640625,-0.02685546875,0.7626953125
2023-08-01T15:51:29.166604,0.9999997019767761,-0.00023660229635424912,-0.0005697381566278636,0.0005633516702800989,-0.681640625,-0.02685546875,0.7626953125
2023-08-01T15:51:29.173361,0.9999997019767761,-0.00023660229635424912,-0.0005697381566278636,0.0005633516702800989,-0.68505859375,-0.02734375,0.7646484375
2023-08-01T15:51:29.174358,0.9999997019767761,-0.00023660229635424912,-0.0005697381566278636,0.0005633516702800989,-0.68505859375,-0.02734375,0.7646484375
2023-08-01T15:51:29.179362,0.9999997019767761,-0.00023660229635424912,-0.0005697381566278636,0.0005633516702800989,-0.68603515625,-0.0263671875,0.767578125
2023-08-01T15:51:29.181358,0.9999997019767761,-0.00023660229635424912,-0.0005697381566278636,0.0005633516702800989,-0.68603515625,-0.0263671875,0.767578125
2023-08-01T15:51:29.196337,0.9999997019767761,-0.00023660229635424912,-0.0005697381566278636,0.0005633516702800989,-0.6875,-0.02490234375,0.7666015625
2023-08-01T15:51:29.201851,0.9999997019767761,-0.00023660229635424912,-0.0005697381566278636,0.0005633516702800989,-0.6875,-0.02490234375,0.7666015625
2023-08-01T15:51:29.202850,0.9999997019767761,-0.00023660229635424912,-0.0005697381566278636,0.0005633516702800989,-0.689453125,-0.02294921875,0.7705078125
2023-08-01T15:51:29.203846,0.9999997019767761,-0.00023660229635424912,-0.0005697381566278636,0.0005633516702800989,-0.689453125,-0.02294921875,0.7705078125
2023-08-01T15:51:29.210012,0.9999997019767761,-0.00023660229635424912,-0.0005697381566278636,0.0005633516702800989,-0.68701171875,-0.02587890625,0.76806640625
2023-08-01T15:51:29.211011,0.9999997019767761,-0.00023660229635424912,-0.0005697381566278636,0.0005633516702800989,-0.68701171875,-0.02587890625,0.76806640625
2023-08-01T15:51:29.225071,0.9999997019767761,-0.00023660229635424912,-0.0005697381566278636,0.0005633516702800989,-0.6845703125,-0.025390625,0.767578125
2023-08-01T15:51:29.226067,0.9999997019767761,-0.00023660229635424912,-0.0005697381566278636,0.0005633516702800989,-0.6845703125,-0.025390625,0.767578125
2023-08-01T15:51:29.233171,0.9999997019767761,-0.00023660229635424912,-0.0005697381566278636,0.0005633516702800989,-0.6845703125,-0.0244140625,0.767578125
2023-08-01T15:51:29.234169,0.9999997019767761,-0.00023660229635424912,-0.0005697381566278636,0.0005633516702800989,-0.6845703125,-0.0244140625,0.767578125
2023-08-01T15:51:29.239218,0.9999997019767761,-0.00023660229635424912,-0.0005697381566278636,0.0005633516702800989,-0.6865234375,-0.02685546875,0.763671875
2023-08-01T15:51:29.240330,0.9999997019767761,-0.00023660229635424912,-0.0005697381566278636,0.0005633516702800989,-0.6865234375,-0.02685546875,0.763671875
2023-08-01T15:51:29.260814,0.9999997019767761,-0.00023660229635424912,-0.0005697381566278636,0.0005633516702800989,-0.68798828125,-0.025390625,0.76416015625
2023-08-01T15:51:29.261811,0.9999997019767761,-0.00023657230485696346,-0.0005697506130672991,0.0005107184406369925,-0.68798828125,-0.025390625,0.76416015625
2023-08-01T15:51:29.262810,0.9999997019767761,-0.00023657230485696346,-0.0005697506130672991,0.0005107184406369925,-0.6875,-0.025390625,0.76220703125
2023-08-01T15:51:29.262810,0.9999997019767761,-0.00023657230485696346,-0.0005697506130672991,0.0005107184406369925,-0.6875,-0.025390625,0.76220703125
2023-08-01T15:51:29.269933,0.9999997019767761,-0.00023657230485696346,-0.0005697506130672991,0.0005107184406369925,-0.68896484375,-0.02734375,0.76123046875
2023-08-01T15:51:29.270929,0.9999997615814209,-0.00023653332027606666,-0.0005697667947970331,0.0004422942874953151,-0.68896484375,-0.02734375,0.76123046875
2023-08-01T15:51:29.302675,0.9999997615814209,-0.00023653332027606666,-0.0005697667947970331,0.0004422942874953151,-0.68798828125,-0.02978515625,0.7626953125
2023-08-01T15:51:29.303672,0.9999997615814209,-0.00023653332027606666,-0.0005697667947970331,0.0004422942874953151,-0.68798828125,-0.02978515625,0.7626953125
2023-08-01T15:51:29.305667,0.9999997615814209,-0.00023653332027606666,-0.0005697667947970331,0.0004422942874953151,-0.685546875,-0.02783203125,0.76123046875
2023-08-01T15:51:29.306664,0.9999997615814209,-0.00023653332027606666,-0.0005697667947970331,0.0004422942874953151,-0.685546875,-0.02783203125,0.76123046875
2023-08-01T15:51:29.308171,0.9999997615814209,-0.00023653332027606666,-0.0005697667947970331,0.0004422942874953151,-0.68505859375,-0.02880859375,0.76220703125
2023-08-01T15:51:29.308171,0.9999997615814209,-0.00023650297953281552,-0.0005697793676517904,0.00038903256063349545,-0.68505859375,-0.02880859375,0.76220703125
2023-08-01T15:51:29.315243,0.9999997615814209,-0.00023650297953281552,-0.0005697793676517904,0.00038903256063349545,-0.6865234375,-0.0283203125,0.763671875
2023-08-01T15:51:29.315243,0.9999997615814209,-0.00023650297953281552,-0.0005697793676517904,0.00038903256063349545,-0.6865234375,-0.0283203125,0.763671875
2023-08-01T15:51:29.324117,0.9999997615814209,-0.00023650297953281552,-0.0005697793676517904,0.00038903256063349545,-0.6884765625,-0.02880859375,0.763671875
2023-08-01T15:51:29.324117,0.9999997615814209,-0.00023650297953281552,-0.0005697793676517904,0.00038903256063349545,-0.6884765625,-0.02880859375,0.763671875
2023-08-01T15:51:29.329156,0.9999997615814209,-0.00023650297953281552,-0.0005697793676517904,0.00038903256063349545,-0.68701171875,-0.02783203125,0.7626953125
2023-08-01T15:51:29.330808,0.9999997615814209,-0.00023650297953281552,-0.0005697793676517904,0.00038903256063349545,-0.68701171875,-0.02783203125,0.7626953125
2023-08-01T15:51:29.344805,0.9999997615814209,-0.00023650297953281552,-0.0005697793676517904,0.00038903256063349545,-0.689453125,-0.02880859375,0.7607421875
2023-08-01T15:51:29.345802,0.9999997615814209,-0.00023650297953281552,-0.0005697793676517904,0.00038903256063349545,-0.689453125,-0.02880859375,0.7607421875
2023-08-01T15:51:29.351815,0.9999997615814209,-0.00023650297953281552,-0.0005697793676517904,0.00038903256063349545,-0.6875,-0.0283203125,0.763671875
2023-08-01T15:51:29.352813,0.9999997615814209,-0.00023650297953281552,-0.0005697793676517904,0.00038903256063349545,-0.6875,-0.0283203125,0.763671875
2023-08-01T15:51:29.359922,0.9999997615814209,-0.00023650297953281552,-0.0005697793676517904,0.00038903256063349545,-0.68701171875,-0.02783203125,0.763671875
2023-08-01T15:51:29.360922,0.9999997615814209,-0.00023650297953281552,-0.0005697793676517904,0.00038903256063349545,-0.68701171875,-0.02783203125,0.763671875
2023-08-01T15:51:29.374625,0.9999997615814209,-0.00023650297953281552,-0.0005697793676517904,0.00038903256063349545,-0.6875,-0.029296875,0.76416015625
2023-08-01T15:51:29.375622,0.9999997615814209,-0.00023650297953281552,-0.0005697793676517904,0.00038903256063349545,-0.6875,-0.029296875,0.76416015625
2023-08-01T15:51:29.382587,0.9999997615814209,-0.00023650297953281552,-0.0005697793676517904,0.00038903256063349545,-0.6845703125,-0.02978515625,0.76513671875
2023-08-01T15:51:29.382587,0.9999997615814209,-0.00023650297953281552,-0.0005697793676517904,0.00038903256063349545,-0.6845703125,-0.02978515625,0.76513671875
2023-08-01T15:51:29.390253,0.9999997615814209,-0.00023650297953281552,-0.0005697793676517904,0.00038903256063349545,-0.6845703125,-0.02880859375,0.763671875
2023-08-01T15:51:29.391250,0.9999997615814209,-0.00023650297953281552,-0.0005697793676517904,0.00038903256063349545,-0.6845703125,-0.02880859375,0.763671875
2023-08-01T15:51:29.397233,0.9999997615814209,-0.00023650297953281552,-0.0005697793676517904,0.00038903256063349545,-0.68408203125,-0.02685546875,0.76416015625
2023-08-01T15:51:29.405240,0.9999997615814209,-0.00023650297953281552,-0.0005697793676517904,0.00038903256063349545,-0.68408203125,-0.02685546875,0.76416015625
2023-08-01T15:51:29.412569,0.9999997615814209,-0.00023650297953281552,-0.0005697793676517904,0.00038903256063349545,-0.68505859375,-0.02685546875,0.7646484375
2023-08-01T15:51:29.412569,0.9999997615814209,-0.00023650297953281552,-0.0005697793676517904,0.00038903256063349545,-0.68505859375,-0.02685546875,0.7646484375
2023-08-01T15:51:29.420488,0.9999997615814209,-0.00023650297953281552,-0.0005697793676517904,0.00038903256063349545,-0.6865234375,-0.02783203125,0.763671875
2023-08-01T15:51:29.420488,0.9999997615814209,-0.00023650297953281552,-0.0005697793676517904,0.00038903256063349545,-0.6865234375,-0.02783203125,0.763671875
2023-08-01T15:51:29.429018,0.9999997615814209,-0.00023650297953281552,-0.0005697793676517904,0.00038903256063349545,-0.6865234375,-0.0283203125,0.76416015625
2023-08-01T15:51:29.430033,0.9999997615814209,-0.00023650297953281552,-0.0005697793676517904,0.00038903256063349545,-0.6865234375,-0.0283203125,0.76416015625
2023-08-01T15:51:29.442014,0.9999997615814209,-0.00023650297953281552,-0.0005697793676517904,0.00038903256063349545,-0.68603515625,-0.02978515625,0.76611328125
2023-08-01T15:51:29.443012,0.9999997615814209,-0.00023650297953281552,-0.0005697793676517904,0.00038903256063349545,-0.68603515625,-0.02978515625,0.76611328125
2023-08-01T15:51:29.450045,0.9999997615814209,-0.00023650297953281552,-0.0005697793676517904,0.00038903256063349545,-0.68505859375,-0.029296875,0.7685546875
2023-08-01T15:51:29.450045,0.9999997615814209,-0.00023650297953281552,-0.0005697793676517904,0.00038903256063349545,-0.68505859375,-0.029296875,0.7685546875
2023-08-01T15:51:29.457024,0.9999997615814209,-0.00023650297953281552,-0.0005697793676517904,0.00038903256063349545,-0.6865234375,-0.0283203125,0.76513671875
2023-08-01T15:51:29.458022,0.9999997615814209,-0.00023650297953281552,-0.0005697793676517904,0.00038903256063349545,-0.6865234375,-0.0283203125,0.76513671875
2023-08-01T15:51:29.472135,0.9999997615814209,-0.00023650297953281552,-0.0005697793676517904,0.00038903256063349545,-0.68408203125,-0.029296875,0.7646484375
2023-08-01T15:51:29.479359,0.9999997615814209,-0.00023650297953281552,-0.0005697793676517904,0.00038903256063349545,-0.68408203125,-0.029296875,0.7646484375
2023-08-01T15:51:29.480381,0.9999997615814209,-0.00023650297953281552,-0.0005697793676517904,0.00038903256063349545,-0.68408203125,-0.02978515625,0.76806640625
2023-08-01T15:51:29.480381,0.9999997615814209,-0.00023650297953281552,-0.0005697793676517904,0.00038903256063349545,-0.68408203125,-0.02978515625,0.76806640625
2023-08-01T15:51:29.487362,0.9999997615814209,-0.00023650297953281552,-0.0005697793676517904,0.00038903256063349545,-0.68505859375,-0.03076171875,0.763671875
2023-08-01T15:51:29.488360,0.9999997615814209,-0.00023650297953281552,-0.0005697793676517904,0.00038903256063349545,-0.68505859375,-0.03076171875,0.763671875
2023-08-01T15:51:29.501986,0.9999997615814209,-0.00023650297953281552,-0.0005697793676517904,0.00038903256063349545,-0.6865234375,-0.02880859375,0.76513671875
2023-08-01T15:51:29.502982,0.9999997615814209,-0.00023650297953281552,-0.0005697793676517904,0.00038903256063349545,-0.6865234375,-0.02880859375,0.76513671875
2023-08-01T15:51:29.510072,0.9999997615814209,-0.00023650297953281552,-0.0005697793676517904,0.00038903256063349545,-0.68701171875,-0.0283203125,0.7646484375
2023-08-01T15:51:29.510288,0.9999997615814209,-0.00023650297953281552,-0.0005697793676517904,0.00038903256063349545,-0.68701171875,-0.0283203125,0.7646484375
2023-08-01T15:51:29.517273,0.9999997615814209,-0.00023650297953281552,-0.0005697793676517904,0.00038903256063349545,-0.68603515625,-0.02783203125,0.7626953125
2023-08-01T15:51:29.518269,0.9999997615814209,-0.00023650297953281552,-0.0005697793676517904,0.00038903256063349545,-0.68603515625,-0.02783203125,0.7626953125
2023-08-01T15:51:29.532487,0.9999997615814209,-0.00023650297953281552,-0.0005697793676517904,0.00038903256063349545,-0.68896484375,-0.02734375,0.7626953125
2023-08-01T15:51:29.532487,0.9999997615814209,-0.00023650297953281552,-0.0005697793676517904,0.00038903256063349545,-0.68896484375,-0.02734375,0.7626953125
2023-08-01T15:51:29.540074,0.9999997615814209,-0.00023650297953281552,-0.0005697793676517904,0.00038903256063349545,-0.6865234375,-0.02783203125,0.765625
2023-08-01T15:51:29.540074,0.9999997615814209,-0.00023650297953281552,-0.0005697793676517904,0.00038903256063349545,-0.6865234375,-0.02783203125,0.765625
2023-08-01T15:51:29.546581,0.9999997615814209,-0.00023650297953281552,-0.0005697793676517904,0.00038903256063349545,-0.68505859375,-0.02783203125,0.7646484375
2023-08-01T15:51:29.546581,0.9999997615814209,-0.00023650297953281552,-0.0005697793676517904,0.00038903256063349545,-0.68505859375,-0.02783203125,0.7646484375
2023-08-01T15:51:29.561942,0.9999997615814209,-0.00023650297953281552,-0.0005697793676517904,0.00038903256063349545,-0.68603515625,-0.02734375,0.76513671875
2023-08-01T15:51:29.562940,0.9999997615814209,-0.00023650297953281552,-0.0005697793676517904,0.00038903256063349545,-0.68603515625,-0.02734375,0.76513671875
2023-08-01T15:51:29.568989,0.9999997615814209,-0.00023650297953281552,-0.0005697793676517904,0.00038903256063349545,-0.68603515625,-0.0263671875,0.76513671875
2023-08-01T15:51:29.570082,0.9999997615814209,-0.00023650297953281552,-0.0005697793676517904,0.00038903256063349545,-0.68603515625,-0.0263671875,0.76513671875
2023-08-01T15:51:29.577064,0.9999997615814209,-0.00023650297953281552,-0.0005697793676517904,0.00038903256063349545,-0.6845703125,-0.02685546875,0.76708984375
2023-08-01T15:51:29.578060,0.9999997615814209,-0.00023650297953281552,-0.0005697793676517904,0.00038903256063349545,-0.6845703125,-0.02685546875,0.76708984375
2023-08-01T15:51:29.592426,0.9999997615814209,-0.00023650297953281552,-0.0005697793676517904,0.00038903256063349545,-0.68408203125,-0.02783203125,0.76708984375
2023-08-01T15:51:29.592426,0.9999997615814209,-0.00023650297953281552,-0.0005697793676517904,0.00038903256063349545,-0.68408203125,-0.02783203125,0.76708984375
2023-08-01T15:51:29.600058,0.9999997615814209,-0.00023650297953281552,-0.0005697793676517904,0.00038903256063349545,-0.68310546875,-0.029296875,0.765625
2023-08-01T15:51:29.600058,0.9999997615814209,-0.00023650297953281552,-0.0005697793676517904,0.00038903256063349545,-0.68310546875,-0.029296875,0.765625
2023-08-01T15:51:29.607041,0.9999997615814209,-0.00023650297953281552,-0.0005697793676517904,0.00038903256063349545,-0.68310546875,-0.02783203125,0.76904296875
2023-08-01T15:51:29.608042,0.9999997615814209,-0.00023650297953281552,-0.0005697793676517904,0.00038903256063349545,-0.68310546875,-0.02783203125,0.76904296875
2023-08-01T15:51:29.622353,0.9999997615814209,-0.00023650297953281552,-0.0005697793676517904,0.00038903256063349545,-0.68505859375,-0.0283203125,0.76953125
2023-08-01T15:51:29.622353,0.9999998211860657,-0.000236529900575988,-0.000500576919876039,0.00038901620428077877,-0.68505859375,-0.0283203125,0.76953125
2023-08-01T15:51:29.630048,0.9999998211860657,-0.000236529900575988,-0.000500576919876039,0.00038901620428077877,-0.6845703125,-0.02978515625,0.76904296875
2023-08-01T15:51:29.630574,0.9999998807907104,-0.00023655600671190768,-0.00043345746234990656,0.00038900034269317985,-0.6845703125,-0.02978515625,0.76904296875
2023-08-01T15:51:29.638073,0.9999998807907104,-0.00023655600671190768,-0.00043345746234990656,0.00038900034269317985,-0.68701171875,-0.02783203125,0.767578125
2023-08-01T15:51:29.638073,0.9999998211860657,-0.0002365870459470898,-0.00035360196488909423,0.0003889813960995525,-0.68701171875,-0.02783203125,0.767578125
2023-08-01T15:51:29.652560,0.9999998211860657,-0.0002365870459470898,-0.00035360196488909423,0.0003889813960995525,-0.6884765625,-0.02734375,0.765625
2023-08-01T15:51:29.652560,0.9999998211860657,-0.00023661159502808005,-0.0002904797438532114,0.0003889664658345282,-0.6884765625,-0.02734375,0.765625
2023-08-01T15:51:29.659557,0.9999998211860657,-0.00023661159502808005,-0.0002904797438532114,0.0003889664658345282,-0.69091796875,-0.0283203125,0.76171875
2023-08-01T15:51:29.660557,0.9999998211860657,-0.00023661159502808005,-0.0002904797438532114,0.0003889664658345282,-0.69091796875,-0.0283203125,0.76171875
2023-08-01T15:51:29.666541,0.9999998211860657,-0.00023661159502808005,-0.0002904797438532114,0.0003889664658345282,-0.689453125,-0.02685546875,0.76220703125
2023-08-01T15:51:29.668047,0.9999998211860657,-0.00023661159502808005,-0.0002904797438532114,0.0003889664658345282,-0.689453125,-0.02685546875,0.76220703125
2023-08-01T15:51:29.674538,0.9999998211860657,-0.00023661159502808005,-0.0002904797438532114,0.0003889664658345282,-0.6865234375,-0.02734375,0.76123046875
2023-08-01T15:51:29.682095,0.9999998211860657,-0.00023661159502808005,-0.0002904797438532114,0.0003889664658345282,-0.6865234375,-0.02734375,0.76123046875
2023-08-01T15:51:29.689129,0.9999998211860657,-0.00023661159502808005,-0.0002904797438532114,0.0003889664658345282,-0.6845703125,-0.02783203125,0.76220703125
2023-08-01T15:51:29.690395,0.9999998211860657,-0.00023658291320316494,-0.00036421226104721427,0.0003889838990289718,-0.6845703125,-0.02783203125,0.76220703125
2023-08-01T15:51:29.696380,0.9999998211860657,-0.00023658291320316494,-0.00036421226104721427,0.0003889838990289718,-0.6845703125,-0.0283203125,0.76416015625
2023-08-01T15:51:29.697886,0.9999998211860657,-0.00023658291320316494,-0.00036421226104721427,0.0003889838990289718,-0.6845703125,-0.0283203125,0.76416015625
2023-08-01T15:51:29.705042,0.9999998211860657,-0.00023658291320316494,-0.00036421226104721427,0.0003889838990289718,-0.681640625,-0.02734375,0.7646484375
2023-08-01T15:51:29.712132,0.9999998211860657,-0.00023658291320316494,-0.00036421226104721427,0.0003889838990289718,-0.681640625,-0.02734375,0.7646484375
2023-08-01T15:51:29.720187,0.9999998211860657,-0.00023658291320316494,-0.00036421226104721427,0.0003889838990289718,-0.68310546875,-0.02783203125,0.7666015625
2023-08-01T15:51:29.720309,0.9999998211860657,-0.00023658291320316494,-0.00036421226104721427,0.0003889838990289718,-0.68310546875,-0.02783203125,0.7666015625
2023-08-01T15:51:29.727169,0.9999998211860657,-0.00023658291320316494,-0.00036421226104721427,0.0003889838990289718,-0.6865234375,-0.0283203125,0.76708984375
2023-08-01T15:51:29.728165,0.9999998211860657,-0.00023658291320316494,-0.00036421226104721427,0.0003889838990289718,-0.6865234375,-0.0283203125,0.76708984375
2023-08-01T15:51:29.735177,0.9999998211860657,-0.00023658291320316494,-0.00036421226104721427,0.0003889838990289718,-0.6875,-0.02734375,0.7666015625
2023-08-01T15:51:29.735177,0.9999998211860657,-0.00023658291320316494,-0.00036421226104721427,0.0003889838990289718,-0.6875,-0.02734375,0.7666015625
2023-08-01T15:51:29.749219,0.9999998211860657,-0.00023658291320316494,-0.00036421226104721427,0.0003889838990289718,-0.6884765625,-0.0283203125,0.76318359375
2023-08-01T15:51:29.750454,0.9999998211860657,-0.00023658291320316494,-0.00036421226104721427,0.0003889838990289718,-0.6884765625,-0.0283203125,0.76318359375
2023-08-01T15:51:29.756438,0.9999998211860657,-0.00023658291320316494,-0.00036421226104721427,0.0003889838990289718,-0.68798828125,-0.029296875,0.76611328125
2023-08-01T15:51:29.757946,0.9999998211860657,-0.0002365624241065234,-0.0004168901941739023,0.0003889963554684073,-0.68798828125,-0.029296875,0.76611328125
2023-08-01T15:51:29.764400,0.9999998211860657,-0.0002365624241065234,-0.0004168901941739023,0.0003889963554684073,-0.6884765625,-0.029296875,0.76513671875
2023-08-01T15:51:29.765397,0.9999998211860657,-0.00023654047981835902,-0.00041690265061333776,0.0003363631258253008,-0.6884765625,-0.029296875,0.76513671875
2023-08-01T15:51:29.779021,0.9999998211860657,-0.00023654047981835902,-0.00041690265061333776,0.0003363631258253008,-0.685546875,-0.02978515625,0.76611328125
2023-08-01T15:51:29.780435,0.9999998211860657,-0.00023654047981835902,-0.00041690265061333776,0.0003363631258253008,-0.685546875,-0.02978515625,0.76611328125
2023-08-01T15:51:29.786419,0.9999998211860657,-0.00023654047981835902,-0.00041690265061333776,0.0003363631258253008,-0.68603515625,-0.03173828125,0.76953125
2023-08-01T15:51:29.787930,0.9999998211860657,-0.00023654047981835902,-0.00041690265061333776,0.0003363631258253008,-0.68603515625,-0.03173828125,0.76953125
2023-08-01T15:51:29.794443,0.9999998211860657,-0.00023654047981835902,-0.00041690265061333776,0.0003363631258253008,-0.685546875,-0.033203125,0.76806640625
2023-08-01T15:51:29.802447,0.9999998211860657,-0.00023654047981835902,-0.00041690265061333776,0.0003363631258253008,-0.685546875,-0.033203125,0.76806640625
2023-08-01T15:51:29.810146,0.9999998211860657,-0.00023654047981835902,-0.00041690265061333776,0.0003363631258253008,-0.68701171875,-0.03173828125,0.765625
2023-08-01T15:51:29.810146,0.9999998211860657,-0.00023654047981835902,-0.00041690265061333776,0.0003363631258253008,-0.68701171875,-0.03173828125,0.765625
2023-08-01T15:51:29.817061,0.9999998211860657,-0.00023654047981835902,-0.00041690265061333776,0.0003363631258253008,-0.6845703125,-0.03076171875,0.763671875
2023-08-01T15:51:29.818059,0.9999998211860657,-0.00023654047981835902,-0.00041690265061333776,0.0003363631258253008,-0.6845703125,-0.03076171875,0.763671875
2023-08-01T15:51:29.824203,0.9999998211860657,-0.00023654047981835902,-0.00041690265061333776,0.0003363631258253008,-0.68359375,-0.0302734375,0.76416015625
2023-08-01T15:51:29.825202,0.9999998211860657,-0.00023654047981835902,-0.00041690265061333776,0.0003363631258253008,-0.68359375,-0.0302734375,0.76416015625
2023-08-01T15:51:29.839213,0.9999998211860657,-0.00023654047981835902,-0.00041690265061333776,0.0003363631258253008,-0.6845703125,-0.029296875,0.7646484375
2023-08-01T15:51:29.840234,0.9999998211860657,-0.00023654047981835902,-0.00041690265061333776,0.0003363631258253008,-0.6845703125,-0.029296875,0.7646484375
2023-08-01T15:51:29.847250,0.9999998211860657,-0.00023654047981835902,-0.00041690265061333776,0.0003363631258253008,-0.6865234375,-0.02880859375,0.76416015625
2023-08-01T15:51:29.847250,0.9999998211860657,-0.00023654047981835902,-0.00041690265061333776,0.0003363631258253008,-0.6865234375,-0.02880859375,0.76416015625
2023-08-01T15:51:29.855248,0.9999998211860657,-0.00023654047981835902,-0.00041690265061333776,0.0003363631258253008,-0.68701171875,-0.0283203125,0.765625
2023-08-01T15:51:29.855248,0.9999998211860657,-0.00023654047981835902,-0.00041690265061333776,0.0003363631258253008,-0.68701171875,-0.0283203125,0.765625
2023-08-01T15:51:29.870615,0.9999998211860657,-0.00023654047981835902,-0.00041690265061333776,0.0003363631258253008,-0.6845703125,-0.02685546875,0.7666015625
2023-08-01T15:51:29.870615,0.9999998211860657,-0.00023654047981835902,-0.00041690265061333776,0.0003363631258253008,-0.6845703125,-0.02685546875,0.7666015625
2023-08-01T15:51:29.876580,0.9999998211860657,-0.00023654047981835902,-0.00041690265061333776,0.0003363631258253008,-0.6865234375,-0.02734375,0.76513671875
2023-08-01T15:51:29.876580,0.9999998211860657,-0.00023654047981835902,-0.00041690265061333776,0.0003363631258253008,-0.6865234375,-0.02734375,0.76513671875
2023-08-01T15:51:29.884608,0.9999998211860657,-0.00023654047981835902,-0.00041690265061333776,0.0003363631258253008,-0.68798828125,-0.02490234375,0.76513671875
2023-08-01T15:51:29.885604,0.9999998211860657,-0.00023654047981835902,-0.00041690265061333776,0.0003363631258253008,-0.68798828125,-0.02490234375,0.76513671875
2023-08-01T15:51:29.900147,0.9999998211860657,-0.00023654047981835902,-0.00041690265061333776,0.0003363631258253008,-0.68798828125,-0.0263671875,0.76611328125
2023-08-01T15:51:29.900147,0.9999998211860657,-0.00023654047981835902,-0.00041690265061333776,0.0003363631258253008,-0.68798828125,-0.0263671875,0.76611328125
2023-08-01T15:51:29.907128,0.9999998211860657,-0.00023654047981835902,-0.00041690265061333776,0.0003363631258253008,-0.6875,-0.025390625,0.76611328125
2023-08-01T15:51:29.908125,0.9999998211860657,-0.00023654047981835902,-0.00041690265061333776,0.0003363631258253008,-0.6875,-0.025390625,0.76611328125
2023-08-01T15:51:29.914461,0.9999998211860657,-0.00023654047981835902,-0.00041690265061333776,0.0003363631258253008,-0.68701171875,-0.025390625,0.7646484375
2023-08-01T15:51:29.915458,0.9999998211860657,-0.00023654047981835902,-0.00041690265061333776,0.0003363631258253008,-0.68701171875,-0.025390625,0.7646484375
2023-08-01T15:51:29.929954,0.9999998211860657,-0.00023654047981835902,-0.00041690265061333776,0.0003363631258253008,-0.68505859375,-0.02392578125,0.765625
2023-08-01T15:51:29.930780,0.9999998211860657,-0.00023654047981835902,-0.00041690265061333776,0.0003363631258253008,-0.68505859375,-0.02392578125,0.765625
2023-08-01T15:51:29.936763,0.9999998211860657,-0.00023654047981835902,-0.00041690265061333776,0.0003363631258253008,-0.68359375,-0.02490234375,0.765625
2023-08-01T15:51:29.936763,0.9999998211860657,-0.00023654047981835902,-0.00041690265061333776,0.0003363631258253008,-0.68359375,-0.02490234375,0.765625
2023-08-01T15:51:29.944770,0.9999998211860657,-0.00023654047981835902,-0.00041690265061333776,0.0003363631258253008,-0.6845703125,-0.025390625,0.7646484375
2023-08-01T15:51:29.945788,0.9999998211860657,-0.00023654047981835902,-0.00041690265061333776,0.0003363631258253008,-0.6845703125,-0.025390625,0.7646484375
2023-08-01T15:51:29.958946,0.9999998211860657,-0.00023654047981835902,-0.00041690265061333776,0.0003363631258253008,-0.685546875,-0.02587890625,0.76416015625
2023-08-01T15:51:29.960203,0.9999998211860657,-0.00023651853553019464,-0.00041691510705277324,0.00028372989618219435,-0.685546875,-0.02587890625,0.76416015625
2023-08-01T15:51:29.967183,0.9999998211860657,-0.00023651853553019464,-0.00041691510705277324,0.00028372989618219435,-0.68505859375,-0.02734375,0.76513671875
2023-08-01T15:51:29.967183,0.9999998211860657,-0.00023648781643714756,-0.0004169325402472168,0.00021004208247177303,-0.68505859375,-0.02734375,0.76513671875
2023-08-01T15:51:29.974183,0.9999998211860657,-0.00023648781643714756,-0.0004169325402472168,0.00021004208247177303,-0.68505859375,-0.02734375,0.7666015625
2023-08-01T15:51:29.975182,0.9999998211860657,-0.00023646587214898318,-0.0004169449966866523,0.00015740883827675134,-0.68505859375,-0.02734375,0.7666015625
2023-08-01T15:51:29.982195,0.9999998211860657,-0.00023646587214898318,-0.0004169449966866523,0.00015740883827675134,-0.68505859375,-0.0283203125,0.76416015625
2023-08-01T15:51:29.989226,0.9999998211860657,-0.00023643922759220004,-0.00041696010157465935,9.349411993753165e-05,-0.68505859375,-0.0283203125,0.76416015625
2023-08-01T15:51:29.997350,0.9999998211860657,-0.00023643922759220004,-0.00041696010157465935,9.349411993753165e-05,-0.68701171875,-0.02880859375,0.7626953125
2023-08-01T15:51:30.004451,0.9999998211860657,-0.00023643922759220004,-0.00041696010157465935,9.349411993753165e-05,-0.68701171875,-0.02880859375,0.7626953125
2023-08-01T15:51:30.005450,0.9999998211860657,-0.00023643922759220004,-0.00041696010157465935,9.349411993753165e-05,-0.6875,-0.029296875,0.7626953125
2023-08-01T15:51:30.006445,0.9999998211860657,-0.00023643922759220004,-0.00041696010157465935,9.349411993753165e-05,-0.6875,-0.029296875,0.7626953125
2023-08-01T15:51:30.012450,0.9999998211860657,-0.00023643922759220004,-0.00041696010157465935,9.349411993753165e-05,-0.6875,-0.0283203125,0.7626953125
2023-08-01T15:51:30.012450,0.9999998211860657,-0.00023643922759220004,-0.00041696010157465935,9.349411993753165e-05,-0.6875,-0.0283203125,0.7626953125
2023-08-01T15:51:30.027094,0.9999998211860657,-0.00023643922759220004,-0.00041696010157465935,9.349411993753165e-05,-0.6884765625,-0.029296875,0.76318359375
2023-08-01T15:51:30.028091,0.9999998211860657,-0.00023643922759220004,-0.00041696010157465935,9.349411993753165e-05,-0.6884765625,-0.029296875,0.76318359375
2023-08-01T15:51:30.034834,0.9999998211860657,-0.00023643922759220004,-0.00041696010157465935,9.349411993753165e-05,-0.68896484375,-0.03125,0.76318359375
2023-08-01T15:51:30.034834,0.9999998211860657,-0.00023643922759220004,-0.00041696010157465935,9.349411993753165e-05,-0.68896484375,-0.03125,0.76318359375
2023-08-01T15:51:30.050155,0.9999998211860657,-0.00023643922759220004,-0.00041696010157465935,9.349411993753165e-05,-0.68603515625,-0.0302734375,0.7646484375
2023-08-01T15:51:30.050155,0.9999998211860657,-0.00023643922759220004,-0.00041696010157465935,9.349411993753165e-05,-0.68603515625,-0.0302734375,0.7646484375
2023-08-01T15:51:30.057866,0.9999998211860657,-0.00023643922759220004,-0.00041696010157465935,9.349411993753165e-05,-0.68505859375,-0.02880859375,0.76416015625
2023-08-01T15:51:30.064868,0.9999998211860657,-0.00023643922759220004,-0.00041696010157465935,9.349411993753165e-05,-0.68505859375,-0.02880859375,0.76416015625
2023-08-01T15:51:30.065865,0.9999998211860657,-0.00023643922759220004,-0.00041696010157465935,9.349411993753165e-05,-0.68408203125,-0.029296875,0.7666015625
2023-08-01T15:51:30.066864,0.9999998211860657,-0.00023643922759220004,-0.00041696010157465935,9.349411993753165e-05,-0.68408203125,-0.029296875,0.7666015625
2023-08-01T15:51:30.071931,0.9999998211860657,-0.00023643922759220004,-0.00041696010157465935,9.349411993753165e-05,-0.68505859375,-0.02978515625,0.7666015625
2023-08-01T15:51:30.072927,0.9999998211860657,-0.00023643922759220004,-0.00041696010157465935,9.349411993753165e-05,-0.68505859375,-0.02978515625,0.7666015625
2023-08-01T15:51:30.095170,0.9999998211860657,-0.00023643922759220004,-0.00041696010157465935,9.349411993753165e-05,-0.6845703125,-0.03076171875,0.76416015625
2023-08-01T15:51:30.095170,0.9999998211860657,-0.00023643922759220004,-0.00041696010157465935,9.349411993753165e-05,-0.6845703125,-0.03076171875,0.76416015625
2023-08-01T15:51:30.096168,0.9999998211860657,-0.00023643922759220004,-0.00041696010157465935,9.349411993753165e-05,-0.685546875,-0.02978515625,0.7646484375
2023-08-01T15:51:30.102225,0.9999998211860657,-0.00023643922759220004,-0.00041696010157465935,9.349411993753165e-05,-0.685546875,-0.02978515625,0.7646484375
2023-08-01T15:51:30.103223,0.9999998211860657,-0.00023643922759220004,-0.00041696010157465935,9.349411993753165e-05,-0.685546875,-0.02734375,0.7646484375
2023-08-01T15:51:30.103223,0.9999998211860657,-0.00023643922759220004,-0.00041696010157465935,9.349411993753165e-05,-0.685546875,-0.02734375,0.7646484375
2023-08-01T15:51:30.117205,0.9999998211860657,-0.00023643922759220004,-0.00041696010157465935,9.349411993753165e-05,-0.68505859375,-0.02587890625,0.76513671875
2023-08-01T15:51:30.118203,0.9999998211860657,-0.00023643922759220004,-0.00041696010157465935,9.349411993753165e-05,-0.68505859375,-0.02587890625,0.76513671875
2023-08-01T15:51:30.125207,0.9999998211860657,-0.00023643922759220004,-0.00041696010157465935,9.349411993753165e-05,-0.68408203125,-0.0283203125,0.76708984375
2023-08-01T15:51:30.125207,0.9999998211860657,-0.00023643922759220004,-0.00041696010157465935,9.349411993753165e-05,-0.68408203125,-0.0283203125,0.76708984375
2023-08-01T15:51:30.133148,0.9999998211860657,-0.00023643922759220004,-0.00041696010157465935,9.349411993753165e-05,-0.68603515625,-0.0283203125,0.76806640625
2023-08-01T15:51:30.133148,0.9999998211860657,-0.00023643922759220004,-0.00041696010157465935,9.349411993753165e-05,-0.68603515625,-0.0283203125,0.76806640625
2023-08-01T15:51:30.147292,0.9999998211860657,-0.00023643922759220004,-0.00041696010157465935,9.349411993753165e-05,-0.68603515625,-0.0283203125,0.767578125
2023-08-01T15:51:30.148289,0.9999998211860657,-0.00023643922759220004,-0.00041696010157465935,9.349411993753165e-05,-0.68603515625,-0.0283203125,0.767578125
2023-08-01T15:51:30.154952,0.9999998211860657,-0.00023643922759220004,-0.00041696010157465935,9.349411993753165e-05,-0.68603515625,-0.02978515625,0.767578125
2023-08-01T15:51:30.154952,0.9999998211860657,-0.00023643922759220004,-0.00041696010157465935,9.349411993753165e-05,-0.68603515625,-0.02978515625,0.767578125
2023-08-01T15:51:30.161948,0.9999998211860657,-0.00023643922759220004,-0.00041696010157465935,9.349411993753165e-05,-0.68603515625,-0.0302734375,0.767578125
2023-08-01T15:51:30.162949,0.9999998211860657,-0.00023643922759220004,-0.00041696010157465935,9.349411993753165e-05,-0.68603515625,-0.0302734375,0.767578125
2023-08-01T15:51:30.176931,0.9999998211860657,-0.00023643922759220004,-0.00041696010157465935,9.349411993753165e-05,-0.6845703125,-0.0302734375,0.76611328125
2023-08-01T15:51:30.177928,0.9999998211860657,-0.00023643922759220004,-0.00041696010157465935,9.349411993753165e-05,-0.6845703125,-0.0302734375,0.76611328125
2023-08-01T15:51:30.184908,0.9999998211860657,-0.00023643922759220004,-0.00041696010157465935,9.349411993753165e-05,-0.6845703125,-0.0302734375,0.765625
2023-08-01T15:51:30.184908,0.9999998211860657,-0.00023643922759220004,-0.00041696010157465935,9.349411993753165e-05,-0.6845703125,-0.0302734375,0.765625
2023-08-01T15:51:30.192725,0.9999998211860657,-0.00023643922759220004,-0.00041696010157465935,9.349411993753165e-05,-0.6845703125,-0.02978515625,0.7646484375
2023-08-01T15:51:30.199727,0.9999998211860657,-0.00023643922759220004,-0.00041696010157465935,9.349411993753165e-05,-0.6845703125,-0.02978515625,0.7646484375
2023-08-01T15:51:30.206712,0.9999998211860657,-0.00023643922759220004,-0.00041696010157465935,9.349411993753165e-05,-0.68701171875,-0.03173828125,0.76416015625
2023-08-01T15:51:30.206712,0.9999998211860657,-0.00023643922759220004,-0.00041696010157465935,9.349411993753165e-05,-0.68701171875,-0.03173828125,0.76416015625
2023-08-01T15:51:30.214727,0.9999998211860657,-0.00023643922759220004,-0.00041696010157465935,9.349411993753165e-05,-0.689453125,-0.03076171875,0.76220703125
2023-08-01T15:51:30.215725,0.9999998211860657,-0.00023643922759220004,-0.00041696010157465935,9.349411993753165e-05,-0.689453125,-0.03076171875,0.76220703125
2023-08-01T15:51:30.221744,0.9999998211860657,-0.00023643922759220004,-0.00041696010157465935,9.349411993753165e-05,-0.6875,-0.02783203125,0.7607421875
2023-08-01T15:51:30.222741,0.9999998211860657,-0.00023643922759220004,-0.00041696010157465935,9.349411993753165e-05,-0.6875,-0.02783203125,0.7607421875
2023-08-01T15:51:30.237256,0.9999998211860657,-0.00023643922759220004,-0.00041696010157465935,9.349411993753165e-05,-0.68701171875,-0.02783203125,0.76416015625
2023-08-01T15:51:30.237256,0.9999998211860657,-0.00023643922759220004,-0.00041696010157465935,9.349411993753165e-05,-0.68701171875,-0.02783203125,0.76416015625
2023-08-01T15:51:30.244254,0.9999998211860657,-0.00023643922759220004,-0.00041696010157465935,9.349411993753165e-05,-0.68603515625,-0.02783203125,0.76708984375
2023-08-01T15:51:30.245251,0.9999998211860657,-0.00023643331951461732,-0.0004801653267350048,9.350906475447118e-05,-0.68603515625,-0.02783203125,0.76708984375
2023-08-01T15:51:30.252092,0.9999998211860657,-0.00023643331951461732,-0.0004801653267350048,9.350906475447118e-05,-0.68505859375,-0.0283203125,0.76611328125
2023-08-01T15:51:30.252092,0.9999998211860657,-0.00023643331951461732,-0.0004801653267350048,9.350906475447118e-05,-0.68505859375,-0.0283203125,0.76611328125
2023-08-01T15:51:30.260087,0.9999998211860657,-0.00023643331951461732,-0.0004801653267350048,9.350906475447118e-05,-0.68505859375,-0.02783203125,0.76806640625
2023-08-01T15:51:30.267070,0.9999998211860657,-0.00023643331951461732,-0.0004801653267350048,9.350906475447118e-05,-0.68505859375,-0.02783203125,0.76806640625
2023-08-01T15:51:30.275085,0.9999998211860657,-0.00023643331951461732,-0.0004801653267350048,9.350906475447118e-05,-0.68505859375,-0.02734375,0.76708984375
2023-08-01T15:51:30.275085,0.9999998211860657,-0.00023643331951461732,-0.0004801653267350048,9.350906475447118e-05,-0.68505859375,-0.02734375,0.76708984375
2023-08-01T15:51:30.282173,0.9999998211860657,-0.00023643331951461732,-0.0004801653267350048,9.350906475447118e-05,-0.68701171875,-0.02392578125,0.7666015625
2023-08-01T15:51:30.282173,0.9999998211860657,-0.00023643331951461732,-0.0004801653267350048,9.350906475447118e-05,-0.68701171875,-0.02392578125,0.7666015625
2023-08-01T15:51:30.289920,0.9999998211860657,-0.00023643331951461732,-0.0004801653267350048,9.350906475447118e-05,-0.68408203125,-0.02685546875,0.76611328125
2023-08-01T15:51:30.289920,0.9999998211860657,-0.00023643331951461732,-0.0004801653267350048,9.350906475447118e-05,-0.68408203125,-0.02685546875,0.76611328125
2023-08-01T15:51:30.305077,0.9999998211860657,-0.00023643331951461732,-0.0004801653267350048,9.350906475447118e-05,-0.685546875,-0.02783203125,0.7666015625
2023-08-01T15:51:30.312459,0.9999998211860657,-0.00023643331951461732,-0.0004801653267350048,9.350906475447118e-05,-0.685546875,-0.02783203125,0.7666015625
2023-08-01T15:51:30.312459,0.9999998211860657,-0.00023643331951461732,-0.0004801653267350048,9.350906475447118e-05,-0.685546875,-0.02734375,0.7685546875
2023-08-01T15:51:30.313459,0.9999998211860657,-0.00023643331951461732,-0.0004801653267350048,9.350906475447118e-05,-0.685546875,-0.02734375,0.7685546875
2023-08-01T15:51:30.321460,0.9999998211860657,-0.00023643331951461732,-0.0004801653267350048,9.350906475447118e-05,-0.68603515625,-0.02880859375,0.7685546875
2023-08-01T15:51:30.322455,0.9999998211860657,-0.00023643331951461732,-0.0004801653267350048,9.350906475447118e-05,-0.68603515625,-0.02880859375,0.7685546875
2023-08-01T15:51:30.334441,0.9999998211860657,-0.00023643331951461732,-0.0004801653267350048,9.350906475447118e-05,-0.68505859375,-0.02978515625,0.767578125
2023-08-01T15:51:30.341982,0.9999998211860657,-0.00023643331951461732,-0.0004801653267350048,9.350906475447118e-05,-0.68505859375,-0.02978515625,0.767578125
2023-08-01T15:51:30.350029,0.9999998211860657,-0.00023643331951461732,-0.0004801653267350048,9.350906475447118e-05,-0.685546875,-0.02978515625,0.76513671875
2023-08-01T15:51:30.350556,0.9999998807907104,-0.00023644119210075587,-0.0003959885216318071,9.348916501039639e-05,-0.685546875,-0.02978515625,0.76513671875
2023-08-01T15:51:30.350556,0.9999998807907104,-0.00023644119210075587,-0.0003959885216318071,9.348916501039639e-05,-0.68994140625,-0.02880859375,0.763671875
2023-08-01T15:51:30.356547,0.9999998807907104,-0.00023644758039154112,-0.00032760266913101077,9.347299783257768e-05,-0.68994140625,-0.02880859375,0.763671875
2023-08-01T15:51:30.365067,0.9999998807907104,-0.00023644758039154112,-0.00032760266913101077,9.347299783257768e-05,-0.69091796875,-0.0283203125,0.7626953125
2023-08-01T15:51:30.365067,0.9999998807907104,-0.00023644758039154112,-0.00032760266913101077,9.347299783257768e-05,-0.69091796875,-0.0283203125,0.7626953125
2023-08-01T15:51:30.372250,0.9999998807907104,-0.00023644758039154112,-0.00032760266913101077,9.347299783257768e-05,-0.68798828125,-0.02880859375,0.76171875
2023-08-01T15:51:30.372250,0.9999998807907104,-0.00023644758039154112,-0.00032760266913101077,9.347299783257768e-05,-0.68798828125,-0.02880859375,0.76171875
2023-08-01T15:51:30.379240,0.9999998807907104,-0.00023644758039154112,-0.00032760266913101077,9.347299783257768e-05,-0.68798828125,-0.02783203125,0.76123046875
2023-08-01T15:51:30.380549,0.9999998807907104,-0.00023644758039154112,-0.00032760266913101077,9.347299783257768e-05,-0.68798828125,-0.02783203125,0.76123046875
2023-08-01T15:51:30.394165,0.9999998807907104,-0.00023644758039154112,-0.00032760266913101077,9.347299783257768e-05,-0.6865234375,-0.02783203125,0.763671875
2023-08-01T15:51:30.395163,0.9999998807907104,-0.00023644758039154112,-0.00032760266913101077,9.347299783257768e-05,-0.6865234375,-0.02783203125,0.763671875
2023-08-01T15:51:30.402292,0.9999998807907104,-0.00023644758039154112,-0.00032760266913101077,9.347299783257768e-05,-0.68505859375,-0.0283203125,0.76318359375
2023-08-01T15:51:30.402292,0.9999998807907104,-0.00023644117754884064,-0.00039607155486010015,9.348918683826923e-05,-0.68505859375,-0.0283203125,0.76318359375
2023-08-01T15:51:30.409952,0.9999998807907104,-0.00023644117754884064,-0.00039607155486010015,9.348918683826923e-05,-0.68310546875,-0.02783203125,0.76416015625
2023-08-01T15:51:30.409952,0.9999998807907104,-0.0002364357642363757,-0.0004540131485555321,9.350288746645674e-05,-0.68310546875,-0.02783203125,0.76416015625
2023-08-01T15:51:30.424931,0.9999998807907104,-0.0002364357642363757,-0.0004540131485555321,9.350288746645674e-05,-0.68408203125,-0.02880859375,0.767578125
2023-08-01T15:51:30.424931,0.9999998807907104,-0.0002364357642363757,-0.0004540131485555321,9.350288746645674e-05,-0.68408203125,-0.02880859375,0.767578125
2023-08-01T15:51:30.431929,0.9999998807907104,-0.0002364357642363757,-0.0004540131485555321,9.350288746645674e-05,-0.6826171875,-0.02880859375,0.7666015625
2023-08-01T15:51:30.432927,0.9999998807907104,-0.0002364357642363757,-0.0004540131485555321,9.350288746645674e-05,-0.6826171875,-0.02880859375,0.7666015625
2023-08-01T15:51:30.440052,0.9999998807907104,-0.0002364357642363757,-0.0004540131485555321,9.350288746645674e-05,-0.685546875,-0.02783203125,0.765625
2023-08-01T15:51:30.440052,0.9999998807907104,-0.0002364357642363757,-0.0004540131485555321,9.350288746645674e-05,-0.685546875,-0.02783203125,0.765625
2023-08-01T15:51:30.455054,0.9999998807907104,-0.0002364357642363757,-0.0004540131485555321,9.350288746645674e-05,-0.68896484375,-0.02685546875,0.765625
2023-08-01T15:51:30.455054,0.9999998807907104,-0.0002364357642363757,-0.0004540131485555321,9.350288746645674e-05,-0.68896484375,-0.02685546875,0.765625
2023-08-01T15:51:30.462050,0.9999998807907104,-0.0002364357642363757,-0.0004540131485555321,9.350288746645674e-05,-0.6884765625,-0.02880859375,0.7646484375
2023-08-01T15:51:30.463048,0.9999998807907104,-0.0002364357642363757,-0.0004540131485555321,9.350288746645674e-05,-0.6884765625,-0.02880859375,0.7646484375
2023-08-01T15:51:30.470042,0.9999998807907104,-0.0002364357642363757,-0.0004540131485555321,9.350288746645674e-05,-0.6875,-0.0283203125,0.7666015625
2023-08-01T15:51:30.470042,0.9999998807907104,-0.00023643035092391074,-0.0005119547131471336,9.351658809464425e-05,-0.6875,-0.0283203125,0.7666015625
2023-08-01T15:51:30.484109,0.9999998807907104,-0.00023643035092391074,-0.0005119547131471336,9.351658809464425e-05,-0.685546875,-0.03076171875,0.76904296875
2023-08-01T15:51:30.485106,0.9999998807907104,-0.00023643035092391074,-0.0005119547131471336,9.351658809464425e-05,-0.685546875,-0.03076171875,0.76904296875
2023-08-01T15:51:30.491859,0.9999998807907104,-0.00023643035092391074,-0.0005119547131471336,9.351658809464425e-05,-0.68359375,-0.03466796875,0.76953125
2023-08-01T15:51:30.492857,0.9999998807907104,-0.00023643035092391074,-0.0005119547131471336,9.351658809464425e-05,-0.68359375,-0.03466796875,0.76953125
2023-08-01T15:51:30.507326,0.9999998807907104,-0.00023643035092391074,-0.0005119547131471336,9.351658809464425e-05,-0.68212890625,-0.033203125,0.765625
2023-08-01T15:51:30.507326,0.9999998807907104,-0.00023643035092391074,-0.0005119547131471336,9.351658809464425e-05,-0.68212890625,-0.033203125,0.765625
2023-08-01T15:51:30.508323,0.9999998807907104,-0.00023643035092391074,-0.0005119547131471336,9.351658809464425e-05,-0.68505859375,-0.0302734375,0.76318359375
2023-08-01T15:51:30.514869,0.9999998807907104,-0.00023643035092391074,-0.0005119547131471336,9.351658809464425e-05,-0.68505859375,-0.0302734375,0.76318359375
2023-08-01T15:51:30.522898,0.9999998807907104,-0.00023643035092391074,-0.0005119547131471336,9.351658809464425e-05,-0.685546875,-0.0302734375,0.76123046875
2023-08-01T15:51:30.522898,0.9999998807907104,-0.00023643035092391074,-0.0005119547131471336,9.351658809464425e-05,-0.685546875,-0.0302734375,0.76123046875
2023-08-01T15:51:30.530007,0.9999998807907104,-0.00023643035092391074,-0.0005119547131471336,9.351658809464425e-05,-0.68603515625,-0.02978515625,0.76318359375
2023-08-01T15:51:30.530007,0.9999998807907104,-0.00023643035092391074,-0.0005119547131471336,9.351658809464425e-05,-0.68603515625,-0.02978515625,0.76318359375
2023-08-01T15:51:30.537176,0.9999998807907104,-0.00023643035092391074,-0.0005119547131471336,9.351658809464425e-05,-0.68603515625,-0.02978515625,0.7626953125
2023-08-01T15:51:30.544608,0.9999998807907104,-0.00023643035092391074,-0.0005119547131471336,9.351658809464425e-05,-0.68603515625,-0.02978515625,0.7626953125
2023-08-01T15:51:30.551610,0.9999998807907104,-0.00023643035092391074,-0.0005119547131471336,9.351658809464425e-05,-0.68359375,-0.02783203125,0.7666015625
2023-08-01T15:51:30.552607,0.9999998807907104,-0.00023643035092391074,-0.0005119547131471336,9.351658809464425e-05,-0.68359375,-0.02783203125,0.7666015625
2023-08-01T15:51:30.560121,0.9999998807907104,-0.00023643035092391074,-0.0005119547131471336,9.351658809464425e-05,-0.685546875,-0.02587890625,0.765625
2023-08-01T15:51:30.560121,0.9999998807907104,-0.00023643035092391074,-0.0005119547131471336,9.351658809464425e-05,-0.685546875,-0.02587890625,0.765625
2023-08-01T15:51:30.566653,0.9999998807907104,-0.00023643035092391074,-0.0005119547131471336,9.351658809464425e-05,-0.68310546875,-0.0263671875,0.76708984375
2023-08-01T15:51:30.566653,0.9999998807907104,-0.00023643035092391074,-0.0005119547131471336,9.351658809464425e-05,-0.68310546875,-0.0263671875,0.76708984375
2023-08-01T15:51:30.581648,0.9999998807907104,-0.00023643035092391074,-0.0005119547131471336,9.351658809464425e-05,-0.68505859375,-0.02587890625,0.767578125
2023-08-01T15:51:30.582646,0.9999998807907104,-0.00023643035092391074,-0.0005119547131471336,9.351658809464425e-05,-0.68505859375,-0.02587890625,0.767578125
2023-08-01T15:51:30.590156,0.9999998807907104,-0.00023643035092391074,-0.0005119547131471336,9.351658809464425e-05,-0.68798828125,-0.02587890625,0.7666015625
2023-08-01T15:51:30.590156,0.9999998807907104,-0.00023643035092391074,-0.0005119547131471336,9.351658809464425e-05,-0.68798828125,-0.02587890625,0.7666015625
2023-08-01T15:51:30.597136,0.9999998807907104,-0.00023643035092391074,-0.0005119547131471336,9.351658809464425e-05,-0.68603515625,-0.0244140625,0.76611328125
2023-08-01T15:51:30.598137,0.9999998807907104,-0.00023643035092391074,-0.0005119547131471336,9.351658809464425e-05,-0.68603515625,-0.0244140625,0.76611328125
2023-08-01T15:51:30.612689,0.9999998807907104,-0.00023643035092391074,-0.0005119547131471336,9.351658809464425e-05,-0.68408203125,-0.02490234375,0.765625
2023-08-01T15:51:30.613686,0.9999998807907104,-0.00023643035092391074,-0.0005119547131471336,9.351658809464425e-05,-0.68408203125,-0.02490234375,0.765625
2023-08-01T15:51:30.619686,0.9999998807907104,-0.00023643035092391074,-0.0005119547131471336,9.351658809464425e-05,-0.6865234375,-0.0244140625,0.767578125
2023-08-01T15:51:30.619686,0.9999998807907104,-0.00023643035092391074,-0.0005119547131471336,9.351658809464425e-05,-0.6865234375,-0.0244140625,0.767578125
2023-08-01T15:51:30.626669,0.9999998807907104,-0.00023643035092391074,-0.0005119547131471336,9.351658809464425e-05,-0.68701171875,-0.02490234375,0.7666015625
2023-08-01T15:51:30.626669,0.9999998807907104,-0.00023643035092391074,-0.0005119547131471336,9.351658809464425e-05,-0.68701171875,-0.02490234375,0.7666015625
2023-08-01T15:51:30.642662,0.9999998807907104,-0.00023643035092391074,-0.0005119547131471336,9.351658809464425e-05,-0.685546875,-0.02685546875,0.7666015625
2023-08-01T15:51:30.642662,0.9999998807907104,-0.00023643035092391074,-0.0005119547131471336,9.351658809464425e-05,-0.685546875,-0.02685546875,0.7666015625
2023-08-01T15:51:30.650505,0.9999998807907104,-0.00023643035092391074,-0.0005119547131471336,9.351658809464425e-05,-0.68603515625,-0.0263671875,0.767578125
2023-08-01T15:51:30.650505,0.9999998807907104,-0.00023643035092391074,-0.0005119547131471336,9.351658809464425e-05,-0.68603515625,-0.0263671875,0.767578125
2023-08-01T15:51:30.656492,0.9999998807907104,-0.00023643035092391074,-0.0005119547131471336,9.351658809464425e-05,-0.68505859375,-0.02783203125,0.76806640625
2023-08-01T15:51:30.657999,0.9999998807907104,-0.00023643035092391074,-0.0005119547131471336,9.351658809464425e-05,-0.68505859375,-0.02783203125,0.76806640625
2023-08-01T15:51:30.672165,0.9999998807907104,-0.00023643035092391074,-0.0005119547131471336,9.351658809464425e-05,-0.68408203125,-0.0283203125,0.76611328125
2023-08-01T15:51:30.673163,0.9999998807907104,-0.00023643035092391074,-0.0005119547131471336,9.351658809464425e-05,-0.68408203125,-0.0283203125,0.76611328125
2023-08-01T15:51:30.679153,0.9999998807907104,-0.00023643035092391074,-0.0005119547131471336,9.351658809464425e-05,-0.6865234375,-0.0302734375,0.7626953125
2023-08-01T15:51:30.680161,0.9999998807907104,-0.00023643035092391074,-0.0005119547131471336,9.351658809464425e-05,-0.6865234375,-0.0302734375,0.7626953125
2023-08-01T15:51:30.687144,0.9999998807907104,-0.00023643035092391074,-0.0005119547131471336,9.351658809464425e-05,-0.6884765625,-0.0302734375,0.76513671875
