Timestamp,Index,Frame ID,w,x,y,z,ax,ay,az,x_0,y_0,z_0,x_1,y_1,z_1,x_2,y_2,z_2,x_3,y_3,z_3,x_4,y_4,z_4,x_5,y_5,z_5,x_6,y_6,z_6,x_7,y_7,z_7,x_8,y_8,z_8,x_9,y_9,z_9,x_10,y_10,z_10,x_11,y_11,z_11,x_12,y_12,z_12,x_13,y_13,z_13,x_14,y_14,z_14,x_15,y_15,z_15,x_16,y_16,z_16,x_17,y_17,z_17,x_18,y_18,z_18,x_19,y_19,z_19,x_20,y_20,z_20
2023-08-01 15:52:03.268182,0,526,0.7632111310958862,0.5075641870498657,-0.3433386385440826,0.204953521490097,0.05322265625,0.931640625,0.34375,0.4853944480419159,0.6538807153701782,2.010004038766056e-07,0.4168399274349212,0.5956220626831055,-0.0088299661874771,0.3895584642887115,0.4837245345115661,-6.653633317910135e-05,0.3955504894256592,0.393373042345047,0.0059393737465143,0.3857787847518921,0.33424112200737,0.0133083276450634,0.4262463450431824,0.3796116411685943,0.0352836102247238,0.4175750017166137,0.2891585528850555,0.0290830675512552,0.4165465235710144,0.2304436564445495,0.0147436084225773,0.417930543422699,0.1753057241439819,0.0021911391522735,0.4628467857837677,0.36322882771492,0.0279836691915988,0.4549592137336731,0.2580771744251251,0.0253246929496526,0.4515533447265625,0.1903492659330368,0.0118640335276722,0.4478854835033417,0.1269778311252594,0.0003106151416432,0.4957860708236694,0.3684998750686645,0.0148399071767926,0.4939755201339721,0.267600417137146,0.009224098175764,0.4927365481853485,0.208548828959465,0.0008406266570091,0.4903114736080169,0.1559509038925171,-0.0070195267908275,0.5318326950073242,0.3887417614459991,-0.0016368665965273,0.5314114093780518,0.3104976713657379,-0.0069205635227262,0.5314508080482483,0.2620700001716614,-0.0091333771124482,0.5301272869110107,0.2148787528276443,-0.0122432559728622
2023-08-01 15:52:03.320945,1,527,0.7693337202072144,0.5062201619148254,-0.3201899528503418,0.222137451171875,0.1513671875,0.91162109375,0.4453125,0.4856038689613342,0.6547000408172607,1.9145969076816985e-07,0.4190432131290436,0.5959872007369995,-0.0078869387507438,0.3916694223880768,0.4826217293739319,0.0008822196396067,0.3950071036815643,0.3930315673351288,0.0066744238138198,0.3840600848197937,0.3327391445636749,0.01366653945297,0.4277561604976654,0.3794251978397369,0.0349363535642623,0.41944620013237,0.2886269092559814,0.0290281474590301,0.4187921583652496,0.2299239188432693,0.0151071744039654,0.4208848178386688,0.1749849617481231,0.002826377749443,0.4640325903892517,0.3630549609661102,0.0269752759486436,0.4563651978969574,0.25692218542099,0.0247205290943384,0.4533500075340271,0.1884125471115112,0.01145148742944,0.450289636850357,0.1247118711471557,-9.661152580520138e-05,0.4970694184303283,0.3686808943748474,0.0133544616401195,0.4951469600200653,0.267119288444519,0.0083699328824877,0.4941578507423401,0.2067272514104843,-0.0003915569977834,0.4917386472225189,0.1534025073051452,-0.0087981587275862,0.5325693488121033,0.3895986676216125,-0.0034684934653341,0.5319663286209106,0.3103008270263672,-0.0084600299596786,0.5322410464286804,0.2605490684509277,-0.0110043669119477,0.5311478972434998,0.2127925753593444,-0.0145566621795296
2023-08-01 15:52:03.416770,2,528,0.7803972363471985,0.50104820728302,-0.2759312689304352,0.2525720298290252,0.09130859375,0.93115234375,0.34033203125,0.4866486489772796,0.6576065421104431,1.7939844099146285e-07,0.4197796583175659,0.5971947908401489,-0.0065900110639631,0.3935654163360595,0.4822254180908203,0.0034573806915432,0.3978708386421203,0.3924541771411896,0.0102190598845481,0.387183278799057,0.3331382274627685,0.0181819293648004,0.4285389482975006,0.3788512647151947,0.0385274700820446,0.4211347103118896,0.2884190678596496,0.0334059596061706,0.4213374257087707,0.2299504876136779,0.0194191243499517,0.4240182042121887,0.174811914563179,0.0068346108309924,0.4647159874439239,0.362804651260376,0.0299939569085836,0.4577357769012451,0.2572308778762817,0.0282894894480705,0.4556525945663452,0.1889447271823883,0.0146348690614104,0.4533082842826843,0.1245818138122558,0.0026260933373123,0.4974981248378753,0.3690635859966278,0.0156820006668567,0.4959484934806824,0.2673745155334472,0.0108463568612933,0.4957030713558197,0.2070931047201156,0.0017346468521282,0.4942538738250732,0.1531588733196258,-0.0070321476086974,0.5330499410629272,0.3906106948852539,-0.0017921552062034,0.5324558019638062,0.310537040233612,-0.0070429220795631,0.5333433747291565,0.2607577443122864,-0.0099312728270888,0.5331999659538269,0.212450236082077,-0.0138253811746835
2023-08-01 15:52:03.472169,3,529,0.8016812801361084,0.4712770581245422,-0.1209283545613288,0.3472483158111572,-0.056640625,0.939453125,0.3076171875,0.4812563061714172,0.654566764831543,1.891632592787573e-07,0.4232011139392853,0.5895124673843384,-0.0026084699202328,0.404149055480957,0.4776250720024109,0.0056390245445072,0.4106438755989074,0.3916709125041961,0.0096081364899873,0.4040959477424621,0.3299174904823303,0.0142037086188793,0.4374986290931701,0.3737934231758117,0.0362084507942199,0.4323590695858001,0.2814449071884155,0.0305717065930366,0.4305489957332611,0.2232808172702789,0.0175340790301561,0.4323802590370178,0.1691144704818725,0.0056901043280959,0.4685772061347961,0.358641654253006,0.0246366802603006,0.4639923572540283,0.2511692643165588,0.0214742850512266,0.4622261822223663,0.1810159087181091,0.0077519607730209,0.4608735740184784,0.1169098019599914,-0.0042261951602995,0.4978892207145691,0.3657707571983337,0.0080185709521174,0.4998647272586822,0.260293185710907,0.0021050127688795,0.501709520816803,0.1974183768033981,-0.008411981165409,0.5009630918502808,0.1411078572273254,-0.018239701166749,0.5281943082809448,0.3883958458900451,-0.0111732855439186,0.5321320295333862,0.3057363033294678,-0.0178530942648649,0.5350710153579712,0.2531748116016388,-0.0225193798542022,0.5356253981590271,0.2033161967992782,-0.0277088936418294
2023-08-01 15:52:03.517003,4,530,0.8020559549331665,0.4506762325763702,-0.0441658981144428,0.3894181847572326,-0.11767578125,0.95166015625,0.11376953125,0.4854192435741424,0.6543868780136108,1.8659565625966934e-07,0.4255191087722778,0.5895410180091858,-0.002709308406338,0.4076103866100311,0.4755011200904846,0.0051449444144964,0.4144669771194458,0.391538918018341,0.0081963455304503,0.4096404910087585,0.3297334611415863,0.0120498063042759,0.4428879618644714,0.3696838617324829,0.0381122007966041,0.4374743998050689,0.2759852409362793,0.0324916914105415,0.4357475638389587,0.2164958119392395,0.0191701464354991,0.4375272393226623,0.1609966456890106,0.0070000393316149,0.4725818037986755,0.3566350042819977,0.0259219519793987,0.4675129055976867,0.250241219997406,0.0224216245114803,0.4657485485076904,0.1793969273567199,0.0087087219581007,0.4648536741733551,0.1145049035549163,-0.0033210155088454,0.5003191232681274,0.3646984398365021,0.0083375731483101,0.5017729997634888,0.2607700824737549,0.0024825143627822,0.5046288371086121,0.198823869228363,-0.0074461936019361,0.5053669810295105,0.1443520486354828,-0.0168250780552625,0.5280753970146179,0.3863448202610016,-0.0121023505926132,0.5314304828643799,0.3038515448570251,-0.01804787106812,0.5345584154129028,0.2513068318367004,-0.0221877768635749,0.5361800789833069,0.2021913230419159,-0.0271739326417446
2023-08-01 15:52:03.564465,5,531,0.7969807386398315,0.4270670413970947,0.033402569591999,0.4258165955543518,0.04541015625,0.919921875,0.2158203125,0.4865769445896148,0.6533506512641907,1.948600072410045e-07,0.4289912283420563,0.5788842439651489,0.002883456647396,0.4172671735286712,0.4667392373085022,0.0117692276835441,0.4256463646888733,0.3864526152610779,0.0146315740421414,0.4261951446533203,0.326913446187973,0.0178517214953899,0.4485145211219787,0.3691051602363586,0.0422356538474559,0.4460048377513885,0.2756546139717102,0.0376845076680183,0.4437092542648315,0.2173824906349182,0.0259985607117414,0.4447726309299469,0.1635006964206695,0.0151701914146542,0.4741979539394378,0.3565711379051208,0.0270622298121452,0.4735950827598572,0.248956561088562,0.023685622960329,0.4720426201820373,0.1772807985544204,0.0111093204468488,0.4714941680431366,0.1127438247203826,0.0003009736537933,0.4984966218471527,0.3647896647453308,0.006936159916222,0.504547655582428,0.2571285367012024,0.0013169244630262,0.5076425671577454,0.1939526349306106,-0.0080535998567938,0.5095146894454956,0.1389630734920501,-0.0167929995805025,0.5215533375740051,0.3862096965312958,-0.0154995257034897,0.5280522704124451,0.3011455535888672,-0.0211723744869232,0.5330970287322998,0.2466420084238052,-0.0248825103044509,0.5374922156333923,0.1969524770975113,-0.0294196978211402
2023-08-01 15:52:03.620625,6,532,0.7817871570587158,0.3831514120101928,0.1435689330101013,0.4705227613449096,-0.37109375,0.98974609375,-0.02294921875,0.4889393150806427,0.6529833674430847,1.4950707338812208e-07,0.4319546818733215,0.5683207511901855,0.010668946430087,0.427821010351181,0.4582826793193817,0.0218183193355798,0.4395343959331512,0.3826271295547485,0.0256210826337337,0.4405845403671264,0.3261738717556,0.0292354859411716,0.4588116109371185,0.3678075969219208,0.0462941005825996,0.4573124647140503,0.2710067629814148,0.0425528585910797,0.4547256529331207,0.2112212777137756,0.0325703434646129,0.454751968383789,0.1563124656677246,0.0230235271155834,0.4824838936328888,0.3579206466674804,0.0270251128822565,0.4825858175754547,0.2495765388011932,0.023416556417942,0.481672465801239,0.1787131875753402,0.0118511831387877,0.4809015691280365,0.1146466732025146,0.0020689312368631,0.5035871863365173,0.3676747381687164,0.0035530978348106,0.5091326236724854,0.2586569488048553,-0.0018067015334963,0.5116931200027466,0.1932141482830047,-0.009441053494811,0.5136040449142456,0.1353000104427337,-0.0169839672744274,0.5231305956840515,0.3913115561008453,-0.0215672627091407,0.527231752872467,0.3038782775402069,-0.0271813124418258,0.5315043330192566,0.2468401193618774,-0.0300989616662263,0.5355846881866455,0.1950307190418243,-0.0340479090809822
2023-08-01 15:52:03.681980,7,533,0.755043625831604,0.334891140460968,0.2492240369319915,0.5056129693984985,-0.07080078125,0.88671875,-0.115234375,0.527170717716217,0.6522557139396667,-3.43891706222621e-08,0.5293660163879395,0.5592994689941406,0.0424536056816577,0.532833993434906,0.4701584875583648,0.0540470853447914,0.5342915058135986,0.408062607049942,0.0539366528391838,0.5326901078224182,0.3598261773586273,0.0514592975378036,0.5596673488616943,0.3978997468948364,0.0343096926808357,0.5416512489318848,0.2773263454437256,0.026924293488264,0.5252981781959534,0.2012410759925842,0.0203409455716609,0.5157110691070557,0.1396604776382446,0.0144269475713372,0.5566071271896362,0.395617127418518,0.0005869011511094,0.5200989842414856,0.2654837965965271,-0.0093415323644876,0.5027605891227722,0.1849913448095321,-0.0160731598734855,0.4975087642669678,0.1210186779499054,-0.0226663704961538,0.5395989418029785,0.3997366726398468,-0.0321225561201572,0.5205426216125488,0.2586270570755005,-0.0392472892999649,0.5160626173019409,0.172712504863739,-0.0440828017890453,0.520121693611145,0.1042781770229339,-0.0505681037902832,0.5122087001800537,0.4039413630962372,-0.0619435682892799,0.5112413167953491,0.2981872856616974,-0.069513238966465,0.5166915059089661,0.2322929948568344,-0.0722811818122863,0.5243232250213623,0.1740395426750183,-0.0763986110687255
2023-08-01 15:52:03.736491,8,534,0.7336882948875427,0.3035770952701568,0.310545414686203,0.5225935578346252,0.115234375,0.91845703125,0.04150390625,0.5345686078071594,0.6375488042831421,2.4273994370105363e-08,0.5515775680541992,0.5388660430908203,0.0342417173087596,0.5554975271224976,0.4483426213264465,0.0411390885710716,0.5471024513244629,0.3840125799179077,0.0380500443279743,0.5359787344932556,0.3366016149520874,0.0324033759534359,0.5652692317962646,0.3898123800754547,0.0218437872827053,0.5415412783622742,0.2738045454025268,0.0099142482504248,0.521701991558075,0.2015201598405838,0.0008234660490415,0.5101641416549683,0.1407448053359985,-0.0065778843127191,0.5586701035499573,0.3896872699260711,-0.0093320170417428,0.5290513634681702,0.2558856308460235,-0.0232165828347206,0.5117013454437256,0.1740310937166214,-0.032362911850214,0.5039231181144714,0.1075929105281829,-0.0401755236089229,0.536483883857727,0.3949882984161377,-0.0393748730421066,0.521582305431366,0.2549063563346863,-0.0490760579705238,0.5143446922302246,0.1715297549962997,-0.0542249642312526,0.5140781402587891,0.1029547452926635,-0.0603690780699253,0.5043579339981079,0.4035681486129761,-0.0670478641986846,0.5022854208946228,0.2994295954704284,-0.0757885426282882,0.5044069886207581,0.2351501733064651,-0.0783263072371482,0.5083637833595276,0.1786589175462722,-0.0818392038345336
2023-08-01 15:52:03.799084,9,535,0.6970804333686829,0.2485022395849228,0.3983243405818939,0.541907012462616,-0.2900390625,0.97607421875,-0.1611328125,0.54017174243927,0.6257803440093994,-3.13082075820148e-08,0.5633873343467712,0.5308418273925781,0.0389182083308696,0.5693528056144714,0.4479655027389526,0.0515260659158229,0.5637120008468628,0.3879810273647308,0.0543362982571125,0.5541772842407227,0.3443518877029419,0.0536382421851158,0.5706737637519836,0.3802634179592132,0.0263137817382812,0.5400826334953308,0.2781865894794464,0.017554210498929,0.5133225321769714,0.2202707231044769,0.0103482315316796,0.4965074956417084,0.1745126843452453,0.0042681163176894,0.5595422983169556,0.3778218030929565,-0.0041177687235176,0.533703088760376,0.244938462972641,-0.0149322273209691,0.5202893614768982,0.1619248688220977,-0.021865515038371,0.5135568976402283,0.0939529538154602,-0.0281801391392946,0.5342283248901367,0.3857229650020599,-0.0328169241547584,0.5196050405502319,0.2497831434011459,-0.0428872182965278,0.5126316547393799,0.1694112420082092,-0.0492843687534332,0.5123085379600525,0.1044622361660003,-0.0556025505065918,0.4999706745147705,0.3998872637748718,-0.0582418292760849,0.4950693845748901,0.2970704436302185,-0.0717271193861961,0.4970278739929199,0.2323444634675979,-0.0776708200573921,0.5016375184059143,0.1769007742404937,-0.0825627669692039
2023-08-01 15:52:03.860719,10,536,0.6614933013916016,0.1979563683271408,0.4686669707298279,0.5509910583496094,-0.39404296875,0.87353515625,-0.25927734375,0.5477205514907837,0.6155813932418823,6.591682932821642e-08,0.578999400138855,0.5238237380981445,0.0301749780774116,0.5826029777526855,0.4366069138050079,0.0378583446145057,0.5655238628387451,0.3720488846302032,0.0370353236794471,0.5379766821861267,0.3313192725181579,0.032445453107357,0.5823737382888794,0.3748943209648132,0.0176328420639038,0.5469656586647034,0.2765235006809234,0.0091063501313328,0.5195279121398926,0.2274827510118484,0.0007813952979631,0.4986801147460937,0.187123566865921,-0.0061833974905312,0.5626178979873657,0.3688499331474304,-0.0085071772336959,0.5364853143692017,0.2402055114507675,-0.0176743548363447,0.522088885307312,0.1593304872512817,-0.0245776604861021,0.5120213627815247,0.0917894542217254,-0.0310567896813154,0.5311340689659119,0.3781529068946838,-0.032952681183815,0.5158485770225525,0.2468426674604416,-0.0417977236211299,0.5094797611236572,0.1704192608594894,-0.0474940612912178,0.5082178711891174,0.1090390682220459,-0.0531870834529399,0.4912873804569244,0.396931916475296,-0.0547166913747787,0.4855962991714477,0.2956261336803436,-0.0635262951254844,0.4871380031108856,0.2335785627365112,-0.0648131370544433,0.4917667210102081,0.1795672625303268,-0.0665660127997398
2023-08-01 15:52:03.923990,11,537,0.6403771638870239,0.1780180931091308,0.500603199005127,0.5546377897262573,-0.07080078125,0.8837890625,-0.21875,0.5569247007369995,0.5998335480690002,1.666403903755054e-07,0.6090607643127441,0.516717255115509,0.0167975444346666,0.6195134520530701,0.4202319979667663,0.0226958636194467,0.6083125472068787,0.334107905626297,0.0251239314675331,0.59466153383255,0.271691083908081,0.0250812638550996,0.5950427055358887,0.3572627902030945,0.00115806912072,0.5651291608810425,0.2508293986320495,-0.0067397328093647,0.54763263463974,0.1935718059539795,-0.0115773333236575,0.535631000995636,0.1466189920902252,-0.0152258900925517,0.5566350817680359,0.3567619323730469,-0.0141711309552192,0.5293754935264587,0.2279370576143264,-0.0256437975913286,0.5161830186843872,0.1468274742364883,-0.0336226634681224,0.5091767311096191,0.0840386748313903,-0.039092730730772,0.5165458917617798,0.3705322444438934,-0.0274429116398096,0.4972578883171081,0.2499269396066665,-0.0395274050533771,0.4934878647327423,0.170424610376358,-0.0481167621910572,0.4948831498622894,0.1082118153572082,-0.0538060367107391,0.4774803817272186,0.3974997997283935,-0.0380579531192779,0.4650220870971679,0.3010487854480743,-0.0499021410942077,0.4620170295238495,0.2440375834703445,-0.053614504635334,0.4629169702529907,0.1930930167436599,-0.0552408546209335
2023-08-01 15:52:03.982792,12,538,0.6222903728485107,0.1666625440120697,0.5213876366615295,0.5595829486846924,-0.26220703125,0.95556640625,-0.39306640625,0.5623854398727417,0.5982122421264648,2.41073678353132e-07,0.6115245223045349,0.5149266719818115,0.0095197604969143,0.6246469616889954,0.4173005819320678,0.0123164784163236,0.6107584834098816,0.3333658576011657,0.0127413952723145,0.5953935384750366,0.2705074250698089,0.0107127297669649,0.5934284925460815,0.3503967225551605,-0.0061114393174648,0.5652533173561096,0.2439404129981994,-0.0171932764351367,0.54914790391922,0.1842369437217712,-0.0244443658739328,0.537198007106781,0.1359699815511703,-0.0294096805155277,0.5544880628585815,0.3532918393611908,-0.0197231974452734,0.5291301012039185,0.2255517393350601,-0.033515591174364,0.5157791376113892,0.1428368985652923,-0.0439028516411781,0.5073232054710388,0.0780344009399414,-0.0509543903172016,0.5151540637016296,0.3717490434646606,-0.0318194106221199,0.4972556233406067,0.2512511610984802,-0.0461029894649982,0.4915006458759308,0.1711453646421432,-0.0569574050605297,0.490136444568634,0.1073907017707824,-0.0640572011470794,0.4766530096530914,0.4043145179748535,-0.041804302483797,0.4641250371932983,0.3088468313217163,-0.0563017055392265,0.4615170955657959,0.2519549131393432,-0.0617794804275035,0.4619621634483337,0.2006611675024032,-0.0643609687685966
2023-08-01 15:52:04.044896,13,539,0.6154327392578125,0.1626930385828018,0.529728889465332,0.56050044298172,-0.18017578125,0.90625,-0.2412109375,0.5604676008224487,0.5975515246391296,2.487373080839461e-07,0.6146923303604126,0.5200875401496887,0.0084481351077556,0.6334003210067749,0.4267392754554748,0.0108594438061118,0.6203175783157349,0.3414315581321716,0.0119200982153415,0.60647052526474,0.27817103266716,0.0108488416299223,0.5979436039924622,0.3539439141750335,-0.0096000554040074,0.5712916254997253,0.2422330826520919,-0.0190417431294918,0.5548314452171326,0.1838967502117157,-0.0234283190220594,0.5429684519767761,0.1398667693138122,-0.0260549318045377,0.5551202297210693,0.3555223345756531,-0.0214336663484573,0.531981885433197,0.2227576673030853,-0.0337960720062255,0.5185674428939819,0.1413919776678085,-0.0414368882775306,0.510064959526062,0.0799237191677093,-0.0460630059242248,0.5144566893577576,0.3742378056049347,-0.0314452573657035,0.4978719055652618,0.2493028044700622,-0.0440366864204406,0.4915064871311188,0.1695604920387268,-0.0530392415821552,0.4895385205745697,0.1071149706840515,-0.0588521622121334,0.476598709821701,0.4081897437572479,-0.0393138080835342,0.4633605480194092,0.3119219541549682,-0.052344623953104,0.459760308265686,0.2554304301738739,-0.0566690489649772,0.4594838619232178,0.2044209986925125,-0.0582138262689113
2023-08-01 15:52:04.107941,14,540,0.6131826639175415,0.1595532298088073,0.5376889109611511,0.5562736392021179,-0.228515625,0.90966796875,-0.2099609375,0.5482040643692017,0.6060684323310852,2.697018999242573e-07,0.6141909956932068,0.5393847227096558,0.0106127252802252,0.6398741006851196,0.4477961659431457,0.0174774043262004,0.6339938640594482,0.3602013885974884,0.0235249642282724,0.6282029151916504,0.2938741445541382,0.0291776619851589,0.5982980132102966,0.3565048575401306,0.0055125765502452,0.5857106447219849,0.2454743534326553,0.0048287296667695,0.5786808729171753,0.1907482147216797,0.0057920459657907,0.5730602741241455,0.1493482887744903,0.0065649095922708,0.5522761940956116,0.354539692401886,-0.0028644409030675,0.5429099798202515,0.2272551357746124,-0.0083063365891575,0.5374470949172974,0.1550217568874359,-0.0104710943996906,0.533789336681366,0.1005218029022216,-0.0105779161676764,0.5118780136108398,0.3712600171566009,-0.0098875276744365,0.5061429738998413,0.2525181174278259,-0.0165056660771369,0.5064086318016052,0.1796478927135467,-0.0204830951988697,0.5076550245285034,0.1224080920219421,-0.0222773868590593,0.4770955741405487,0.404155820608139,-0.0148856770247221,0.469885766506195,0.3091123402118683,-0.0201598200947046,0.4699279963970184,0.2550044953823089,-0.0192408766597509,0.4736014008522033,0.2082752138376236,-0.0169215649366378
2023-08-01 15:52:04.171854,15,541,0.6116650700569153,0.1586141586303711,0.5440179109573364,0.5520433783531189,-0.1337890625,0.94091796875,-0.2861328125,0.5460320115089417,0.6100174784660339,2.634936890899553e-07,0.6127446293830872,0.5468718409538269,0.0050191348418593,0.6402075886726379,0.4552145600318908,0.0086758434772491,0.6336309909820557,0.365225225687027,0.0122573813423514,0.6284361481666565,0.2983958721160888,0.015554029494524,0.5991486310958862,0.3625718057155609,-0.0013804098125547,0.585090160369873,0.2497032582759857,-0.00645705871284,0.5748288631439209,0.1910674422979354,-0.0091079445555806,0.5667619109153748,0.1464714556932449,-0.0107387313619256,0.5520957112312317,0.3597288727760315,-0.0082379886880517,0.5432992577552795,0.2330525517463684,-0.0164821185171604,0.5373281836509705,0.1573054939508438,-0.0218021366745233,0.5332578420639038,0.0992485880851745,-0.0246354099363088,0.5106393694877625,0.3745276629924774,-0.0140080582350492,0.5046268105506897,0.2561777532100677,-0.0222376268357038,0.5040879249572754,0.1827976703643798,-0.0278377812355756,0.5039507746696472,0.125497281551361,-0.0311478450894355,0.4749916195869446,0.4064269661903381,-0.0183109696954488,0.4701040089130401,0.3126928806304931,-0.0252946354448795,0.4695696830749511,0.258614033460617,-0.0258873794227838,0.4708228707313537,0.2125447243452072,-0.0247970111668109
2023-08-01 15:52:04.239597,16,542,0.6093653440475464,0.1569996625185012,0.5490109920501709,0.5501016974449158,-0.19384765625,0.93994140625,-0.3193359375,0.5392805933952332,0.6168028116226196,2.813134756252112e-07,0.608408510684967,0.5556244850158691,0.0040000448934733,0.6378204822540283,0.462701141834259,0.0086585972458124,0.630997896194458,0.3710814416408539,0.0136175965890288,0.6268334984779358,0.3031643629074096,0.0186537634581327,0.5949504375457764,0.3667722940444946,0.0017569737974554,0.5825632810592651,0.2559803128242492,-0.0007353795226663,0.5731070637702942,0.1980023384094238,-0.0022118729539215,0.565373420715332,0.1518386751413345,-0.0034616435877978,0.5475522875785828,0.3617219626903534,-0.0038022038061171,0.5395388007164001,0.2375642657279968,-0.0094312047585845,0.5343568921089172,0.1610321849584579,-0.0139896087348461,0.5311132073402405,0.1011416614055633,-0.0165484584867954,0.5058686137199402,0.3752629458904266,-0.0084929540753364,0.500755786895752,0.2588304281234741,-0.0149672543630003,0.501032292842865,0.1859733313322067,-0.0201601739972829,0.5016510486602783,0.1267965734004974,-0.0233379546552896,0.4700156152248382,0.4058952331542969,-0.0118585638701915,0.4667646884918213,0.312493085861206,-0.0181663036346435,0.4666748046875,0.2600356638431549,-0.0183703135699033,0.4679548740386963,0.2139288485050201,-0.0168890785425901
2023-08-01 15:52:04.312222,17,543,0.6078975200653076,0.1568609029054641,0.550637423992157,0.5501397848129272,-0.158203125,0.921875,-0.27197265625,0.5312269330024719,0.6222643256187439,2.580440536803508e-07,0.6047857999801636,0.5618488192558289,0.0092255175113677,0.6368333697319031,0.4723549783229828,0.0161424167454242,0.6297853589057922,0.3811239004135132,0.0224253144115209,0.6246353387832642,0.3136407732963562,0.0280978679656982,0.595635175704956,0.3732895851135254,0.0053330627270042,0.5801395177841187,0.2591975927352905,0.0036833507474511,0.568671464920044,0.2000125497579574,0.0029744172934442,0.5590258836746216,0.1537034064531326,0.0024525495246052,0.546889066696167,0.3674046099185943,-0.0023828856647014,0.5372825264930725,0.2401547878980636,-0.0076354281045496,0.5292941927909851,0.1623877435922622,-0.0119508570060133,0.5239315032958984,0.1027527153491973,-0.0142609924077987,0.5026789307594299,0.3805146515369415,-0.0087449271231889,0.4977230429649353,0.2623184025287628,-0.0143952360376715,0.4962245225906372,0.1890410184860229,-0.0196548569947481,0.4956987500190735,0.1310890316963195,-0.0229536909610033,0.4627426564693451,0.4114188849925995,-0.0132563291117548,0.4585102796554565,0.3173819184303283,-0.0180634781718254,0.4585341215133667,0.2636261880397796,-0.0179108325392007,0.4608637988567352,0.2165578603744506,-0.0163813009858131
2023-08-01 15:52:04.393806,18,544,0.6146917939186096,0.1607360541820526,0.5432388782501221,0.5488255620002747,-0.22314453125,0.93359375,-0.29833984375,0.5294637084007263,0.6263916492462158,2.5954690840990224e-07,0.603339672088623,0.5670120120048523,0.0083142314106225,0.6359845399856567,0.4785037934780121,0.0150866005569696,0.6301205158233643,0.385943204164505,0.0213934108614921,0.6247801780700684,0.3181581497192383,0.0273185838013887,0.5936384201049805,0.3780301809310913,0.0062572271563112,0.5791738629341125,0.2641422152519226,0.0055260434746742,0.5684850811958313,0.2052080482244491,0.0049583008512854,0.5595813989639282,0.1588252633810043,0.0045347814448177,0.5442596077919006,0.3705365359783172,-0.0005297902389429,0.5352558493614197,0.2423268258571624,-0.0042011281475424,0.5283647775650024,0.1648981422185897,-0.0077524897642433,0.5243315100669861,0.1063542366027832,-0.0095797395333647,0.499511182308197,0.3821732997894287,-0.0060811047442257,0.4962317943572998,0.2627842426300049,-0.0104260155931115,0.4966693818569183,0.1903790086507797,-0.014932433143258,0.4978288114070892,0.1337476372718811,-0.0177178103476762,0.4593473374843597,0.4114463031291961,-0.0099288709461689,0.4564967155456543,0.3158871531486511,-0.0136157749220728,0.4571889340877533,0.2631230354309082,-0.0125312246382236,0.4602610468864441,0.2173263728618621,-0.0102763455361127
2023-08-01 15:52:04.468926,19,545,0.6276773810386658,0.1734537035226822,0.5245745182037354,0.5484126210212708,-0.23583984375,0.93408203125,-0.2939453125,0.5281829833984375,0.6282941102981567,2.772019058738806e-07,0.6025469899177551,0.5680842995643616,0.0089500145986676,0.6364079713821411,0.4785999357700348,0.0167163778096437,0.6297515034675598,0.3852583467960357,0.0246871318668127,0.624416172504425,0.3172538578510284,0.0327067449688911,0.5920612812042236,0.3810798525810241,0.0064027504995465,0.5778566002845764,0.2642019391059875,0.0082449950277805,0.5667256116867065,0.2047498822212219,0.0102058900520205,0.5575313568115234,0.1585958153009414,0.0116185573861002,0.5412415266036987,0.3733754456043243,0.000959608121775,0.5328254103660583,0.2429265528917312,-0.0010945107787847,0.526553213596344,0.1650591641664505,-0.0026360503397881,0.5233303904533386,0.1073658168315887,-0.0027410062029957,0.4963692724704742,0.3842604160308838,-0.0029399509076029,0.493271917104721,0.2634830474853515,-0.0051632062532007,0.4941520094871521,0.1911289691925048,-0.0081058321520686,0.4955162405967712,0.1347007751464843,-0.009728929027915,0.4575670063495636,0.4124670028686523,-0.0050095058977603,0.4548549652099609,0.3159143626689911,-0.0059583904221653,0.4554355442523956,0.263899028301239,-0.0033526069018989,0.4582756459712982,0.2189710587263107,-0.0001116003768402
2023-08-01 15:52:04.534924,20,546,0.6507304906845093,0.1958596408367157,0.4890869855880737,0.5467931628227234,-0.05322265625,0.93359375,-0.240234375,0.529770016670227,0.6268472671508789,2.5672110837149376e-07,0.6005813479423523,0.5656222701072693,0.0103957308456301,0.6323039531707764,0.4768217504024505,0.0175952725112438,0.6258055567741394,0.3840861916542053,0.024441223591566,0.6213399171829224,0.3163827657699585,0.0310189723968505,0.5890365242958069,0.3797623813152313,0.0062399925664067,0.5733745098114014,0.2637263834476471,0.0073639880865812,0.5614359974861145,0.205501839518547,0.0091166254132986,0.5513045191764832,0.1608300060033798,0.010439334437251,0.5398600697517395,0.3727330267429352,-0.0007233589421957,0.5302891731262207,0.2425394654273986,-0.0024526654742658,0.5229875445365906,0.1663935631513595,-0.003706679912284,0.5184417963027954,0.1099374294281005,-0.003908178769052,0.4954225420951843,0.3844203948974609,-0.0060681202448904,0.4914097785949707,0.2634564638137817,-0.0080843903124332,0.4915095865726471,0.1912730485200882,-0.0107989013195037,0.4923910200595855,0.1348467767238617,-0.0128399571403861,0.4560683965682983,0.4132319986820221,-0.0094638522714376,0.451968789100647,0.3183614909648895,-0.0111114615574479,0.4530554711818695,0.2661902010440826,-0.008780363947153,0.4567748308181762,0.2204376310110092,-0.0059507396072149
2023-08-01 15:52:04.589196,21,547,0.6709019541740417,0.2169910967350006,0.4531899690628052,0.5453662276268005,-0.4287109375,0.91064453125,-0.2119140625,0.5314894914627075,0.6284525394439697,2.736258295499283e-07,0.60239177942276,0.5648223161697388,0.0063926945440471,0.6329407095909119,0.4737914204597473,0.0114767076447606,0.6241783499717712,0.382285326719284,0.0162586886435747,0.6167029142379761,0.3146803379058838,0.0207138266414403,0.588437557220459,0.3784113228321075,0.002740932162851,0.5713065266609192,0.2621604800224304,7.842175364203285e-06,0.5594830513000488,0.2032346278429031,-0.0014455562923103,0.5500780344009399,0.1580181419849395,-0.0021793427877128,0.5387887358665466,0.3737517595291137,-0.0037935473956167,0.527306318283081,0.2442696690559387,-0.0086728138849139,0.5199224352836609,0.1668298244476318,-0.0123361460864543,0.5158100128173828,0.1087233126163482,-0.014203674159944,0.4944995641708374,0.3872795701026916,-0.0093472134321928,0.4878812432289123,0.2664173245429992,-0.0145695470273494,0.4869447946548462,0.1933736503124237,-0.0189884100109338,0.4875296354293823,0.1361415088176727,-0.021698972210288,0.4557085037231445,0.4175243079662323,-0.0133760124444961,0.4513936042785644,0.3186849653720855,-0.0178240574896335,0.4508310556411743,0.2650998830795288,-0.0168674644082784,0.4528542757034302,0.2186701148748397,-0.0146875968202948
2023-08-01 15:52:04.656636,22,548,0.6966366171836853,0.2509407699108124,0.4023967981338501,0.538333535194397,-0.2333984375,0.89306640625,-0.1640625,0.533466637134552,0.6254609823226929,2.585753122730239e-07,0.601843535900116,0.5600144267082214,0.0092994617298245,0.6288157105445862,0.4683216512203216,0.0151348123326897,0.6208323240280151,0.3781802058219909,0.0200843568891286,0.6152845025062561,0.3122458755970001,0.0243478901684284,0.5876066088676453,0.3774471879005432,0.0022959550842642,0.570268988609314,0.2629473805427551,-0.0007527337875217,0.5585082173347473,0.2031774520874023,-0.0018226585816591,0.549289345741272,0.1579923033714294,-0.0023792742285877,0.5395129323005676,0.3729787468910217,-0.0061186724342405,0.5267289876937866,0.2432696223258972,-0.0127222202718257,0.5188465714454651,0.1655418574810028,-0.0167161859571933,0.514343798160553,0.1069342494010925,-0.0186218526214361,0.4954345226287842,0.3863317370414734,-0.0130923725664615,0.4873888194561004,0.2653481364250183,-0.019891008734703,0.485371321439743,0.1919604241847992,-0.0244231522083282,0.4850675761699676,0.1339756250381469,-0.0270295869559049,0.4562650024890899,0.4166343808174133,-0.018155412748456,0.4506840705871582,0.3178341388702392,-0.0240630786865949,0.4496226906776428,0.2634822726249695,-0.0235658716410398,0.4508548080921173,0.2159364372491836,-0.0216449741274118
2023-08-01 15:52:04.714080,23,549,0.7234616875648499,0.2939159274101257,0.3416911661624908,0.5229376554489136,-0.00244140625,0.97509765625,-0.19921875,0.5355951189994812,0.6191805601119995,2.5144163373624906e-07,0.6008439064025879,0.5506935715675354,0.0117720300331711,0.6240159869194031,0.4613819420337677,0.0177995115518569,0.6176316142082214,0.373874306678772,0.0221026390790939,0.6143487691879272,0.3082883954048157,0.0255758389830589,0.5853590965270996,0.3718777298927307,0.0050944937393069,0.5653976798057556,0.2607872784137726,0.0018270213622599,0.5530093908309937,0.2034408897161483,0.0004920585197396,0.5439960360527039,0.1599080115556717,-0.0001396540028508,0.5398022532463074,0.3680884540081024,-0.0048996610566973,0.5238535404205322,0.2404642552137375,-0.0121662793681025,0.5154857635498047,0.1641862392425537,-0.0165312178432941,0.5110903382301331,0.1064271628856659,-0.018545139580965,0.4963672757148742,0.3822380304336548,-0.0133348200470209,0.4856591820716858,0.2630165815353393,-0.0206508208066225,0.4824509620666504,0.1903338581323623,-0.0246924441307783,0.4817101955413818,0.1328965723514557,-0.0267267283052206,0.4562903344631195,0.4134251177310943,-0.0196621865034103,0.4486700892448425,0.3158484697341919,-0.0254341997206211,0.446977436542511,0.2622683048248291,-0.0240591932088136,0.4477664530277252,0.2154831439256668,-0.0214083828032016
2023-08-01 15:52:04.771824,24,550,0.7507290840148926,0.3357602059841156,0.2644189894199371,0.5037394762039185,-0.44970703125,0.9453125,-0.16796875,0.5419852137565613,0.6043192148208618,1.893241687866976e-07,0.5927783846855164,0.5194352865219116,0.0177851002663373,0.6052746772766113,0.4253981411457062,0.024548465386033,0.5961178541183472,0.343867689371109,0.0274133458733558,0.5804526805877686,0.2862478494644165,0.0282522272318601,0.5724605917930603,0.3546583950519562,0.0086313532665371,0.54289710521698,0.2531067132949829,0.0037976203020662,0.5258548855781555,0.201489046216011,7.183208799688146e-05,0.5135768055915833,0.1616608500480651,-0.0024413105566054,0.5322784185409546,0.3565292954444885,-0.0059175160713493,0.5053969621658325,0.232303112745285,-0.0123224575072526,0.4933348894119262,0.1583908200263977,-0.0171110667288303,0.4869400262832641,0.1020062267780304,-0.0204039141535758,0.4919924437999725,0.372811496257782,-0.0189721900969743,0.4743231832981109,0.2539461851119995,-0.0254964064806699,0.469158411026001,0.179980993270874,-0.0306987185031175,0.4684286713600158,0.1210544407367706,-0.0347519852221012,0.4536019563674927,0.402469128370285,-0.0296847447752952,0.4416287541389465,0.3060866594314575,-0.0357960127294063,0.4380732178688049,0.2508224844932556,-0.0358179062604904,0.4375879466533661,0.2014146745204925,-0.0351696573197841
2023-08-01 15:52:04.838177,25,551,0.7802837491035461,0.3935786485671997,0.1448141485452652,0.4639849066734314,0.1640625,0.91748046875,0.00927734375,0.5447838306427002,0.6030929684638977,1.2408888494519488e-07,0.5887243747711182,0.5185899138450623,0.0193713940680027,0.598483145236969,0.4272641837596893,0.0269203763455152,0.5881543159484863,0.3509441018104553,0.0298064239323139,0.5749567151069641,0.2947160005569458,0.0303060077130794,0.5776053071022034,0.3578311502933502,0.011226755566895,0.5464436411857605,0.2581199705600738,0.0047701802104711,0.5259665250778198,0.2047549486160278,-0.0005126666510477,0.5124462842941284,0.1645940542221069,-0.0041764276102185,0.5425491333007812,0.3548133671283722,-0.0054710609838366,0.5113899111747742,0.2323221117258072,-0.0129247326403856,0.4943798780441284,0.1561325639486313,-0.0196551270782947,0.4839367866516113,0.0976203083992004,-0.0245612729340791,0.5047167539596558,0.367779403924942,-0.0208672191947698,0.4819003939628601,0.2517462968826294,-0.0291952714323997,0.4733263850212097,0.1768633872270584,-0.0369506999850273,0.4700041711330414,0.1182983517646789,-0.0427063032984733,0.4658239781856537,0.3943983614444732,-0.0338457562029361,0.4496574997901916,0.2984968423843384,-0.042118951678276,0.4439169764518738,0.2440422028303146,-0.0439114347100257,0.4414794743061065,0.196502611041069,-0.0445752553641796
2023-08-01 15:52:04.896128,26,552,0.7922621369361877,0.4177330732345581,0.0725330486893653,0.4388150572776794,-0.748046875,0.95458984375,-0.021484375,0.5421118140220642,0.6030300855636597,-4.174393453126869e-08,0.5726059675216675,0.5203003883361816,0.0330837070941925,0.5776898264884949,0.441843181848526,0.0462522804737091,0.5713469982147217,0.3829237818717956,0.0515300147235393,0.5586025714874268,0.3395721316337585,0.0538240112364292,0.5673093199729919,0.3578815162181854,0.0228312723338603,0.5274404287338257,0.2660289406776428,0.0180080998688936,0.500221848487854,0.2119445204734802,0.0142531227320432,0.4794400334358215,0.1669121384620666,0.0102598164230585,0.5503590106964111,0.3531776368618011,-0.0023046717979013,0.5144280791282654,0.2319471985101699,-0.0110638057813048,0.4942875802516937,0.1550991982221603,-0.0157107636332511,0.4787313342094421,0.0926640033721923,-0.0196117796003818,0.5215102434158325,0.3644993901252746,-0.0256319642066955,0.4953524470329284,0.2447166591882705,-0.0356581062078475,0.482330858707428,0.169034868478775,-0.0417105294764041,0.4746764898300171,0.106634110212326,-0.0465516485273838,0.4835774004459381,0.3869643807411194,-0.0458658747375011,0.4678316116333008,0.2924776077270508,-0.0585294701159,0.4609847962856293,0.2319872677326202,-0.0633011311292648,0.4577981233596802,0.1791784614324569,-0.0664804726839065
2023-08-01 15:52:04.961207,27,553,0.7955474853515625,0.4615424871444702,-0.0599086321890354,0.3879351019859314,0.26318359375,0.9111328125,0.20166015625,0.5408796072006226,0.6120763421058655,-1.294587690381377e-07,0.5579070448875427,0.5230146646499634,0.0389487706124782,0.5624905824661255,0.4426670968532562,0.0545748807489872,0.5614283680915833,0.3859610259532928,0.0614091418683528,0.55951327085495,0.3440823256969452,0.0655526965856552,0.5574784874916077,0.364399790763855,0.0281860493123531,0.5219880938529968,0.2711769044399261,0.0218711886554956,0.4976704716682434,0.2110722064971923,0.0182148646563291,0.4808881282806396,0.159621000289917,0.0144775556400418,0.5494599342346191,0.3623126149177551,-0.0010814474662765,0.5132373571395874,0.2371494323015213,-0.0130236521363258,0.4932090044021606,0.1577550321817398,-0.0176382530480623,0.4792399406433105,0.0915570557117462,-0.0208338685333728,0.5271682143211365,0.371585488319397,-0.02873395383358,0.4993716776371002,0.2467493116855621,-0.041395004838705,0.4847907423973083,0.1700907200574875,-0.0466887354850769,0.4771846234798431,0.1051730513572692,-0.0503367781639099,0.4938448667526245,0.3882725834846496,-0.0530451871454715,0.4769316017627716,0.2908284366130829,-0.0695663318037986,0.4699122309684753,0.2266419976949691,-0.0769065916538238,0.4675950109958648,0.1714234203100204,-0.0815815776586532
2023-08-01 15:52:05.019916,28,554,0.7878079414367676,0.4869394898414612,-0.1477829962968826,0.3469996452331543,0.39453125,0.892578125,0.23828125,0.5415841937065125,0.617265522480011,-1.0101869918344165e-07,0.552190363407135,0.5230005979537964,0.0393398664891719,0.5494928956031799,0.4383675158023834,0.0505207143723964,0.5399675965309143,0.3789590299129486,0.0517531000077724,0.5293344259262085,0.3334720134735107,0.0501774065196514,0.5572313070297241,0.371019959449768,0.0248024556785821,0.521430492401123,0.266293317079544,0.0157746877521276,0.4956096410751343,0.2024260610342025,0.0098244659602642,0.4791741669178009,0.1476851850748062,0.0044802916236221,0.5513126254081726,0.3708873987197876,-0.0071001080796122,0.5102384686470032,0.2421175092458725,-0.0189632028341293,0.4878165423870086,0.1632270663976669,-0.0253194458782672,0.4747051000595093,0.0971641540527343,-0.0310732740908861,0.5303583741188049,0.3804645538330078,-0.0374230816960334,0.5009714365005493,0.2469217032194137,-0.0474334582686424,0.4851836562156677,0.1691438108682632,-0.0524960570037364,0.4780440628528595,0.1027166843414306,-0.0580671466886997,0.4988820850849151,0.3954180181026459,-0.0646659806370735,0.4829247295856476,0.2948786616325378,-0.0770680531859397,0.4769154191017151,0.2300820648670196,-0.0827697142958641,0.4751092791557312,0.1712249964475631,-0.0879593268036842
2023-08-01 15:52:05.087954,29,555,0.77828449010849,0.5007190108299255,-0.2057556957006454,0.3181482851505279,-0.31103515625,0.9326171875,0.2041015625,0.5255255103111267,0.6195731163024902,-5.765717148165096e-08,0.5116047859191895,0.5300848484039307,0.0314087755978107,0.5137492418289185,0.441635251045227,0.0413491800427436,0.5151700377464294,0.3788096308708191,0.0424976795911788,0.5119282007217407,0.3299000859260559,0.0422726981341838,0.5450036525726318,0.3778891563415527,0.0271374620497226,0.5193364024162292,0.2756193280220032,0.016514953225851,0.4980694055557251,0.2033978849649429,0.0072617074474692,0.4846999049186706,0.1434078067541122,4.876282400800847e-05,0.5462475419044495,0.373806744813919,0.0001322983735008,0.5121901631355286,0.2495469748973846,-0.0127823008224368,0.4913538694381714,0.1674549132585525,-0.0217160768806934,0.4792182147502899,0.1004643142223358,-0.0286361090838909,0.5332832336425781,0.3771136701107025,-0.0264886189252138,0.5073387622833252,0.2527381479740143,-0.0378471389412879,0.4891544878482818,0.1724064201116562,-0.0452556237578392,0.4785808026790619,0.106183648109436,-0.05153763666749,0.5086634159088135,0.3842678368091583,-0.0511071793735027,0.4976034462451935,0.2908269464969635,-0.0613732486963272,0.4903541207313537,0.2296178936958313,-0.0665270760655403,0.4861671030521393,0.1754990518093109,-0.0711989849805831
2023-08-01 15:52:05.145900,30,556,0.7610333561897278,0.5157435536384583,-0.2779664397239685,0.2785163521766662,0.1376953125,0.95263671875,0.3095703125,0.516346275806427,0.626731276512146,1.5886195114944712e-07,0.460703045129776,0.5469850301742554,5.253764902590774e-05,0.4615294337272644,0.4575960040092468,-0.0023348892573267,0.4742155075073242,0.3910644650459289,-0.0078535368666052,0.476884126663208,0.3358103334903717,-0.0140715409070253,0.507652223110199,0.3703517615795135,0.0022579713258892,0.4914049804210663,0.2677479982376098,-0.0141944251954555,0.4786139726638794,0.1963536888360977,-0.0290844477713108,0.4726399481296539,0.1367645859718322,-0.0403736568987369,0.5233557820320129,0.3714045584201813,-0.0116715133190155,0.4997065663337707,0.2559635639190674,-0.0277829002588987,0.4887351989746094,0.1764803826808929,-0.042598970234394,0.48434978723526,0.1087886989116668,-0.0535757988691329,0.5294365286827087,0.3883965611457824,-0.0273318514227867,0.5086475014686584,0.2790000736713409,-0.0437016636133194,0.4996903836727142,0.2080564498901367,-0.0557530894875526,0.4948762059211731,0.1489029675722122,-0.064692348241806,0.5259311199188232,0.4182628691196441,-0.0436901301145553,0.511038601398468,0.3484377264976501,-0.0572892688214778,0.5000373721122742,0.3004710078239441,-0.0637692511081695,0.4905166625976562,0.2589907944202423,-0.0687153711915016
2023-08-01 15:52:05.206902,31,557,0.7467986941337585,0.5234321355819702,-0.3273400068283081,0.2473034262657165,0.32373046875,0.9375,0.337890625,0.4835550785064697,0.6233690977096558,1.342659032843585e-07,0.4263091385364532,0.5626322031021118,-5.566760228248313e-05,0.4129671454429626,0.4577217102050781,0.0065712528303265,0.4200964570045471,0.3821432590484619,0.0085425032302737,0.4200818538665771,0.3266107141971588,0.0111253149807453,0.4422850906848907,0.3581869304180145,0.0326687321066856,0.4367910325527191,0.2721602916717529,0.0273590143769979,0.4312278926372528,0.2170839458703994,0.0164311714470386,0.4285691082477569,0.1661718636751175,0.0064663146622478,0.4680971801280975,0.3464865088462829,0.0196279976516962,0.4614135324954986,0.2459332793951034,0.0136902825906872,0.4543815851211548,0.1761464923620224,0.0016165393171831,0.4487984776496887,0.1134242117404937,-0.0078572165220975,0.4927903711795807,0.3530595004558563,0.0022916446905583,0.4932172298431396,0.2511920928955078,-0.0052500707097351,0.4917179942131042,0.187190979719162,-0.0144002949818968,0.4885851144790649,0.1306992173194885,-0.021916028112173,0.5156574249267578,0.3731919825077057,-0.0171271059662103,0.5164715051651001,0.291038453578949,-0.0237902402877807,0.5167259573936462,0.2363590449094772,-0.0273513421416282,0.5150458216667175,0.1868425160646438,-0.0309120882302522
2023-08-01 15:52:05.266772,32,558,0.7427746653556824,0.5245426297187805,-0.3426837027072906,0.2360268384218216,0.13037109375,0.93017578125,0.32177734375,0.4862572848796844,0.6254754662513733,1.3112405383708392e-07,0.4254971444606781,0.5686783790588379,-0.0018775551579892,0.4055976569652557,0.465022325515747,0.0046832771040499,0.410585880279541,0.3863389194011688,0.0064948643557727,0.4046928882598877,0.3268967866897583,0.008954407647252,0.4392761588096618,0.3611430823802948,0.035815842449665,0.4297080934047699,0.2738086581230163,0.0309820119291543,0.423454076051712,0.2196206599473953,0.018379658460617,0.4203906059265136,0.1682919263839721,0.0066295093856751,0.4665997624397278,0.3470124304294586,0.0234196633100509,0.4565082192420959,0.2453263849020004,0.0199855063110589,0.4506424367427826,0.1774391233921051,0.0063241901807487,0.4461185932159424,0.1155837178230285,-0.0056943176314234,0.492205411195755,0.3534021377563476,0.0061246184632182,0.4882346391677856,0.2527404725551605,0.0001042224175762,0.4865907430648803,0.1905455738306045,-0.0103992633521556,0.483980268239975,0.1356512010097503,-0.0201263129711151,0.5186061263084412,0.3729192018508911,-0.0136457830667495,0.5170299410820007,0.292307049036026,-0.0201493222266435,0.515264630317688,0.2393935918807983,-0.0248222332447767,0.5125982761383057,0.1893253177404403,-0.0300507824867963
2023-08-01 15:52:05.334162,33,559,0.7389897108078003,0.5252944827079773,-0.3544857203960418,0.2286915183067321,0.08837890625,0.9375,0.21240234375,0.4883039593696594,0.6290525197982788,1.3647189689436345e-07,0.4254322648048401,0.5768928527832031,-0.0049168970435857,0.4015633463859558,0.4735721051692962,0.0010331938974559,0.4036250114440918,0.3928607106208801,0.0027482178993523,0.3964892625808716,0.3310718536376953,0.005163200199604,0.4338781833648681,0.3642213940620422,0.0354218892753124,0.4231054186820984,0.2785506546497345,0.0312077179551124,0.4162916541099548,0.2258560806512832,0.0186111107468605,0.4123972356319427,0.1748804897069931,0.0065530664287507,0.4627031683921814,0.3488509654998779,0.0241611935198307,0.4519743025302887,0.2479253411293029,0.0214530117809772,0.4458754956722259,0.1816570162773132,0.0075739403255283,0.440925270318985,0.1203636527061462,-0.0048798555508255,0.4895016849040985,0.3556067049503326,0.007552689872682,0.4841895401477813,0.2562178373336792,0.0012451048241928,0.4815044999122619,0.1944050043821334,-0.0104832667857408,0.477794349193573,0.1388439536094665,-0.0212236158549785,0.5171277523040771,0.3755979537963867,-0.0117441983893513,0.5142825841903687,0.2944362163543701,-0.0190195143222808,0.511668860912323,0.2426901757717132,-0.0245845708996057,0.508447527885437,0.1931210458278656,-0.0306089520454406
2023-08-01 15:52:05.400016,34,560,0.7377462387084961,0.5252218246459961,-0.3579380214214325,0.2274928838014602,0.0927734375,0.939453125,0.34716796875,0.487184464931488,0.6316519975662231,1.4632452405294316e-07,0.4213263094425201,0.5799301862716675,-0.0066690263338387,0.3927263915538788,0.4790206551551819,0.0011023903498426,0.3941769301891327,0.397927314043045,0.0054720817133784,0.3845938444137573,0.3418994843959808,0.0109924944117665,0.4243675470352173,0.3718436658382416,0.0365055240690708,0.4122433364391327,0.288432776927948,0.0327004045248031,0.4075683951377868,0.2361144423484802,0.0195699222385883,0.4051592946052551,0.1853710412979126,0.007397792302072,0.4563421308994293,0.354228526353836,0.0277289692312479,0.4445925951004028,0.2542050778865814,0.0269355326890945,0.4385262131690979,0.1900139153003692,0.014077297411859,0.4327265322208404,0.130123883485794,0.0023920685052871,0.4863109588623047,0.3588126897811889,0.01342299208045,0.478949636220932,0.2637885808944702,0.0094975167885422,0.4750671088695526,0.2045927196741104,0.0001601094118086,0.4710740745067596,0.152235060930252,-0.0090169785544276,0.5203682780265808,0.3780237436294555,-0.0039553716778755,0.5164255499839783,0.3014831840991974,-0.0077068153768777,0.5138483643531799,0.2544685900211334,-0.0099283084273338,0.5107886791229248,0.209478884935379,-0.0136839561164379
2023-08-01 15:52:05.463584,35,561,0.7369340062141418,0.5250296592712402,-0.359725683927536,0.2277489751577377,0.1123046875,0.92431640625,0.37451171875,0.4867518246173858,0.6352562308311462,1.578185049311287e-07,0.421764075756073,0.5820759534835815,-0.007373493630439,0.3931731879711151,0.4787454903125763,-0.0003124913491774,0.3940537571907043,0.3964557945728302,0.0033923478331416,0.3839103579521179,0.3386091589927673,0.0082511818036437,0.4243512153625488,0.3720496296882629,0.0348805896937847,0.4124538600444793,0.2878426313400268,0.0285185184329748,0.4093405902385711,0.2334571331739425,0.0137085756286978,0.4087602794170379,0.1807091236114502,0.0003674232575576,0.456224262714386,0.3554468154907226,0.0259928219020366,0.4437676072120666,0.2575589418411255,0.022323478013277,0.4378070533275604,0.1937408447265625,0.00725625641644,0.4318615794181824,0.1319530010223388,-0.0058901980519294,0.4864992201328277,0.3600190281867981,0.0115413116291165,0.4799557328224182,0.2659007310867309,0.0049212058074772,0.4767104387283325,0.2087544798851013,-0.0056040813215076,0.4720252752304077,0.1569393426179886,-0.0152399968355894,0.5208528637886047,0.3791722655296325,-0.0059694331139326,0.5178309082984924,0.3040254712104797,-0.0123438816517591,0.5157891511917114,0.2574974000453949,-0.0162214692682027,0.5117462873458862,0.2120450735092163,-0.020861754193902
2023-08-01 15:52:05.529956,36,562,0.7370608448982239,0.5252116918563843,-0.3591966331005096,0.2277538329362869,0.15380859375,0.9267578125,0.32275390625,0.4872719645500183,0.6345107555389404,1.628146009124976e-07,0.4223349988460541,0.5832130908966064,-0.007031544111669,0.3926138281822204,0.4804479479789734,0.0005549030029214,0.3929756283760071,0.3973556458950043,0.0048292893916368,0.3820362389087677,0.3405394554138183,0.0102656539529562,0.4233333766460418,0.3738355338573456,0.034860722720623,0.4096723794937134,0.289882630109787,0.0296355988830328,0.4048023223876953,0.2355950325727462,0.0160535667091608,0.4027401506900787,0.1837825924158096,0.0037258979864418,0.4554883539676666,0.355895459651947,0.0261886976659297,0.4425282478332519,0.2559811472892761,0.0237680040299892,0.4357407987117767,0.190927505493164,0.0102035934105515,0.4293093681335449,0.1306973397731781,-0.0017053256742656,0.4858222007751465,0.3595041632652282,0.0120462756603956,0.478512167930603,0.2638867199420929,0.0067579383030533,0.4741448163986206,0.2048681229352951,-0.0030058666598051,0.4690126478672027,0.1529257595539093,-0.012159121222794,0.5194045305252075,0.3774557709693908,-0.0051393206231296,0.5152665376663208,0.3020532131195068,-0.0104825980961322,0.5121380686759949,0.2543538808822632,-0.0138541450724005,0.5078942775726318,0.2086440175771713,-0.0181109178811311
