Timestamp,Index,Frame ID,w,x,y,z,ax,ay,az,x_0,y_0,z_0,x_1,y_1,z_1,x_2,y_2,z_2,x_3,y_3,z_3,x_4,y_4,z_4,x_5,y_5,z_5,x_6,y_6,z_6,x_7,y_7,z_7,x_8,y_8,z_8,x_9,y_9,z_9,x_10,y_10,z_10,x_11,y_11,z_11,x_12,y_12,z_12,x_13,y_13,z_13,x_14,y_14,z_14,x_15,y_15,z_15,x_16,y_16,z_16,x_17,y_17,z_17,x_18,y_18,z_18,x_19,y_19,z_19,x_20,y_20,z_20
2023-08-01 15:51:56.082587,0,391,0.7396444082260132,0.512371301651001,-0.4009610116481781,0.1721399128437042,0.14404296875,0.9150390625,0.42822265625,0.4918417334556579,0.6496047973632812,3.032582753803581e-07,0.4252385199069977,0.5962570905685425,-0.01499296259135,0.3917354941368103,0.4936364293098449,-0.0095586525276303,0.3879970908164978,0.4049443304538727,-0.0052758967503905,0.366583913564682,0.3457661271095276,0.0014863304095342,0.4208047091960907,0.3791966438293457,0.0325976498425006,0.4086698591709137,0.2870382666587829,0.0272114127874374,0.406467854976654,0.2311616837978363,0.0136639382690191,0.4076780676841736,0.1786670982837677,0.0031299446709454,0.4589864313602447,0.3634241223335266,0.0302112679928541,0.4487521946430206,0.2591496706008911,0.0318992286920547,0.444027692079544,0.1930610388517379,0.022567169740796,0.4395298361778259,0.1347769498825073,0.0144997797906398,0.4927927851676941,0.3695577979087829,0.0213754791766405,0.4898317754268646,0.2752066254615783,0.02163627743721,0.4868810474872589,0.222309336066246,0.0196363069117069,0.484111338853836,0.1778081208467483,0.0166414752602577,0.5302780866622925,0.3890243768692016,0.0082846181467175,0.5293290615081787,0.3134663105010986,0.0100817019119858,0.5271735191345215,0.2702794671058655,0.0142745487391948,0.524911642074585,0.2300173193216323,0.0164257679134607
2023-08-01 15:51:56.129984,1,392,0.7462611794471741,0.5116375684738159,-0.3832873106002807,0.1855048835277557,0.28759765625,0.90673828125,0.42626953125,0.4908510744571686,0.6506974101066589,2.959523897061445e-07,0.4246298670768738,0.5970105528831482,-0.0142872687429189,0.3915711939334869,0.4937002062797546,-0.0085633285343647,0.3873509764671325,0.4053878784179687,-0.0041292132809758,0.3667173683643341,0.3477624356746673,0.0027757119387388,0.4205966889858246,0.380621075630188,0.0327073745429515,0.4087586104869842,0.2882144451141357,0.027167560532689,0.4060746431350708,0.2325978875160217,0.0136923752725124,0.4068672657012939,0.1808096766471862,0.0033945944160223,0.4581678211688995,0.3648673295974731,0.0302387624979019,0.4482393264770508,0.259147047996521,0.0321541018784046,0.4435018599033355,0.1933197677135467,0.0232604183256626,0.4390126168727875,0.1355437040328979,0.0155563643202185,0.4919447898864746,0.3703497052192688,0.0214367695152759,0.4886448085308075,0.2749897241592407,0.0224207025021314,0.4862639307975769,0.2212810069322586,0.0208221171051263,0.4843329787254333,0.1772554516792297,0.0180823653936386,0.5293880701065063,0.3890785574913025,0.0084000723436474,0.5280997157096863,0.3125845193862915,0.0115719707682728,0.5259405374526978,0.2699782848358154,0.0166735928505659,0.5241864919662476,0.231918379664421,0.0193578489124774
2023-08-01 15:51:56.177166,2,393,0.7636964321136475,0.5075259804725647,-0.3318782150745392,0.2214539051055908,0.29248046875,0.916015625,0.4228515625,0.4923003911972046,0.6527695059776306,2.9998642503414885e-07,0.4258837103843689,0.5997858643531799,-0.0148316249251365,0.3916039764881134,0.4938764274120331,-0.0077294572256505,0.3875062167644501,0.4040292501449585,-0.0016488431720063,0.3678359389305115,0.3467587232589721,0.0070830094628036,0.4204696416854858,0.3819860219955444,0.0338952764868736,0.408864825963974,0.2884421646595001,0.0294324401766061,0.4067397713661194,0.2321930527687072,0.0166024453938007,0.4079869389533996,0.1801251769065857,0.0067697805352509,0.4587029218673706,0.3663522899150848,0.0324663668870925,0.4488420784473419,0.2605246305465698,0.0358267165720462,0.4445401430130005,0.1944398283958435,0.0277449861168861,0.440328299999237,0.1367643773555755,0.0206095110625028,0.4928091168403625,0.3716422617435455,0.0245805811136961,0.4896795451641083,0.2767504453659057,0.0269851554185152,0.4873400628566742,0.2229878157377243,0.0263386461883783,0.4856572449207306,0.1790222525596618,0.0241889785975217,0.5306811332702637,0.389762133359909,0.0123020084574818,0.5291522741317749,0.3137930035591125,0.0167353469878435,0.527484118938446,0.2715358436107635,0.0226945113390684,0.5264959335327148,0.233570396900177,0.0260015595704317
2023-08-01 15:51:56.224971,3,394,0.7898522615432739,0.4923988282680511,-0.2254360765218734,0.2878461182117462,-0.08984375,0.91748046875,0.42041015625,0.4902639985084533,0.6495786905288696,2.740198681294715e-07,0.4247141182422638,0.5930836200714111,-0.0121664721518754,0.3924299478530884,0.4864137172698974,-0.0040568523108959,0.3904070258140564,0.3991401493549347,0.0023794926237314,0.3721314370632171,0.3451590836048126,0.0109674567356705,0.4240116775035858,0.3770810067653656,0.0360755249857902,0.4129050076007843,0.2871182560920715,0.0315831117331981,0.4108175039291382,0.2304185330867767,0.0183494128286838,0.4122608006000519,0.1773900687694549,0.0076375310309231,0.4612935185432434,0.3623732030391693,0.0325704589486122,0.4520727097988128,0.258459210395813,0.0345123969018459,0.4480397999286651,0.1926462352275848,0.0248761642724275,0.444143146276474,0.1325059831142425,0.0164312571287155,0.4951289594173431,0.3692718148231506,0.0227988474071025,0.4935468733310699,0.2742132842540741,0.0231260061264038,0.4921700060367584,0.2201661318540573,0.0205212961882352,0.4907631278038025,0.1732500195503235,0.016829976812005,0.5329560041427612,0.3896947801113128,0.0089843533933162,0.5324426293373108,0.3153516054153442,0.0106830252334475,0.5313240885734558,0.2717849314212799,0.0143526187166571,0.5295804142951965,0.2299199849367141,0.0157654471695423
2023-08-01 15:51:56.286068,4,395,0.8009742498397827,0.4735764563083648,-0.1261148601770401,0.3438905477523803,0.05615234375,0.943359375,-0.04150390625,0.4867888689041137,0.6509348750114441,2.2867179438890162e-07,0.423208475112915,0.5906585454940796,-0.0068066846579313,0.3964031338691711,0.481731116771698,0.0026733290869742,0.3971334993839264,0.3943891227245331,0.0090980296954512,0.3813708424568176,0.3400337994098663,0.0169181413948535,0.4282457828521728,0.375264436006546,0.0389242097735405,0.4186222851276397,0.2864993214607239,0.0338857434689998,0.4176265299320221,0.229721650481224,0.0198622103780508,0.4207899570465088,0.1757345199584961,0.0080091590061783,0.4641710519790649,0.359625369310379,0.0315484777092933,0.4559657275676727,0.2567804455757141,0.0318071767687797,0.4537042677402496,0.1899821758270263,0.0201969724148511,0.4521101117134094,0.1277388334274292,0.0098307188600301,0.4972818195819855,0.3663844764232635,0.018263729289174,0.4974862039089203,0.2696743607521057,0.0162821616977453,0.4988113939762115,0.2137720137834549,0.0101287178695201,0.4993184804916382,0.164074569940567,0.0034780071582645,0.5327706336975098,0.3875560462474823,0.0015587739180773,0.534010648727417,0.3112504184246063,0.0001913451997097,0.5353778600692749,0.2665587961673736,0.0005004319245927,0.5355226397514343,0.2231221944093704,-0.0009941038442775
2023-08-01 15:51:56.338991,5,396,0.8017451763153076,0.4397627711296081,-0.0120110278949141,0.4045604169368744,0.00537109375,0.91552734375,0.326171875,0.4825286269187927,0.6436704993247986,2.440325204133842e-07,0.4282529056072235,0.5788398385047913,-0.0038356946315616,0.4112941026687622,0.4689153134822845,0.0018552429974079,0.4183442294597626,0.3864545524120331,0.0034118413459509,0.4159769415855407,0.3314738869667053,0.0054795970208942,0.4431338310241699,0.3671631515026092,0.0291068479418754,0.4390234649181366,0.2734489738941192,0.0219346694648265,0.4376291036605835,0.2150080054998397,0.0092312190681695,0.4401756823062897,0.1618659496307373,-0.0018054882530122,0.4720892608165741,0.3542243540287018,0.0178078804165124,0.4680328071117401,0.2457966208457946,0.0128380237147212,0.4667207896709442,0.1747128069400787,-0.0005832292954437,0.4667184054851532,0.1116956174373626,-0.0117879090830683,0.5005921721458435,0.3620681762695312,0.0019124138634651,0.505628228187561,0.2553540766239166,-0.0049878200516104,0.511566698551178,0.1933705955743789,-0.0152877448126673,0.515299379825592,0.1401020884513855,-0.024477245286107,0.5285496115684509,0.3842453360557556,-0.0165263805538415,0.5355355739593506,0.3029372096061706,-0.0234672911465168,0.540363073348999,0.2503036856651306,-0.0281247999519109,0.5432984232902527,0.2018796354532241,-0.0329868793487548
2023-08-01 15:51:56.405161,6,397,0.7895638346672058,0.3958732485771179,0.1098752841353416,0.4558517038822174,-0.15478515625,0.91552734375,0.02490234375,0.4890906810760498,0.6429328918457031,1.9468122047783254e-07,0.4316346347332001,0.5652400851249695,0.0080149807035923,0.4232077598571777,0.4587436020374298,0.0173924677073955,0.4313436448574066,0.38355752825737,0.0197783391922712,0.4304462373256683,0.3260676860809326,0.0223655346781015,0.4569320380687713,0.3617822825908661,0.0429755859076976,0.4529636800289154,0.2668043375015259,0.0389822833240032,0.4496850371360779,0.2076041251420974,0.0287669356912374,0.4510640501976013,0.1535708904266357,0.0194649640470743,0.4804804921150207,0.3510850369930267,0.0251928251236677,0.4765290319919586,0.2422238439321518,0.0223298948258161,0.4745524227619171,0.1687737256288528,0.0115844141691923,0.4750897884368896,0.105820745229721,0.0025147818960249,0.503807008266449,0.3597941994667053,0.0031522524077445,0.5115922689437866,0.2507031559944153,-0.0017117481911554,0.5189617872238159,0.1868009269237518,-0.008997181430459,0.5257989764213562,0.1338908076286316,-0.016027407720685,0.5249679088592529,0.3810356855392456,-0.0207451190799474,0.5336666703224182,0.2964849770069122,-0.0260224994271993,0.5404486060142517,0.2414265424013137,-0.0285757146775722,0.5471095442771912,0.1926602572202682,-0.0318426564335823
2023-08-01 15:51:56.456576,7,398,0.7705849409103394,0.3587450087070465,0.2009810954332351,0.4869367778301239,-0.34033203125,0.95703125,-0.0478515625,0.4990789294242859,0.639863133430481,1.592332807831554e-07,0.4427841901779175,0.5558496117591858,0.0140657573938369,0.4388135969638824,0.4491387903690338,0.0245645698159933,0.4488815069198608,0.3786060512065887,0.027560194954276,0.4464616775512695,0.3235642313957214,0.0302430968731641,0.4648167192935943,0.3599884808063507,0.0392615906894207,0.4612986445426941,0.2600884437561035,0.0331064537167549,0.4567013084888458,0.1972275078296661,0.0231731366366148,0.4545471966266632,0.1410487592220306,0.0141662564128637,0.4865452349185943,0.3526131808757782,0.0179052781313657,0.4853150248527527,0.2396617531776428,0.0101951649412512,0.4830727875232696,0.1644923835992813,-0.0015783100388944,0.4813829064369201,0.1004398763179779,-0.0108056925237178,0.506244957447052,0.3638012707233429,-0.0065795667469501,0.5136996507644653,0.2501307725906372,-0.0153302028775215,0.5176834464073181,0.1817583888769149,-0.0226490590721368,0.5220568776130676,0.1246318817138671,-0.0289899297058582,0.5227363705635071,0.3876250386238098,-0.0320360474288463,0.526253342628479,0.2985993027687073,-0.0393471531569957,0.529366672039032,0.238561600446701,-0.0419102907180786,0.5335527658462524,0.1861366331577301,-0.0451431274414062
2023-08-01 15:51:56.504033,8,399,0.7482652068138123,0.3174155056476593,0.2826120257377624,0.5093890428543091,0.05810546875,0.8857421875,0.0869140625,0.5053314566612244,0.6470283269882202,2.755937487108895e-07,0.4504022002220154,0.5627982020378113,-0.0001518331409897,0.4483761191368103,0.4602155089378357,-0.0025289033073931,0.4615247547626495,0.3903722763061523,-0.0086432974785566,0.4621431827545166,0.3322139680385589,-0.0157195553183555,0.4895350039005279,0.3669998049736023,0.0023083267733454,0.4822092354297638,0.2607813477516174,-0.0160384271293878,0.4757252335548401,0.1920175552368164,-0.0316221751272678,0.4725848436355591,0.1332496404647827,-0.0431063584983348,0.5120571851730347,0.3711062669754028,-0.0146623719483613,0.5049178600311279,0.2501123547554016,-0.0319660119712352,0.5019392371177673,0.1694647073745727,-0.0479575060307979,0.5021018385887146,0.1008710265159607,-0.059897344559431,0.5258416533470154,0.3933402597904205,-0.0340794995427131,0.5204164385795593,0.2801570296287536,-0.0515674874186515,0.5214328169822693,0.2062835246324539,-0.0642454102635383,0.5260173678398132,0.1447647809982299,-0.0738076716661453,0.5287808179855347,0.4284204840660095,-0.0545751973986625,0.5165603756904602,0.3504550755023956,-0.0688992589712143,0.5085205435752869,0.296934574842453,-0.0755250751972198,0.5028876066207886,0.2521676421165466,-0.081075944006443
2023-08-01 15:51:56.563936,9,400,0.7174159288406372,0.2689086198806762,0.3668330609798431,0.5276703238487244,-0.3427734375,0.927734375,-0.1953125,0.5433369874954224,0.6317143440246582,-6.961007414929554e-08,0.5645661950111389,0.5328400731086731,0.0409952104091644,0.5657260417938232,0.4518024027347564,0.0560820028185844,0.5576182007789612,0.393913596868515,0.0608244724571704,0.5488380193710327,0.353924810886383,0.0619089528918266,0.5619457960128784,0.3700370490550995,0.0338419526815414,0.5285988450050354,0.2731595635414123,0.0254471898078918,0.5006454586982727,0.2158528417348861,0.0175631530582904,0.4816645979881286,0.172404795885086,0.0109771704301238,0.5476158857345581,0.3686983585357666,0.0032441022340208,0.5196771025657654,0.2395253032445907,-0.0081535372883081,0.5040947198867798,0.1570983529090881,-0.0165008306503295,0.4934027791023254,0.0870149731636047,-0.0237213168293237,0.5206841826438904,0.3799708187580108,-0.0259059090167284,0.5053159594535828,0.2494316697120666,-0.0378904044628143,0.4967315196990967,0.1685235202312469,-0.0473568812012672,0.4934334754943847,0.1007121503353118,-0.0554562769830226,0.4850707650184631,0.3991895616054535,-0.0513933226466178,0.4791107475757599,0.3003026843070984,-0.066224105656147,0.4783935546875,0.237636312842369,-0.0739170461893081,0.4798765480518341,0.1828060895204544,-0.0800711214542388
2023-08-01 15:51:56.612015,10,401,0.6967946887016296,0.2392542958259582,0.4144347608089447,0.5343016982078552,-0.1875,0.86865234375,-0.02490234375,0.5466248393058777,0.6198511123657227,-4.4472560745134615e-08,0.5762327313423157,0.5214382410049438,0.0385491028428077,0.5779587626457214,0.4369384050369262,0.0512603633105754,0.5644122958183289,0.3693154752254486,0.0545214712619781,0.5410993695259094,0.3235032260417938,0.0536229573190212,0.5740446448326111,0.3663516640663147,0.0244483947753906,0.5322651267051697,0.2702579498291015,0.015240610577166,0.4957927465438843,0.2318670749664306,0.0068667763844132,0.4704131782054901,0.2100625485181808,0.001162510830909,0.5514568090438843,0.3614375591278076,-0.0039949095807969,0.5201596021652222,0.2289105951786041,-0.0121293431147933,0.5015586614608765,0.1491875797510147,-0.0168153084814548,0.4895133972167969,0.0869291126728057,-0.0216791555285453,0.5181789994239807,0.3756187856197357,-0.0305565278977155,0.5000202655792236,0.2392881512641906,-0.0399006493389606,0.4901102185249328,0.1622964292764663,-0.0447569899260997,0.4864396452903747,0.103249967098236,-0.0496990792453289,0.4771646559238434,0.4020773470401764,-0.0534161180257797,0.4671998918056488,0.2956538200378418,-0.0659170001745224,0.4655846059322357,0.2312748432159423,-0.0690858066082,0.4663562178611755,0.1761345416307449,-0.0715149044990539
2023-08-01 15:51:56.670404,11,402,0.6679695844650269,0.2085704058408737,0.4704715609550476,0.5375606417655945,-0.03662109375,0.9150390625,-0.1484375,0.5402056574821472,0.6092851758003235,-4.0866147799079044e-08,0.5790345668792725,0.516068696975708,0.032623678445816,0.5860161781311035,0.4262054562568664,0.0446931160986423,0.577396035194397,0.3493481278419494,0.0484907925128936,0.5606801509857178,0.295054018497467,0.0488924570381641,0.5752770900726318,0.3659829497337341,0.0218108631670475,0.534926176071167,0.2651330530643463,0.0126376179978251,0.502316951751709,0.2310420125722885,0.0044005592353641,0.4829277694225311,0.2162539511919021,-0.0007332065142691,0.5483241677284241,0.3611224591732025,-0.0025176804047077,0.5151612758636475,0.2279277592897415,-0.01119474042207,0.4969809055328369,0.1453541368246078,-0.017100628465414,0.4865733981132507,0.0807796418666839,-0.0223357994109392,0.5135467648506165,0.3728019595146179,-0.0254008993506431,0.4926745295524597,0.2409287244081497,-0.0352284014225006,0.4833953976631164,0.1629068702459335,-0.0407936759293079,0.4795694649219513,0.1029495894908905,-0.0454536937177181,0.4723643958568573,0.3966656923294067,-0.0450380034744739,0.4607564806938171,0.2923076748847961,-0.0555878654122352,0.4582251310348511,0.2303957641124725,-0.0574298314750194,0.4580747783184051,0.1771536916494369,-0.0586726702749729
2023-08-01 15:51:56.716783,12,403,0.646273136138916,0.1909414827823639,0.5088183283805847,0.53570157289505,-0.38134765625,0.88037109375,-0.2451171875,0.5477810502052307,0.6057210564613342,2.0160129565738323e-08,0.5873125791549683,0.5141377449035645,0.028428915888071,0.5931957960128784,0.4185273051261902,0.0409264527261257,0.5847876667976379,0.3404941260814667,0.0474421046674251,0.5741509795188904,0.2852277755737304,0.0506933480501174,0.5734306573867798,0.3504096865653991,0.0152129884809255,0.5338996052742004,0.2520875334739685,0.0108830304816365,0.5071403980255127,0.2055880725383758,0.0077162212692201,0.4907771646976471,0.1701251864433288,0.0047221812419593,0.541824996471405,0.3526208996772766,-0.0054227854125201,0.5068468451499939,0.2261052131652832,-0.0130613110959529,0.4895295798778534,0.1467811465263366,-0.0175550933927297,0.4800399541854858,0.0843247771263122,-0.0211847834289073,0.5044371485710144,0.368969053030014,-0.0240138415247201,0.4812740683555603,0.2481676042079925,-0.0338539965450763,0.4749116003513336,0.1694418936967849,-0.0404657125473022,0.474238246679306,0.1065658926963806,-0.0454370230436325,0.4641929268836975,0.3975647985935211,-0.0391596034169197,0.450098305940628,0.2996125221252441,-0.0511268861591815,0.446915715932846,0.2418171763420105,-0.0543913841247558,0.447708785533905,0.1913797110319137,-0.0560974441468715
2023-08-01 15:51:56.765577,13,404,0.6355636715888977,0.1883720308542251,0.5279549360275269,0.5308845639228821,-0.21533203125,0.88623046875,-0.36181640625,0.5440993309020996,0.605129599571228,4.672794773341593e-08,0.5850318074226379,0.5155836939811707,0.0269876215606927,0.5938185453414917,0.4240228831768036,0.0372748598456382,0.5867862701416016,0.3470240235328674,0.0414270982146263,0.5743012428283691,0.2902282178401947,0.0420578271150589,0.5769967436790466,0.3555189371109009,0.0134856328368186,0.5358754992485046,0.2601892352104187,0.0074637485668063,0.5045409202575684,0.2170284241437912,0.00261597847566,0.484035849571228,0.1862485706806183,-0.0013170543825253,0.5439339876174927,0.3546664118766784,-0.0075416103936731,0.5106788277626038,0.226632073521614,-0.016412490978837,0.4921697080135345,0.1447459012269973,-0.0217726901173591,0.4810079038143158,0.0805574655532836,-0.0259984713047742,0.5054112076759338,0.3699010610580444,-0.0266978237777948,0.4830866456031799,0.2462982088327407,-0.0371456854045391,0.474269151687622,0.166104719042778,-0.043763417750597,0.4716233313083648,0.1035098731517791,-0.0487757511436939,0.4640289843082428,0.3979783356189728,-0.0426651500165462,0.4502796232700348,0.2973141670227051,-0.0542861558496952,0.4467412233352661,0.2385954707860946,-0.0565784685313701,0.4466093480587005,0.1881840825080871,-0.0576871261000633
2023-08-01 15:51:56.811742,14,405,0.6277094483375549,0.1857304573059082,0.5418777465820312,0.5271181464195251,-0.3837890625,0.88232421875,-0.46875,0.5492056608200073,0.6086063385009766,2.2378654307431134e-07,0.6112304925918579,0.5319890379905701,0.013456480577588,0.6268131732940674,0.4308477640151977,0.0192658491432666,0.6200061440467834,0.343719333410263,0.0234489142894744,0.6213518977165222,0.2833788096904754,0.0258494820445776,0.5906661748886108,0.3558729290962219,-0.0074352584779262,0.5693722367286682,0.2389949113130569,-0.0132381897419691,0.5552757382392883,0.1774378269910812,-0.014221659861505,0.542688250541687,0.1312183737754821,-0.0149200009182095,0.5456569194793701,0.3564713597297668,-0.0197221916168928,0.5231080055236816,0.2189272791147232,-0.0307516902685165,0.5096956491470337,0.1371768563985824,-0.0361738875508308,0.4992810487747192,0.0761384665966034,-0.0389306880533695,0.5026883482933044,0.3750332295894623,-0.0291481427848339,0.4874475598335266,0.245326429605484,-0.0402934700250625,0.4823481142520904,0.1653152555227279,-0.0477141551673412,0.4797091782093048,0.1032838225364685,-0.052064511924982,0.4636345207691192,0.409568727016449,-0.0357795618474483,0.452613353729248,0.30860435962677,-0.0470842644572258,0.450479656457901,0.2498929500579834,-0.0500917993485927,0.4508611559867859,0.1985701918601989,-0.0504546351730823
2023-08-01 15:51:56.856668,15,406,0.6266173720359802,0.1863479912281036,0.5451946258544922,0.5247741341590881,-0.212890625,0.89892578125,-0.33251953125,0.5517808198928833,0.6151057481765747,2.502741267562669e-07,0.6183152794837952,0.5409544706344604,0.0138682872056961,0.6377414464950562,0.4435153007507324,0.0201988518238067,0.6287315487861633,0.3538615107536316,0.025158928707242,0.6290654540061951,0.2898686528205871,0.0283827111124992,0.5981307029724121,0.3558810353279114,-0.0052631879225373,0.5765895843505859,0.2362495809793472,-0.0112798362970352,0.5613395571708679,0.1722954660654068,-0.0124892396852374,0.5481492280960083,0.1240583658218383,-0.0132129797711968,0.550901472568512,0.3556888699531555,-0.0172933600842952,0.5305608510971069,0.2154333442449569,-0.0293616857379674,0.5188471078872681,0.1322737634181976,-0.034372441470623,0.5106930136680603,0.0694442093372345,-0.0360946282744407,0.5073692202568054,0.3744367957115173,-0.0266218669712543,0.4915851354598999,0.2439063638448715,-0.0383977442979812,0.4868359267711639,0.1622875183820724,-0.044673565775156,0.4849423170089721,0.0986883342266082,-0.0474973805248737,0.4684418141841888,0.4117147624492645,-0.0331738255918026,0.4567095637321472,0.3078703582286834,-0.0431176200509071,0.4545168876647949,0.2490816116333007,-0.044252622872591,0.4561789631843567,0.1983966529369354,-0.0429215095937252
2023-08-01 15:51:56.904078,16,407,0.623714804649353,0.1849709451198578,0.5505644083023071,0.5231103897094727,-0.22705078125,0.9345703125,-0.3798828125,0.554763913154602,0.6232035756111145,2.602921824745863e-07,0.6221718192100525,0.5498784780502319,0.0122012421488761,0.6439633369445801,0.45023113489151,0.0174367744475603,0.6364341974258423,0.359919935464859,0.021427908912301,0.6372177004814148,0.2939091026782989,0.0235551949590444,0.6020052433013916,0.357521116733551,-0.008208917453885,0.5815635323524475,0.2333029359579086,-0.0161945540457963,0.5675225853919983,0.1658471524715423,-0.0186286158859729,0.5544756650924683,0.1138651967048645,-0.0200988110154867,0.5544101595878601,0.3577199578285217,-0.020340584218502,0.5379762649536133,0.2144219875335693,-0.034123420715332,0.5267598032951355,0.128692016005516,-0.0408192127943038,0.5177233815193176,0.0632184743881225,-0.0439476147294044,0.5109035968780518,0.3765299618244171,-0.029823275282979,0.4984656572341919,0.2446554005146026,-0.0426386334002018,0.4937295317649841,0.1601489186286926,-0.0503091588616371,0.491136372089386,0.0948035418987274,-0.054325632750988,0.4715346395969391,0.4138135015964508,-0.0367186218500137,0.4613125324249267,0.3080888390541076,-0.0479457043111324,0.4597943425178528,0.2459728419780731,-0.050486747175455,0.4613995552062988,0.1928579211235046,-0.0502534843981266
2023-08-01 15:51:56.965277,17,408,0.6204895973205566,0.1837279349565506,0.5554177165031433,0.5222526788711548,-0.21630859375,0.916015625,-0.34765625,0.5545441508293152,0.6277366876602173,2.4089743533295405e-07,0.6261287331581116,0.5569654703140259,0.0168627463281154,0.6497243046760559,0.4571422338485718,0.0245717242360115,0.6424320340156555,0.3635527491569519,0.0307021979242563,0.6478586196899414,0.2971473932266235,0.0347531549632549,0.6062233448028564,0.3607492446899414,-0.0050905095413327,0.5847662091255188,0.2294521629810333,-0.0107442596927285,0.5708659887313843,0.1609113961458206,-0.0104213012382388,0.5582897067070007,0.1103532314300537,-0.0095832468941807,0.5565693974494934,0.3620302081108093,-0.0176659394055604,0.5403281450271606,0.2131936997175216,-0.0293454620987176,0.5294262766838074,0.12713024020195,-0.0328983627259731,0.5210831761360168,0.0634979903697967,-0.0333718433976173,0.5118734836578369,0.38196662068367,-0.0271975677460432,0.5000162720680237,0.2445106655359268,-0.0384020395576953,0.4952208697795868,0.1593586951494217,-0.0436531975865364,0.4927329421043396,0.0949017703533172,-0.0456651002168655,0.4717081189155578,0.4197914600372314,-0.0335614122450351,0.461993932723999,0.3095395565032959,-0.0427137352526187,0.4602783024311065,0.2455423176288604,-0.0433636642992496,0.4622023701667785,0.1920322477817535,-0.041664008051157
2023-08-01 15:51:57.018921,18,409,0.6161856651306152,0.1836460679769516,0.5594962239265442,0.5230231285095215,-0.23876953125,0.91259765625,-0.36181640625,0.5523087978363037,0.6371290683746338,2.2748278638573538e-07,0.625876247882843,0.5661064386367798,0.0143695138394832,0.6510806679725647,0.4630091488361358,0.0209621284157037,0.6448056697845459,0.3660061359405517,0.0266604740172624,0.6529195308685303,0.2986506223678589,0.0306080542504787,0.6088824272155762,0.3702445328235626,-0.0079089105129241,0.5872932076454163,0.2387681901454925,-0.0142352851107716,0.5738568902015686,0.1702536642551422,-0.0143666267395019,0.5630986094474792,0.119084894657135,-0.013952043838799,0.5572905540466309,0.3702099025249481,-0.0193122997879982,0.5390762686729431,0.2199200987815857,-0.032250490039587,0.5295045971870422,0.1323554664850235,-0.0364598967134952,0.5240029096603394,0.0659856498241424,-0.037319179624319,0.5115211606025696,0.3882764875888824,-0.0277362260967493,0.4987020790576935,0.2486343532800674,-0.040085207670927,0.4948862195014953,0.1616295576095581,-0.0461216978728771,0.4936229884624481,0.0944621860980987,-0.0485766492784023,0.4714120924472809,0.424150139093399,-0.0331046245992183,0.4625706076622009,0.3125510811805725,-0.0435572862625122,0.4606295228004455,0.2473886311054229,-0.0451093018054962,0.4619678258895874,0.1922861188650131,-0.0439125709235668
2023-08-01 15:51:57.078952,19,410,0.6116510629653931,0.1842009723186493,0.5632175803184509,0.5241554975509644,-0.1884765625,0.8671875,-0.32861328125,0.5486742258071899,0.6495100259780884,2.5836973804871377e-07,0.6255859136581421,0.578768789768219,0.0153323607519268,0.6522786021232605,0.4768739938735962,0.0216247048228979,0.6463501453399658,0.378173828125,0.026895198971033,0.657849133014679,0.3091888129711151,0.0307364482432603,0.6094916462898254,0.3784646093845367,-0.0060707926750183,0.5886968374252319,0.244015485048294,-0.0107194567099213,0.5743693709373474,0.1752419769763946,-0.0094125615432858,0.5618512630462646,0.1236843764781951,-0.0079213706776499,0.5559427738189697,0.3765705823898315,-0.017013257369399,0.5394039154052734,0.2248581349849701,-0.0291596613824367,0.5291827917098999,0.1371638476848602,-0.0320176817476749,0.5222586989402771,0.071757435798645,-0.0315939746797084,0.507942259311676,0.3949417471885681,-0.0247563105076551,0.4974836707115173,0.2543924450874328,-0.0358115099370479,0.4942811131477356,0.1684167087078094,-0.0396355465054512,0.4923430681228637,0.103789210319519,-0.0402247384190559,0.4660180211067199,0.4321694076061249,-0.02931391261518,0.459465891122818,0.3189565539360046,-0.0371756106615066,0.4577463865280151,0.2536419630050659,-0.0362229980528354,0.4583845138549804,0.1994738578796386,-0.0330312550067901
2023-08-01 15:51:57.136196,20,411,0.6113855242729187,0.1840503215789795,0.5642285346984863,0.5234304070472717,-0.140625,0.88134765625,-0.34814453125,0.5489205121994019,0.6523993015289307,2.468238449182536e-07,0.6246299743652344,0.5802586078643799,0.0149277569726109,0.6528242826461792,0.4787623286247253,0.0207910016179084,0.6482170820236206,0.3801248967647552,0.0251959431916475,0.6598712205886841,0.3110672235488891,0.0278184805065393,0.6104806065559387,0.3807537853717804,-0.0051409327425062,0.5895897746086121,0.2472943067550659,-0.0109832249581813,0.576137363910675,0.1773838549852371,-0.011439667083323,0.5644919276237488,0.1244066953659057,-0.0113499145954847,0.5584059953689575,0.3773863911628723,-0.0169212408363819,0.5421715974807739,0.2277750372886657,-0.0285692140460014,0.5322707891464233,0.1401252746582031,-0.0327219925820827,0.526065468788147,0.0737824440002441,-0.033935260027647,0.5103325247764587,0.3938957154750824,-0.0258447248488664,0.4997174739837646,0.2553497850894928,-0.0368014052510261,0.4963064193725586,0.1687759608030319,-0.042032241821289,0.4950425922870636,0.102014273405075,-0.0443718023598194,0.4668026566505432,0.4292130470275879,-0.0317726507782936,0.4605156779289245,0.3173184394836426,-0.0404792614281177,0.4594839513301849,0.2525491714477539,-0.0406474880874156,0.4610807001590729,0.1975117623805999,-0.0386506095528602
2023-08-01 15:51:57.182132,21,412,0.6134970784187317,0.1842981278896331,0.5628342628479004,0.5223726034164429,-0.2744140625,0.892578125,-0.3701171875,0.5474233627319336,0.6559016108512878,2.531519669446425e-07,0.6249210834503174,0.5831643342971802,0.0165278743952512,0.6524941325187683,0.4813334345817566,0.0241497661918401,0.6501805782318115,0.3822652399539947,0.0304227862507104,0.6605361700057983,0.3131412267684936,0.0350731797516346,0.6107712388038635,0.3810586631298065,-0.0027936126571148,0.5909467935562134,0.2479719966650009,-0.0065335677936673,0.5772963762283325,0.1779525727033615,-0.00557282846421,0.5650959610939026,0.1240609288215637,-0.0047573116607964,0.5583029389381409,0.3770095109939575,-0.014458118006587,0.544079065322876,0.2278572171926498,-0.0249464567750692,0.5348923802375793,0.1395454108715057,-0.0285239797085523,0.5293415784835815,0.0714810192584991,-0.0294798333197832,0.5097843408584595,0.3938699662685394,-0.0229932963848114,0.5013443231582642,0.2555329799652099,-0.0328530184924602,0.4985085725784302,0.1686673164367675,-0.0373969972133636,0.4973742961883545,0.1008540391921997,-0.0393491052091121,0.4663883149623871,0.4301829934120178,-0.0284114778041839,0.460492193698883,0.3174818158149719,-0.0363734923303127,0.4597315788269043,0.2524031400680542,-0.036124862730503,0.4612351655960083,0.1966408342123031,-0.0339292138814926
2023-08-01 15:51:57.228965,22,413,0.6167008876800537,0.1865145713090896,0.5590749979019165,0.5218499898910522,-0.216796875,0.88720703125,-0.3671875,0.5471000075340271,0.6564549803733826,2.5864940766950895e-07,0.6251288056373596,0.5856444239616394,0.0140640335157513,0.6536025404930115,0.481354683637619,0.0211043301969766,0.6507949233055115,0.3811761736869812,0.0270162615925073,0.6605653762817383,0.3111808001995086,0.0313328392803669,0.6099036335945129,0.3801801800727844,-0.0036915345117449,0.5910962820053101,0.2474672496318817,-0.008383740670979,0.5783340334892273,0.1773524582386016,-0.0084599163383245,0.5668470859527588,0.1236175894737243,-0.008425161242485,0.5574004650115967,0.3760608434677124,-0.0146048702299594,0.5440337061882019,0.2260215282440185,-0.0249829925596714,0.5358312726020813,0.1375316083431244,-0.0289153289049863,0.5307593941688538,0.0696435570716857,-0.0303325280547142,0.5091764330863953,0.3929393589496612,-0.0228595100343227,0.5013101100921631,0.2526768445968628,-0.0330849029123783,0.4987792670726776,0.1661063730716705,-0.0383277311921119,0.497503787279129,0.0985400080680847,-0.0409014336764812,0.4660000801086426,0.4291329085826874,-0.0282714087516069,0.460487961769104,0.3166281580924988,-0.0374121181666851,0.459739476442337,0.2508303225040436,-0.0384162180125713,0.4612316489219665,0.1944674551486969,-0.0371123515069484
2023-08-01 15:51:57.274793,23,414,0.624310314655304,0.1941792666912078,0.547631561756134,0.522140622138977,-0.365234375,0.93017578125,-0.3837890625,0.5447900295257568,0.6576741337776184,2.40355944924886e-07,0.6234355568885803,0.586620569229126,0.0168156661093235,0.6525595784187317,0.48285111784935,0.024966649711132,0.6507744193077087,0.3824185729026794,0.0317557267844677,0.6622997522354126,0.3128791451454162,0.0369057618081569,0.6100383400917053,0.3823078870773315,-0.0028533253353089,0.5918493866920471,0.2477531731128692,-0.0062299789860844,0.5796946883201599,0.1772956103086471,-0.0044887289404869,0.5691747665405273,0.1233980357646942,-0.0032054174225777,0.5578450560569763,0.3775619566440582,-0.0144398529082536,0.5437614321708679,0.2266954481601715,-0.0252239312976598,0.5351699590682983,0.1381610929965973,-0.0282865781337022,0.5303137302398682,0.0702658593654632,-0.0286712478846311,0.5097013115882874,0.3937274217605591,-0.0228831768035888,0.5007879137992859,0.2533674836158752,-0.0333839058876037,0.4987782835960388,0.1663623452186584,-0.0378452613949775,0.4985389709472656,0.0985438227653503,-0.0395517349243164,0.4663609266281128,0.4289381504058838,-0.0280932430177927,0.460269957780838,0.3159529864788055,-0.0370622761547565,0.4595071077346802,0.250508189201355,-0.0374702028930187,0.4613350629806518,0.1945668458938598,-0.0355633050203323
2023-08-01 15:51:57.326267,24,415,0.6348790526390076,0.2038824707269668,0.5310853123664856,0.5227896571159363,-0.5087890625,0.93701171875,-0.3583984375,0.5438008308410645,0.6563107967376709,2.596073329641513e-07,0.6230960488319397,0.5854227542877197,0.018837546929717,0.6522619724273682,0.484079509973526,0.0288105607032775,0.6506118178367615,0.383567065000534,0.036931786686182,0.6574015617370605,0.3129640221595764,0.0435190312564373,0.6095988750457764,0.3815527856349945,0.003016464645043,0.5917767286300659,0.2468034327030182,0.0018142203334718,0.5798249244689941,0.1767850071191787,0.0038373975548893,0.5693668127059937,0.1224557757377624,0.0052726287394762,0.5571223497390747,0.3751587271690368,-0.0086795454844832,0.5439534187316895,0.2240186184644699,-0.01631486043334,0.5349376797676086,0.1355555653572082,-0.0191768743097782,0.5297873020172119,0.0680654048919677,-0.0199001207947731,0.5082864165306091,0.3905715346336365,-0.0172693636268377,0.5001417994499207,0.2517372965812683,-0.0245678592473268,0.4976792335510254,0.1663092076778412,-0.0290202535688877,0.4966540336608886,0.0998627841472625,-0.0312555395066738,0.4641442596912384,0.4250755608081817,-0.0226605329662561,0.4586763978004455,0.3115649819374084,-0.0285561028867959,0.4570044875144958,0.2472655624151229,-0.0280649531632661,0.4574360251426697,0.1917827129364013,-0.0259506814181804
2023-08-01 15:51:57.383227,25,416,0.6651394367218018,0.2367371469736099,0.4830759465694427,0.5178634524345398,0.11083984375,0.90576171875,-0.28466796875,0.5434853434562683,0.658002495765686,2.1187440779613098e-07,0.617447555065155,0.5799235701560974,0.0184632800519466,0.6439367532730103,0.4773951768875122,0.0267648734152317,0.6408035755157471,0.3802571296691894,0.0325251147150993,0.6495103240013123,0.3120931088924408,0.036031849682331,0.6043854355812073,0.3817416727542877,0.0017227510688826,0.5851944088935852,0.2523853778839111,-0.0030186444055289,0.5734831094741821,0.1840239316225052,-0.0040043871849775,0.5640908479690552,0.1301973760128021,-0.0047363741323351,0.5541557669639587,0.3767228126525879,-0.0121329575777053,0.5385019779205322,0.228918582201004,-0.0217127855867147,0.5300207138061523,0.1418668627738952,-0.025993900373578,0.5262612700462341,0.0739998519420623,-0.0280554629862308,0.5061247944831848,0.3929206430912018,-0.0233120825141668,0.4979229569435119,0.2533341348171234,-0.0335349403321743,0.4964842498302459,0.1677358746528625,-0.0391320623457431,0.4976757168769836,0.0987747013568878,-0.0424841865897178,0.4609110951423645,0.4279385805130005,-0.0313271358609199,0.4548918008804321,0.3151463866233825,-0.041938304901123,0.4544986188411712,0.2509105801582336,-0.0433782339096069,0.4569045305252075,0.1930398195981979,-0.0425189584493637
2023-08-01 15:51:57.430894,26,417,0.6786751747131348,0.2501603066921234,0.4560348391532898,0.5185094475746155,-0.61962890625,0.87646484375,-0.34521484375,0.5416565537452698,0.6512151956558228,2.3411696759012562e-07,0.615667998790741,0.577768087387085,0.0189125929027795,0.6430314779281616,0.4773300290107727,0.027273803949356,0.6416721940040588,0.3790205419063568,0.033833060413599,0.6473332643508911,0.3090754151344299,0.0385057292878627,0.6032693386077881,0.3788559138774872,-0.0018221945501863,0.580478310585022,0.2451193034648895,-0.0044699939899146,0.5665068030357361,0.1766431629657745,-0.0025649913586676,0.5550143122673035,0.1238214075565338,-0.0012054294347763,0.5526610016822815,0.3749450743198395,-0.0142592759802937,0.5343226194381714,0.2249990552663803,-0.0239390712231397,0.5246007442474365,0.138274610042572,-0.0272540524601936,0.5194695591926575,0.0721729099750518,-0.0284132584929466,0.5042899250984192,0.3912095129489898,-0.0232677590101957,0.4929413795471191,0.252994030714035,-0.0325717404484748,0.4907954037189483,0.1672408431768417,-0.0373032018542289,0.4907770156860351,0.1004844009876251,-0.0398277305066585,0.4599517583847046,0.4250433146953583,-0.028833333402872,0.4526390731334686,0.3115589022636413,-0.0365978255867958,0.4511255323886871,0.2478790432214737,-0.0364563874900341,0.4522154331207275,0.192558467388153,-0.0346818007528781
2023-08-01 15:51:57.487309,27,418,0.707305371761322,0.2856716811656952,0.39728444814682,0.5101722478866577,-0.0634765625,0.873046875,-0.20166015625,0.5444519519805908,0.6428613662719727,2.2866834115120585e-07,0.6133423447608948,0.567939043045044,0.0143379112705588,0.6377094388008118,0.4682608544826507,0.019762385636568,0.6325224041938782,0.3714062869548797,0.023227734491229,0.6331032514572144,0.3008769452571869,0.0242458302527666,0.6002187728881836,0.3720380961894989,-0.0049369470216333,0.576693594455719,0.2424940764904022,-0.0113279977813363,0.5633358955383301,0.1747580170631408,-0.0136486645787954,0.5519155859947205,0.12112757563591,-0.0152778606861829,0.5514837503433228,0.3700954914093017,-0.0176834054291248,0.5326593518257141,0.2240330427885055,-0.0280508119612932,0.5234804749488831,0.1385160088539123,-0.0335793644189834,0.517982006072998,0.0721022486686706,-0.0370110794901847,0.5044429898262024,0.3874669373035431,-0.027853699401021,0.4931604564189911,0.2512646317481994,-0.0385830625891685,0.4913465976715088,0.1662224233150482,-0.0450191721320152,0.4915966689586639,0.0990524291992187,-0.0491856932640075,0.4605068564414978,0.4214482605457306,-0.0351997204124927,0.452962577342987,0.3076745271682739,-0.045713435858488,0.4523458182811737,0.2448151260614395,-0.0469743460416793,0.4543948471546173,0.1898217052221298,-0.0462614297866821
2023-08-01 15:51:57.547968,28,419,0.7390192151069641,0.3283653855323791,0.3148509860038757,0.4968859553337097,-0.4287109375,0.9443359375,-0.2578125,0.5445370674133301,0.6346517205238342,2.266730660949179e-07,0.6102825403213501,0.5582361817359924,0.0149720488116145,0.6333589553833008,0.4600716233253479,0.0205239672213792,0.6276461482048035,0.3660195171833038,0.023912975564599,0.6252184510231018,0.2960638999938965,0.0247471462935209,0.5947691202163696,0.3661891520023346,-0.0047342889010906,0.5693226456642151,0.2411214560270309,-0.0117924669757485,0.5553132891654968,0.1752700209617614,-0.0142953395843505,0.5450881719589233,0.1225087642669677,-0.016250716522336,0.5485382676124573,0.3651114106178283,-0.0187803022563457,0.5273443460464478,0.2206272631883621,-0.0309417881071567,0.5174086093902588,0.1339051425457,-0.0378142930567264,0.5128469467163086,0.0660707354545593,-0.0421517565846443,0.5036485195159912,0.3835777938365936,-0.0302763897925615,0.4903100728988647,0.2480263859033584,-0.0430070199072361,0.4878934919834137,0.1623465418815612,-0.0506528131663799,0.489406019449234,0.0932890772819519,-0.0554888136684894,0.4611542224884033,0.4190973043441772,-0.0388538651168346,0.4512665271759033,0.3080365061759949,-0.0517112463712692,0.4505070447921753,0.2448040246963501,-0.0548170953989028,0.4532808661460876,0.1872927993535995,-0.0554195828735828
2023-08-01 15:51:57.601260,29,420,0.7627590298652649,0.361192375421524,0.234571635723114,0.4824052155017853,-0.09130859375,0.890625,-0.04248046875,0.5420377254486084,0.6251697540283203,1.0323373089704549e-07,0.593894362449646,0.533897876739502,0.0218752361834049,0.6088908910751343,0.4357830882072449,0.0281837191432714,0.5977208614349365,0.3495327234268188,0.0291218608617782,0.5789770483970642,0.2893445789813995,0.0268925260752439,0.5955989360809326,0.3649871349334717,0.0050670970231294,0.5615700483322144,0.2522012591361999,-0.0043366583995521,0.5379512310028076,0.1910595744848251,-0.0107851829379796,0.5200708508491516,0.143829196691513,-0.0154732018709182,0.5568078756332397,0.3597710728645324,-0.015056062489748,0.5257151126861572,0.2204008847475052,-0.0250522661954164,0.5085222125053406,0.1357912719249725,-0.0314103402197361,0.4975154995918274,0.0708534121513366,-0.0362651534378528,0.5134527683258057,0.3709653913974762,-0.0334001667797565,0.4938346445560455,0.2392056286334991,-0.0434286519885063,0.4877048432826996,0.1567160785198211,-0.0497468747198581,0.4865761697292328,0.0918102264404296,-0.0549080334603786,0.4680235981941223,0.395466685295105,-0.0491452775895595,0.4589384496212005,0.2889437079429626,-0.059029247611761,0.4564447999000549,0.228194922208786,-0.0602201931178569,0.4567552506923675,0.1735269874334335,-0.0605879984796047
2023-08-01 15:51:57.649238,30,421,0.785655677318573,0.4025759994983673,0.1269554644823074,0.4522831737995147,-0.31298828125,0.92041015625,-0.0498046875,0.5379759073257446,0.6223707795143127,3.2606397581957935e-08,0.5831862688064575,0.5272002220153809,0.0286317784339189,0.5967851281166077,0.4292819499969482,0.0375171191990375,0.5872936248779297,0.3475620150566101,0.0390009693801403,0.5665311813354492,0.2899287939071655,0.0369248464703559,0.5912400484085083,0.3636932075023651,0.0144433416426181,0.5524950623512268,0.2554691433906555,0.0060368771664798,0.5238208174705505,0.205022856593132,-0.0014897930668666,0.5047677159309387,0.169082373380661,-0.0071747666224837,0.5598424077033997,0.3587688207626343,-0.0093547878786921,0.5257642269134521,0.2223144173622131,-0.0176235232502222,0.5079842209815979,0.1346440464258194,-0.024504056200385,0.4967161118984222,0.0664859116077423,-0.0306963138282299,0.5202181935310364,0.3694589734077453,-0.0313425585627555,0.4979872703552246,0.2379798889160156,-0.0403746925294399,0.4901741147041321,0.1563354730606079,-0.0469995737075805,0.4876488447189331,0.0923031568527221,-0.0528940558433532,0.4755118787288666,0.3919446766376495,-0.0503732562065124,0.4659156501293182,0.2863098382949829,-0.0599682405591011,0.4626858830451965,0.2248414754867553,-0.0613362491130828,0.4618468880653381,0.1704273223876953,-0.0623048990964889
2023-08-01 15:51:57.710423,31,422,0.798557698726654,0.4395709335803985,0.0076002720743417,0.4111267626285553,-0.87353515625,0.9482421875,0.01953125,0.537834107875824,0.6155152916908264,-6.001285868251216e-08,0.5735472440719604,0.5195624828338623,0.0359958633780479,0.5803529024124146,0.4332316219806671,0.0473153740167617,0.565022349357605,0.3651013970375061,0.0495666079223156,0.5361161828041077,0.3228536248207092,0.0472292676568031,0.5844045281410217,0.3641115427017212,0.0220066010951995,0.543432891368866,0.2622470259666443,0.0141879646107554,0.5096708536148071,0.2129623144865036,0.0066147516481578,0.4851469993591308,0.1741019189357757,0.0001987099094549,0.5598932504653931,0.3564388751983642,-0.0060741445049643,0.5266014933586121,0.2215967774391174,-0.0139529025182127,0.5063053965568542,0.1379642039537429,-0.0193716939538717,0.4908824265003204,0.0688695311546325,-0.0250531323254108,0.5238417983055115,0.3669500648975372,-0.0320789143443107,0.5043780207633972,0.231038361787796,-0.0412689633667469,0.4924298524856567,0.1524906009435653,-0.0466893278062343,0.4858127236366272,0.087361991405487,-0.052328985184431,0.4801926910877228,0.3886941373348236,-0.0546313226222991,0.4712458550930023,0.285841554403305,-0.0668227151036262,0.467952013015747,0.2233059257268905,-0.0696048289537429,0.4669262170791626,0.1666520833969116,-0.0719873905181884
2023-08-01 15:51:57.771921,32,423,0.7907906174659729,0.4866258800029754,-0.1587239652872085,0.3356369435787201,0.2109375,0.92236328125,0.1513671875,0.5264957547187805,0.612707793712616,-7.27633562291885e-08,0.5570771098136902,0.5229889750480652,0.0331163145601749,0.5665647387504578,0.4380640983581543,0.0466850064694881,0.5664029121398926,0.3756667077541351,0.0521882250905036,0.556291401386261,0.3314113020896911,0.0546777881681919,0.5645666122436523,0.3586665391921997,0.0240472834557294,0.5309634804725647,0.2579040229320526,0.0165477953851223,0.5055512189865112,0.1905349493026733,0.0109818093478679,0.4873196482658386,0.13404481112957,0.0056446571834385,0.5507434606552124,0.3550402224063873,-0.0026593364309519,0.5195142030715942,0.2256938815116882,-0.0148067167028784,0.5022807121276855,0.1426812261343002,-0.0211551506072282,0.4906942248344421,0.0731879472732544,-0.0259983632713556,0.5232567191123962,0.3640623092651367,-0.0280320737510919,0.5023398995399475,0.2356105744838714,-0.0413602888584136,0.4915956258773803,0.1557968556880951,-0.0482038296759128,0.4870584905147552,0.0875308811664581,-0.0531349033117294,0.4850086569786072,0.3809959292411804,-0.0504734776914119,0.4744925200939178,0.279529720544815,-0.0671384260058403,0.4719796776771545,0.2153706550598144,-0.0740194544196128,0.4736360311508178,0.1580325365066528,-0.0783174857497215
2023-08-01 15:51:57.832494,33,424,0.7716560959815979,0.507453203201294,-0.271679550409317,0.2706073820590973,0.599609375,0.91552734375,0.36328125,0.4747309684753418,0.6212602853775024,2.0064514671958025e-07,0.4276974201202392,0.5379141569137573,0.0009838569676503,0.4293469786643982,0.4348232746124267,0.0021507579367607,0.4434517621994018,0.367405891418457,-0.0008834415348246,0.4478028416633606,0.3097769916057586,-0.004038673825562,0.462778091430664,0.347393125295639,0.0141290128231048,0.4637569189071655,0.2478763461112976,0.0007263894658535,0.4592248499393463,0.181385263800621,-0.0126769570633769,0.4561387300491333,0.1253851652145385,-0.0229267291724681,0.4850529730319977,0.3466776609420776,-0.0018079373985528,0.4884124398231506,0.2330622524023056,-0.0158773381263017,0.4875018894672394,0.1542661786079406,-0.0296590905636549,0.4872241020202636,0.0896942615509033,-0.039032693952322,0.5028007626533508,0.3629639148712158,-0.0205947533249855,0.5056496858596802,0.2501207590103149,-0.0338689759373664,0.5073557496070862,0.1761413514614105,-0.0431271716952323,0.5099382996559143,0.1164478361606597,-0.0498853735625743,0.5138453245162964,0.3941980898380279,-0.0407588332891464,0.5139176845550537,0.3099403977394104,-0.0498524382710456,0.5133897066116333,0.2544882297515869,-0.0518314316868782,0.5133326053619385,0.2112744748592376,-0.0536515079438686
2023-08-01 15:51:57.882884,34,425,0.7656338214874268,0.5085523128509521,-0.3052697479724884,0.2489775866270065,-0.1484375,0.90087890625,0.3125,0.475740522146225,0.6209550499916077,1.440469219460283e-07,0.4225328862667084,0.542800784111023,0.0020220421720296,0.4183654189109802,0.4375034868717193,0.0066475397907197,0.4297510087490082,0.3635289371013641,0.00614745169878,0.4333449006080627,0.3019024431705475,0.0063743530772626,0.4494038224220276,0.3445435166358948,0.0282995048910379,0.4474884867668152,0.2497211843729019,0.0194930657744407,0.4416931271553039,0.1907920241355896,0.007243747357279,0.4377179741859436,0.1370520293712616,-0.0030089037027209,0.4725903868675232,0.3341310024261474,0.0134866843000054,0.4706062972545624,0.2257711738348007,0.0051210443489253,0.4670909643173218,0.152642086148262,-0.0067312242463231,0.4638541936874389,0.0896234810352325,-0.0156959407031536,0.4943528771400451,0.342669129371643,-0.0051598660647869,0.5001958608627319,0.2326268404722213,-0.0139334173873066,0.5036203265190125,0.1666107326745987,-0.0217596124857664,0.5052176117897034,0.1106795370578765,-0.0280479248613119,0.5138244032859802,0.3663293719291687,-0.0257616881281137,0.5205367803573608,0.2827150821685791,-0.0324115604162216,0.5248920321464539,0.2259206473827362,-0.0351087115705013,0.5274952054023743,0.1771719455718994,-0.0378658846020698
2023-08-01 15:51:57.942804,35,426,0.7514749765396118,0.5100327134132385,-0.3606048226356506,0.2124056071043014,0.14697265625,0.90087890625,0.4052734375,0.4670112729072571,0.6175148487091064,1.4032345063696996e-07,0.4105435907840729,0.5460137128829956,0.0004788775404449,0.4030658602714538,0.4404731094837188,0.0081860441714525,0.4150603711605072,0.3624768853187561,0.0105508314445614,0.4162677526473999,0.3023015260696411,0.0130134727805852,0.4374337792396545,0.3471139967441559,0.0384124256670475,0.4352028369903564,0.2600184977054596,0.0332481488585472,0.4311712980270386,0.2042704075574875,0.0207523833960294,0.4299247860908508,0.1511528640985489,0.0092726284638047,0.4646642506122589,0.3336124420166015,0.0246851649135351,0.4643737375736236,0.2290417551994323,0.0207462925463914,0.4619368612766266,0.1576793938875198,0.0072676846757531,0.4605140686035156,0.0930225253105163,-0.0042987531051039,0.4893035292625427,0.341195285320282,0.0061453320086002,0.4946589767932892,0.2383245527744293,-0.0009405189775861,0.4981050789356231,0.1731084734201431,-0.011630879715085,0.499969333410263,0.1153472661972045,-0.0210472755134105,0.5121241211891174,0.3622527718544006,-0.0146514335647225,0.5171287655830383,0.2801709473133087,-0.021652041003108,0.5212569236755371,0.2259453684091568,-0.0261112786829471,0.5241112112998962,0.1764949113130569,-0.0310443397611379
2023-08-01 15:51:58.004275,36,427,0.7467274069786072,0.5080909132957458,-0.3798532485961914,0.1998828947544098,0.15283203125,0.90185546875,0.47607421875,0.4606381058692932,0.6175316572189331,1.5621574789292938e-07,0.4026029109954834,0.5522617101669312,-0.0049762842245399,0.3901263475418091,0.4432690441608429,0.0017527157906442,0.4020213484764099,0.3618218004703522,0.0041180080734193,0.4029205441474914,0.301499456167221,0.0069760624319314,0.4299761652946472,0.3479281365871429,0.0351289026439189,0.4267892837524414,0.2611636519432068,0.0302808657288551,0.424107015132904,0.2064934372901916,0.0173739325255155,0.4242890775203705,0.1539184004068374,0.0052030407823622,0.4597092568874359,0.3348373472690582,0.0241445284336805,0.456576406955719,0.2313603013753891,0.0205639190971851,0.454402208328247,0.1618946492671966,0.0060759126208722,0.4531579315662384,0.0974648296833038,-0.0066326605156064,0.486717939376831,0.3433443009853363,0.0079368334263563,0.4907847046852112,0.2421996444463729,0.0010174772469326,0.4944120049476623,0.1793223023414611,-0.0107660936191678,0.4958664774894714,0.1228843629360199,-0.0213179420679807,0.5136616826057434,0.3655742406845093,-0.0109883472323417,0.5189071893692017,0.2854679226875305,-0.0181367304176092,0.5224679112434387,0.2332623153924942,-0.0232685152441263,0.5243790745735168,0.1837613582611084,-0.0289862379431724
2023-08-01 15:51:58.050169,37,428,0.745775043964386,0.5065909624099731,-0.3862088024616241,0.1950077563524246,0.119140625,0.90625,0.376953125,0.4559524357318878,0.6177323460578918,1.858763738482594e-07,0.3969173729419708,0.55474454164505,-0.008154415525496,0.3818859457969665,0.4504513740539551,-0.0027437349781394,0.3923803567886352,0.3678414821624756,-0.000878398772329,0.3882457911968231,0.3062538504600525,0.0019489714177325,0.4208110272884369,0.3494655191898346,0.0327759906649589,0.4163798689842224,0.260446548461914,0.0274238735437393,0.414623498916626,0.2050811201333999,0.0141329783946275,0.4157626926898956,0.1519728451967239,0.0021014832891523,0.453540951013565,0.3359048366546631,0.0239294338971376,0.4494393467903137,0.2316353172063827,0.0212961863726377,0.4479754269123077,0.1629829108715057,0.0077249477617442,0.4476390779018402,0.1003391146659851,-0.0042593171820044,0.4832123816013336,0.3438770174980163,0.0096114855259656,0.4845367670059204,0.24451445043087,0.004254522267729,0.4873175024986267,0.1837385147809982,-0.0057282666675746,0.4888053834438324,0.1296058297157287,-0.0150893358513712,0.5132118463516235,0.3658390641212463,-0.0078161749988794,0.5155361890792847,0.2873207926750183,-0.0129203423857688,0.5179223418235779,0.2382475733757019,-0.0160025414079427,0.5194915533065796,0.1916706562042236,-0.0200930461287498
2023-08-01 15:51:58.099098,38,429,0.7451541423797607,0.5060405731201172,-0.3892644941806793,0.1927207559347152,0.10888671875,0.91650390625,0.37646484375,0.4537883102893829,0.6214653253555298,1.991680420587727e-07,0.3888265490531921,0.5614014863967896,-0.0115980934351682,0.3647306263446808,0.4592571258544922,-0.0052767163142561,0.3708638548851013,0.3732099533081054,-0.0011175274848937,0.364420473575592,0.3144029974937439,0.00486625963822,0.4053640365600586,0.3570178151130676,0.0334693193435668,0.4008338749408722,0.269429475069046,0.0284124333411455,0.4017556011676788,0.2164780497550964,0.0153625113889575,0.4044269025325775,0.1670853346586227,0.0045083337463438,0.4427092373371124,0.3445883989334106,0.0285039599984884,0.4411959052085876,0.2407267689704895,0.0288995914161205,0.4399905800819397,0.1755491346120834,0.01896951533854,0.4381188154220581,0.1182275116443634,0.0099689625203609,0.4750860035419464,0.3530398607254028,0.0173814967274665,0.4786720275878906,0.2595566809177398,0.0155252208933234,0.4796581864356994,0.2042886912822723,0.0104310754686594,0.4793839454650879,0.1580618917942047,0.0048080408014357,0.5102744698524475,0.3764635324478149,0.0025600045919418,0.5143758058547974,0.3024988770484924,0.0021058954298496,0.5152781009674072,0.257918119430542,0.0035970523022115,0.5151421427726746,0.2170192152261734,0.003060566727072
2023-08-01 15:51:58.157993,39,430,0.7445282936096191,0.5049588680267334,-0.393754780292511,0.1888157427310943,0.1025390625,0.90380859375,0.43212890625,0.4534208178520202,0.6239948272705078,1.972351242329751e-07,0.3909773528575897,0.5658562779426575,-0.010232800617814,0.3667308092117309,0.462816834449768,-0.0029215707909315,0.3725892007350921,0.3772185742855072,0.001871331827715,0.3675945997238159,0.3190968036651611,0.0081810401752591,0.4082754254341125,0.3624812960624695,0.0340865924954414,0.4022484123706817,0.2737824022769928,0.0289794970303773,0.4016098082065582,0.2187805771827697,0.0159503202885389,0.4035212397575378,0.1685423851013183,0.0051647122018039,0.4434623122215271,0.3489177823066711,0.0286223739385604,0.4399946331977844,0.2468750476837158,0.0286031737923622,0.4382424354553222,0.1811315268278122,0.0184165351092815,0.4366717338562011,0.1228781044483184,0.0095660863444209,0.4754504561424255,0.3555719554424286,0.0171458087861537,0.4768282771110534,0.2616122663021087,0.0153949121013283,0.4776872396469116,0.2058609575033188,0.0102096330374479,0.4771862030029297,0.1578462421894073,0.0046657207421958,0.5100367665290833,0.3767653703689575,0.0020129824988543,0.5126645565032959,0.3027630746364593,0.0013891500420868,0.5127506256103516,0.2587737441062927,0.0026308472733944,0.511557400226593,0.2182626873254776,0.0021422072313725
2023-08-01 15:51:58.206232,40,431,0.7444772720336914,0.5039238333702087,-0.3962411880493164,0.1865671426057815,0.126953125,0.9072265625,0.39990234375,0.4549016058444977,0.6255295276641846,2.0899599917356682e-07,0.3918733596801758,0.5668104887008667,-0.0102366022765636,0.3669842779636383,0.4647523164749145,-0.0026394221931695,0.3720149397850036,0.378854751586914,0.0024734560865908,0.3639785647392273,0.3215093314647674,0.0092751057818531,0.4071406722068786,0.3641238510608673,0.0360375568270683,0.4012364447116852,0.2768254280090332,0.031313456594944,0.401134729385376,0.2225023508071899,0.0180505253374576,0.4031711220741272,0.1723741441965103,0.0069998353719711,0.4431165754795074,0.3505318760871887,0.0309564024209976,0.4404096603393554,0.2497882843017578,0.0314207263290882,0.4391321539878845,0.1848853379487991,0.0210010148584842,0.4376843571662903,0.1266338527202606,0.01186965405941,0.4753279685974121,0.3568838834762573,0.0197790004312992,0.4772156476974487,0.26380056142807,0.0184131916612386,0.477920651435852,0.2086695283651352,0.013402672484517,0.4774929285049438,0.1610993295907974,0.0079901004210114,0.5104082226753235,0.3773173689842224,0.0049150763079524,0.5134303569793701,0.3037469089031219,0.0047473334707319,0.5133314728736877,0.2597310543060303,0.0062755714170634,0.5121119618415833,0.2188600450754165,0.0059883203357458
2023-08-01 15:51:58.252492,41,432,0.7445104718208313,0.5026185512542725,-0.3989271819591522,0.1842171400785446,0.1435546875,0.90625,0.3408203125,0.4562291800975799,0.6272798180580139,2.3384566816275765e-07,0.3917318880558014,0.5687340497970581,-0.0117590818554162,0.3662978410720825,0.466407299041748,-0.0046473974362015,0.3722241520881653,0.3803361654281616,0.0004459151823539,0.3644027411937713,0.3220872581005096,0.0074227126315236,0.4061310887336731,0.3656659424304962,0.0342354290187358,0.4000911712646484,0.2776361107826233,0.0291247442364692,0.4000773727893829,0.2227918803691864,0.0158821139484643,0.4021128416061401,0.1722797602415084,0.0049796905368566,0.4426587224006653,0.3520108759403229,0.0299872774630785,0.4395967125892639,0.2506840825080871,0.0303450319916009,0.4380504190921783,0.1856608241796493,0.0200639832764863,0.4361345767974853,0.1272973418235778,0.0111242169514298,0.4749848246574402,0.3585259616374969,0.0195717234164476,0.4766704738140106,0.2654454708099365,0.0180927608162164,0.477223128080368,0.2107440531253814,0.0134353255853056,0.4768758118152618,0.1637847572565078,0.0083969440311193,0.5100532174110413,0.378928929567337,0.0053485985845327,0.5126916766166687,0.3057886958122253,0.0049766786396503,0.5126757025718689,0.2619337439537048,0.0065298867411911,0.5118899345397949,0.2208641767501831,0.0064047477208077
2023-08-01 15:51:58.300059,42,433,0.7448117136955261,0.5006998181343079,-0.4016808569431305,0.1822297573089599,0.11181640625,0.89404296875,0.4296875,0.4572187960147857,0.6297916769981384,2.186340566368017e-07,0.3936016857624054,0.5722763538360596,-0.0105591816827654,0.3674969673156738,0.4703033566474914,-0.0031594550237059,0.3723011314868927,0.384185791015625,0.0020664089825004,0.3623086214065552,0.3258174657821655,0.0092001622542738,0.4072481095790863,0.3668795228004455,0.0343337282538414,0.4004142880439758,0.2776194512844085,0.0294797252863645,0.3991956114768982,0.2219698131084442,0.0164397656917572,0.4000704288482666,0.1707997471094131,0.0056470921263098,0.4434059560298919,0.3532829880714416,0.0295872073620557,0.4390278458595276,0.2519856095314026,0.0301979444921016,0.4372809827327728,0.1869720965623855,0.0203991811722517,0.4353173673152923,0.1287070512771606,0.0118021331727504,0.4757167994976043,0.3597120642662048,0.0188358295708894,0.4762805998325348,0.2663050591945648,0.0177793633192777,0.4768325686454773,0.2120005488395691,0.0136184468865394,0.4763404726982116,0.1649377942085266,0.0088195335119962,0.5111989974975586,0.3801893889904022,0.0043609021231532,0.5132877230644226,0.3068124651908874,0.0043228492140769,0.5125914812088013,0.2633460760116577,0.0061687789857387,0.510857343673706,0.2225266695022583,0.0062412582337856
2023-08-01 15:51:58.349170,43,434,0.7447479963302612,0.5000637769699097,-0.4034082293510437,0.1804117709398269,0.18408203125,0.9033203125,0.40576171875,0.461686909198761,0.633259654045105,2.3058125009356445e-07,0.3974321186542511,0.5773316025733948,-0.0102041950449347,0.3682065010070801,0.4737663865089416,-0.0010208083549514,0.367430031299591,0.3876951038837433,0.0060120364651083,0.3521272242069244,0.3310053944587707,0.0150877647101879,0.4055826365947723,0.3684952855110168,0.0389663353562355,0.3978382647037506,0.2795011699199676,0.0362462885677814,0.3963857293128967,0.2253146320581436,0.0242399647831916,0.3974359333515167,0.1753713339567184,0.0143788000568747,0.4424110949039459,0.3545944988727569,0.0350737795233726,0.4381067454814911,0.2525714337825775,0.0387814193964004,0.4360448122024536,0.1881345361471176,0.030620127916336,0.433451384305954,0.1316078603267669,0.0232891216874122,0.4749635457992553,0.3612672686576843,0.0249186605215072,0.4760473668575287,0.2689363360404968,0.0266277529299259,0.4758653044700622,0.2155662924051284,0.0241976380348205,0.4753057956695556,0.1707179993391037,0.0206784456968307,0.5106558203697205,0.3811689019203186,0.0108920102939009,0.5124871134757996,0.3075537383556366,0.0131768556311726,0.5117453336715698,0.2653576135635376,0.0167563594877719,0.5113099813461304,0.2261618673801422,0.0182394552975893
2023-08-01 15:51:58.407125,44,435,0.7448925375938416,0.5001070499420166,-0.4036908745765686,0.1790579408407211,0.14599609375,0.89794921875,0.408203125,0.4597115218639374,0.6322317719459534,2.308368891590363e-07,0.3952977359294891,0.5773665904998779,-0.0103154992684721,0.3661620616912842,0.4722798466682434,-0.0014299097238108,0.3663833141326904,0.3844821751117706,0.0052983090281486,0.350768119096756,0.3307995498180389,0.013812874443829,0.404764175415039,0.3682209253311157,0.0360561273992061,0.3968488276004791,0.2786341905593872,0.0324330627918243,0.3956556320190429,0.2241956293582916,0.0206169672310352,0.3972723484039306,0.1745056062936782,0.0109335081651806,0.4414151310920715,0.3537416458129883,0.0319054834544658,0.4365715682506561,0.2518236935138702,0.0342667736113071,0.4339948892593384,0.1878509223461151,0.0261732973158359,0.4312357008457184,0.1315612494945526,0.019077394157648,0.4742483794689178,0.3599127531051636,0.0216545909643173,0.4742359220981598,0.2669027149677276,0.022261319682002,0.473661720752716,0.2132684290409088,0.0197776332497596,0.4725021123886108,0.1673960387706756,0.0162338800728321,0.5100294947624207,0.3796628713607788,0.0075854808092117,0.5117709636688232,0.3063100576400757,0.0087351119145751,0.5110083818435669,0.26412034034729,0.0117616299539804,0.5097196102142334,0.225091353058815,0.0128456316888332
