Timestamp,Index,Frame ID,w,x,y,z,ax,ay,az,x_0,y_0,z_0,x_1,y_1,z_1,x_2,y_2,z_2,x_3,y_3,z_3,x_4,y_4,z_4,x_5,y_5,z_5,x_6,y_6,z_6,x_7,y_7,z_7,x_8,y_8,z_8,x_9,y_9,z_9,x_10,y_10,z_10,x_11,y_11,z_11,x_12,y_12,z_12,x_13,y_13,z_13,x_14,y_14,z_14,x_15,y_15,z_15,x_16,y_16,z_16,x_17,y_17,z_17,x_18,y_18,z_18,x_19,y_19,z_19,x_20,y_20,z_20
2023-08-01 15:51:45.957207,0,222,0.754165768623352,0.5311200022697449,-0.3477292656898498,0.1680174171924591,0.03759765625,0.91015625,0.384765625,0.5240318179130554,0.7179529666900635,1.454841651593597e-07,0.4565964937210083,0.6557748913764954,-0.0109686618670821,0.4358325600624084,0.5435935258865356,-0.0036147064529359,0.4495407342910766,0.4528113603591919,0.001290651736781,0.4547945857048034,0.3936144113540649,0.0070283175446093,0.4819569289684295,0.4584420323371887,0.0292373020201921,0.4761519134044647,0.3703971207141876,0.0223650503903627,0.4724414944648742,0.3123494982719421,0.0089873475953936,0.4705325663089752,0.2582423090934753,-0.0030742343515157,0.5201029181480408,0.4444911777973175,0.0225249454379081,0.5156897902488708,0.3407981991767883,0.0171460025012493,0.5100285410881042,0.2716218829154968,0.002175863366574,0.5038806796073914,0.207569271326065,-0.0099477376788854,0.5543799996376038,0.4506481885910034,0.0103812012821435,0.5547809600830078,0.3523370027542114,0.0011269840179011,0.5515633225440979,0.2872624397277832,-0.0111065730452537,0.5464281439781189,0.2295937538146972,-0.0209679305553436,0.5906499624252319,0.4721506536006927,-0.0046505564823746,0.5926704406738281,0.3951382637023926,-0.0136718973517417,0.5913644433021545,0.3442479372024536,-0.0188635569065809,0.5880237221717834,0.2961046397686004,-0.0236816294491291
2023-08-01 15:51:46.017252,1,223,0.7543734312057495,0.5307435393333435,-0.3488669991493225,0.1659030616283416,0.01953125,0.92626953125,0.39697265625,0.5251613259315491,0.7201481461524963,1.45867815604106e-07,0.4571782052516937,0.6566405296325684,-0.0105892047286033,0.4360643029212951,0.5444581508636475,-0.00332200108096,0.4497376680374145,0.453339546918869,0.0015802348498255,0.4553032219409942,0.392774760723114,0.0074116550385952,0.4826067388057709,0.4590126276016235,0.029384009540081,0.4770229458808899,0.3711210191249847,0.0226080566644668,0.4730058908462524,0.3131068348884582,0.0093274051323533,0.4707060754299164,0.2591101229190826,-0.0026852667797356,0.5207048654556274,0.4447176456451416,0.0226163771003484,0.5164174437522888,0.3405768275260925,0.0173867512494325,0.5106574892997742,0.2710586190223694,0.0026624058373272,0.5042893886566162,0.2067980766296386,-0.00928864069283,0.555013120174408,0.4508865475654602,0.010477521456778,0.5556448698043823,0.3518145978450775,0.001343635842204,0.5524753928184509,0.2867584228515625,-0.0107105802744627,0.5471324920654297,0.2292630970478058,-0.0204053614288568,0.5913962721824646,0.4727033376693725,-0.0044777584262192,0.593792200088501,0.3953885436058044,-0.0135814789682626,0.5923135876655579,0.3440137803554535,-0.0188420563936233,0.5885098576545715,0.2955921292304992,-0.0236187800765037
2023-08-01 15:51:46.085185,2,224,0.7547733783721924,0.5292351841926575,-0.3506101667881012,0.1652259230613708,0.03466796875,0.9189453125,0.37939453125,0.5249921083450317,0.7199063897132874,1.4940405890229158e-07,0.4568070471286773,0.6563634276390076,-0.0113506214693188,0.4359101355075836,0.5440717339515686,-0.0045367870479822,0.4501415491104126,0.4532800912857055,-9.167401731247082e-05,0.4577515721321106,0.3938793838024139,0.0051729013212025,0.4830416440963745,0.4595479369163513,0.0284507106989622,0.4778758585453033,0.3711462616920471,0.0213031619787216,0.4744928479194641,0.3128827512264251,0.0078968331217765,0.4727194905281067,0.2585569620132446,-0.0041963490657508,0.5209823250770569,0.445742130279541,0.0218474809080362,0.5168605446815491,0.3416032195091247,0.0161735471338033,0.511527955532074,0.2721789479255676,0.0012455860851332,0.505767822265625,0.207660287618637,-0.0108010750263929,0.5556265115737915,0.4520167410373688,0.0098124369978904,0.5558652281761169,0.3537941873073578,0.0003023613244295,0.5530222654342651,0.2888067364692688,-0.0118277426809072,0.5483236908912659,0.2308756411075592,-0.021543888375163,0.5923820734024048,0.4737037122249603,-0.005118038970977,0.5937920808792114,0.3966755867004394,-0.0143491737544536,0.593025267124176,0.346123993396759,-0.019467145204544,0.5904125571250916,0.2983580231666565,-0.0241623315960168
2023-08-01 15:51:46.151588,3,225,0.7540802955627441,0.5273892283439636,-0.3561524748802185,0.1624155789613723,0.0712890625,0.91796875,0.3876953125,0.52498459815979,0.7195850610733032,1.7866740620320345e-07,0.4569938778877258,0.658453106880188,-0.0143175879493355,0.4344173073768616,0.5456264019012451,-0.0090130940079689,0.4480795860290527,0.4527274668216705,-0.0055925799533724,0.4557168781757355,0.3921530842781067,-0.0012175689917057,0.4805704653263092,0.4599660336971283,0.0253588147461414,0.4748086035251617,0.3707083165645599,0.017093488946557,0.4717861711978912,0.3119803071022033,0.0031756092794239,0.470533162355423,0.2575637698173523,-0.0090080592781305,0.5196250081062317,0.4456548392772674,0.0199553705751895,0.5154052376747131,0.3410382866859436,0.0135483033955097,0.5102985501289368,0.2713093161582947,-0.001361682661809,0.5048863887786865,0.2071515619754791,-0.0131443161517381,0.5548737645149231,0.4516814351081848,0.0088881598785519,0.5548670291900635,0.3530173599720001,-0.0010619412641972,0.5518374443054199,0.2875080108642578,-0.0127359423786401,0.5471287965774536,0.2296811640262603,-0.0219037663191556,0.5919753909111023,0.4732728898525238,-0.005351650994271,0.5931859612464905,0.3959222137928009,-0.0143685033544898,0.5918312668800354,0.3450268507003784,-0.0188281890004873,0.5887647867202759,0.2972598671913147,-0.0229090452194213
2023-08-01 15:51:46.212232,4,226,0.7535789608955383,0.5251069664955139,-0.3625447154045105,0.1579325944185257,0.07275390625,0.8974609375,0.40673828125,0.52289217710495,0.7200156450271606,1.7324303769328253e-07,0.4550219476222992,0.6576066017150879,-0.0128716258332133,0.4329988658428192,0.5445914268493652,-0.0070480299182236,0.4465956687927246,0.4528037905693054,-0.0034781808499246,0.454963207244873,0.3928220272064209,0.0008466326980851,0.4791506230831146,0.4597502946853637,0.026631012558937,0.4733420312404632,0.3711237907409668,0.0184080712497234,0.4704666435718536,0.3125758767127991,0.0042941533029079,0.4695635437965393,0.2581453025341034,-0.0080492841079831,0.5177814364433289,0.4455779790878296,0.0204596985131502,0.5137607455253601,0.3410661220550537,0.014072323217988,0.5086750984191895,0.2710051834583282,-0.0012994478456676,0.5034739971160889,0.2063893377780914,-0.0134901879355311,0.5529091358184814,0.4515590369701385,0.0087294885888695,0.5531097650527954,0.3531009256839752,-0.0011713972780853,0.5504933595657349,0.2876072525978088,-0.0135498326271772,0.5461752414703369,0.229798287153244,-0.0232816021889448,0.5897513031959534,0.4729256927967071,-0.0060395384207367,0.5913529992103577,0.3949724435806274,-0.0151625396683812,0.5899124145507812,0.3439275026321411,-0.0200908351689577,0.5865491032600403,0.2960982322692871,-0.0245920345187187
2023-08-01 15:51:46.273827,5,227,0.7530973553657532,0.5223492980003357,-0.3695223033428192,0.1531297713518142,0.08544921875,0.90869140625,0.40478515625,0.5211336016654968,0.7198166847229004,1.6234879751664266e-07,0.4534164667129516,0.659112811088562,-0.0113238329067826,0.4277852773666382,0.5480937361717224,-0.0051875268109142,0.437128871679306,0.4561768770217895,-0.0015363246202468,0.4386433362960815,0.3928161859512329,0.003240939695388,0.4744326472282409,0.4562313258647918,0.0283856205642223,0.4666357040405273,0.3650198876857757,0.0210943985730409,0.4624563753604889,0.307425320148468,0.0078284740447998,0.46016526222229,0.2545157372951507,-0.0038823815993964,0.5137233734130859,0.4410605430603027,0.0213793665170669,0.5075280070304871,0.3353232145309448,0.0159224662929773,0.5014952421188354,0.2659491300582886,0.0017753816209733,0.4949565529823303,0.2036155760288238,-0.0095296371728181,0.5488872528076172,0.4470643103122711,0.0088517386466264,0.5469530820846558,0.3458360731601715,-0.0002208803634857,0.5431217551231384,0.2819010615348816,-0.0108025753870606,0.5374059677124023,0.2258329391479492,-0.0192633513361215,0.5855454206466675,0.4692478775978088,-0.0066474750638008,0.5841268301010132,0.3896437883377075,-0.0156250968575477,0.5803094506263733,0.3376780450344085,-0.0197829119861125,0.5749388337135315,0.2895299196243286,-0.0234422776848077
2023-08-01 15:51:46.330225,6,228,0.7528996467590332,0.5193508267402649,-0.3743146955966949,0.1526608169078827,0.0576171875,0.90966796875,0.337890625,0.5235742926597595,0.7245470881462097,1.787725949498054e-07,0.4530300498008728,0.662152111530304,-0.0137524865567684,0.4262399673461914,0.547507643699646,-0.007542478851974,0.4369979500770569,0.4521180689334869,-0.0032613549847155,0.4399189949035644,0.387557178735733,0.002121930476278,0.4713727235794067,0.4562874138355255,0.0281676538288593,0.4640900790691376,0.3643299341201782,0.0207516159862279,0.4605116844177246,0.3055625557899475,0.006783896125853,0.4584313929080963,0.2503976821899414,-0.0055606090463697,0.5115637183189392,0.4411599040031433,0.0226684063673019,0.5061780214309692,0.3354840874671936,0.0172635801136493,0.5009123086929321,0.2657868862152099,0.0020903870463371,0.4950645267963409,0.2012331783771515,-0.0101334741339087,0.5469393730163574,0.4473349750041961,0.011364291422069,0.5452815294265747,0.347797155380249,0.0020866896957159,0.5416804552078247,0.2829201221466064,-0.0098610389977693,0.5360311269760132,0.225857138633728,-0.0193321127444505,0.5844221711158752,0.4694048762321472,-0.0031012375839054,0.5842354893684387,0.3888728022575378,-0.0121101085096597,0.5814436674118042,0.3369542956352234,-0.0168425273150205,0.5767170190811157,0.2883329391479492,-0.0210625901818275
2023-08-01 15:51:46.391334,7,229,0.752862274646759,0.5163246393203735,-0.3784276247024536,0.1529701352119445,0.06884765625,0.92919921875,0.4033203125,0.5239272117614746,0.7232455015182495,2.086356118979893e-07,0.4541428685188293,0.6611831784248352,-0.0150809334591031,0.4259374439716339,0.5494363903999329,-0.0107366302981972,0.4349751770496368,0.4546719193458557,-0.0079697892069816,0.4358454346656799,0.387259840965271,-0.0038206868339329,0.4682750999927521,0.4523189663887024,0.0252003911882638,0.4607625603675842,0.3589760661125183,0.0166123732924461,0.4576807916164398,0.3002237677574157,0.0022381900344043,0.4563414454460144,0.2450976520776748,-0.0102050583809614,0.5089117884635925,0.437656432390213,0.0200021006166934,0.5024110078811646,0.3314918875694275,0.0137359658256173,0.497601181268692,0.2618218660354614,-0.001493950956501,0.4924420118331909,0.1969923079013824,-0.0137140555307269,0.5450155735015869,0.4446306824684143,0.0089615220203995,0.542407214641571,0.3454048037528991,-0.0008379437495023,0.5388831496238708,0.2814887464046478,-0.0124417226761579,0.5336297750473022,0.2244952917098999,-0.0216335002332925,0.5839747190475464,0.4670963883399963,-0.0053533283062279,0.5827856063842773,0.3867709636688232,-0.0148872938007116,0.57872474193573,0.3349881768226623,-0.0197372995316982,0.5727992057800293,0.2857242822647095,-0.0239246822893619
2023-08-01 15:51:46.455215,8,230,0.7535157799720764,0.5137461423873901,-0.3802643716335296,0.1538758277893066,0.103515625,0.8896484375,0.484375,0.5217729806900024,0.726121723651886,2.1609406530842534e-07,0.4515728056430816,0.6632875204086304,-0.0144530199468135,0.4230275750160217,0.5492023825645447,-0.0092940414324402,0.4315904080867767,0.4542391896247864,-0.005775854922831,0.429943323135376,0.3856536149978637,-0.0007570161833427,0.4661830365657806,0.4478257298469543,0.0279462970793247,0.4580443203449249,0.3536184430122375,0.0202906038612127,0.4553829133510589,0.294855535030365,0.0060724085196852,0.4544715881347656,0.2398253977298736,-0.0063125388696789,0.5074486136436462,0.4336923956871032,0.0225184503942728,0.5005896091461182,0.3273544311523437,0.0177773814648389,0.4963190853595733,0.2583674788475036,0.0029258737340569,0.491603672504425,0.1944165229797363,-0.0092113418504595,0.5439500212669373,0.4415035843849182,0.011126828379929,0.5409416556358337,0.3424366116523742,0.0029827167745679,0.5380235314369202,0.2796148955821991,-0.0077314241789281,0.5333513021469116,0.2237327694892883,-0.0166757069528102,0.5829024314880371,0.4652685821056366,-0.003633061889559,0.5804378986358643,0.3854230940341949,-0.0116314003244042,0.5769815444946289,0.334566056728363,-0.0154238762333989,0.5724501013755798,0.2859688997268677,-0.0190605744719505
2023-08-01 15:51:46.511342,9,231,0.7539571523666382,0.51300448179245,-0.3802762031555176,0.1541590541601181,0.09228515625,0.8935546875,0.39453125,0.5121893286705017,0.7239580154418945,3.471929233000992e-07,0.4448204040527344,0.6623778939247131,-0.0165506396442651,0.412850022315979,0.5495516061782837,-0.0135604068636894,0.4138745665550232,0.4564604759216308,-0.0114212175831198,0.3993867635726928,0.3897383213043213,-0.0070309219881892,0.4513183534145355,0.4308620393276214,0.0260190200060606,0.4457740187644958,0.3318359851837158,0.0196530632674694,0.4464266002178192,0.273176372051239,0.0057121161371469,0.4479731321334839,0.2196027934551239,-0.005910059902817,0.4948353171348572,0.4181111454963684,0.0217357352375984,0.4906466603279114,0.3051924705505371,0.0210802163928747,0.4879470467567444,0.2343592941761016,0.0097098285332322,0.4835151135921478,0.174132227897644,-3.004703285114374e-05,0.5327954888343811,0.4298293590545654,0.011324199847877,0.5325213074684143,0.3243729770183563,0.0083577912300825,0.5299497842788696,0.2628490030765533,0.002985909814015,0.5258874893188477,0.2104214429855346,-0.0027312138117849,0.5724447965621948,0.4585813879966736,-0.0030251466669142,0.5712887644767761,0.3753462433815002,-0.0061682658270001,0.5673404932022095,0.3252176940441131,-0.0052213142625987,0.5623906254768372,0.2787624597549438,-0.0053869090043008
2023-08-01 15:51:46.577119,10,232,0.7539243698120117,0.5129050612449646,-0.3805712163448334,0.1539225429296493,0.0771484375,0.90966796875,0.4072265625,0.5120621919631958,0.7306903600692749,2.247853387871146e-07,0.44013112783432,0.668382465839386,-0.0150655806064605,0.4074349403381347,0.557361364364624,-0.0112048331648111,0.4078418612480163,0.4632334411144256,-0.0088799577206373,0.3924676179885864,0.3963387012481689,-0.0045295655727386,0.4502630531787872,0.4304829835891723,0.0308728963136672,0.4419431090354919,0.3362792134284973,0.0232732258737087,0.4412780404090881,0.2789194583892822,0.0072593851946294,0.4426513314247131,0.2240668535232544,-0.0062001356855034,0.4934589266777038,0.4173034727573395,0.0252378955483436,0.4874801635742187,0.3076021075248718,0.0235924571752548,0.4851575493812561,0.2395498305559158,0.0112545108422636,0.482448548078537,0.1760382354259491,0.0003627597761806,0.530661404132843,0.4286429286003113,0.0130577478557825,0.5294904112815857,0.3269959092140198,0.0090048518031835,0.5279620289802551,0.2671430706977844,0.0037231619935482,0.5256564617156982,0.2133002281188964,-0.0021574788261204,0.5707297325134277,0.4582597911357879,-0.0032565949950367,0.5693315863609314,0.375848650932312,-0.0065521975047886,0.5666266679763794,0.326649010181427,-0.0053516342304646,0.5632588267326355,0.2792589366436004,-0.0057341158390045
2023-08-01 15:51:46.635882,11,233,0.7534357309341431,0.5132708549499512,-0.3806699216365814,0.1548477560281753,0.07177734375,0.9130859375,0.388671875,0.5100769996643066,0.731462836265564,2.449824307859672e-07,0.4418033957481384,0.6714147329330444,-0.0156131340190768,0.4080063700675964,0.5594134330749512,-0.0127763170748949,0.4073016941547394,0.4650915563106537,-0.0113703459501266,0.3896161317825317,0.3983610868453979,-0.007820657454431,0.4494650065898895,0.4272605180740356,0.0284705217927694,0.4403172731399536,0.3314623832702636,0.0203957241028547,0.4401376843452453,0.27301687002182,0.0043770796619355,0.4429810643196106,0.2176626026630401,-0.0090198060497641,0.4915224313735962,0.4144889712333679,0.0228944476693868,0.4844268262386322,0.3035230040550232,0.0209260266274213,0.4823279082775116,0.2343233972787857,0.0088650081306695,0.4798839390277862,0.1702370941638946,-0.0017842440865933,0.5286349058151245,0.4260087311267853,0.0108858682215213,0.5271716117858887,0.3224223256111145,0.0069593423977494,0.5257197022438049,0.2618259191513061,0.0020308219827711,0.5227367281913757,0.2071341276168823,-0.0036821607500314,0.5683884024620056,0.4554310142993927,-0.0053365095518529,0.5665823221206665,0.3731158375740051,-0.0088021801784634,0.5632861852645874,0.3235270380973816,-0.0077751488424837,0.5586453676223755,0.2757865190505981,-0.0082346964627504
2023-08-01 15:51:46.698231,12,234,0.7528554797172546,0.5132337808609009,-0.3818126618862152,0.1549806296825409,0.07373046875,0.9013671875,0.44970703125,0.5114803910255432,0.7338712811470032,2.405740815447644e-07,0.4411612153053283,0.6710348129272461,-0.0148716820403933,0.4074983298778534,0.5582374334335327,-0.0110142948105931,0.4064037799835205,0.4628753066062927,-0.0090178437530994,0.3873167932033539,0.3963601589202881,-0.0050497981719672,0.4492670893669128,0.4299083054065704,0.0315433181822299,0.4403499960899353,0.3325305879116058,0.0232886336743831,0.4409999847412109,0.2727918624877929,0.0065248976461589,0.4444403946399688,0.215838611125946,-0.0073914593085646,0.4912313222885132,0.4171940982341766,0.0255606304854154,0.4839999079704284,0.304872989654541,0.0236465968191623,0.4824196100234985,0.2347787767648697,0.0108845382928848,0.4807763993740082,0.1697922646999359,-0.0003381671558599,0.5280390381813049,0.4283428192138672,0.0129584139212965,0.5264012217521667,0.3240948617458343,0.0092086400836706,0.5253716707229614,0.2622488737106323,0.0040661725215613,0.523512601852417,0.2071040868759155,-0.0018403279827907,0.568004310131073,0.4573080539703369,-0.0039298478513956,0.5663599371910095,0.3741060495376587,-0.0067508704960346,0.5637027025222778,0.3238848149776459,-0.0053411922417581,0.560228168964386,0.2757234573364258,-0.0056770802475512
2023-08-01 15:51:46.760477,13,235,0.7530137896537781,0.5128153562545776,-0.3822188973426819,0.1545940786600113,0.10546875,0.87744140625,0.4658203125,0.5115163326263428,0.7389059066772461,2.439700779177656e-07,0.4427121877670288,0.6760966777801514,-0.0142174176871776,0.4095487594604492,0.5647020936012268,-0.0104519473388791,0.4083341062068939,0.4706963002681732,-0.0084638958796858,0.3887518048286438,0.4049109816551208,-0.0041146511211991,0.4492697417736053,0.4311037361621856,0.032322384417057,0.4403168559074402,0.334264874458313,0.0244409423321485,0.4412266612052917,0.2754289507865906,0.0078835133463144,0.4448755383491516,0.2196678519248962,-0.0056819994933903,0.490678459405899,0.4187819957733154,0.0264522600919008,0.4835033714771271,0.3073488473892212,0.025533877313137,0.4820249378681183,0.2384539097547531,0.0139962239190936,0.4802506566047668,0.1751039326190948,0.003796610282734,0.5269945859909058,0.4303207993507385,0.0140409152954816,0.5250064134597778,0.3273163437843323,0.011742771603167,0.5238080024719238,0.2667810618877411,0.008849318139255,0.5219712257385254,0.212726354598999,0.0046031447127461,0.5668568015098572,0.4599997699260711,-0.002755245193839,0.5653154253959656,0.3770323991775512,-0.0039677093736827,0.5628042221069336,0.3279888927936554,-0.0006526997312903,0.5594670176506042,0.2811363339424133,0.000643182080239
2023-08-01 15:51:46.823247,14,236,0.7530009746551514,0.5132428407669067,-0.3818965554237366,0.1540331095457077,0.09765625,0.89453125,0.38525390625,0.5121638178825378,0.7401696443557739,2.6839566658054537e-07,0.4426543414592743,0.6781907677650452,-0.0148034039884805,0.4084011614322662,0.5680959224700928,-0.0122779747471213,0.4071632623672485,0.4740070104598999,-0.011629226617515,0.3893195688724518,0.4068538248538971,-0.0086953025311231,0.4487496316432953,0.4320887923240661,0.0312350578606128,0.4402749538421631,0.334903746843338,0.0227573830634355,0.4415149688720703,0.27598437666893,0.0059497347101569,0.4455989897251129,0.220119297504425,-0.0077346405014395,0.4895972907543182,0.4190794229507446,0.025198820978403,0.4831827878952026,0.3074844181537628,0.0235633142292499,0.4815764725208282,0.2387010306119918,0.011674927547574,0.479999840259552,0.1752621233463287,0.001206308719702,0.5256025791168213,0.42986661195755,0.0125818289816379,0.5242094993591309,0.3262115120887756,0.0098794773221015,0.5231856107711792,0.2659496963024139,0.0065258266404271,0.5214056372642517,0.2116406261920929,0.0019068481633439,0.5644804835319519,0.4587108492851257,-0.0044687069021165,0.5639423727989197,0.3749355375766754,-0.0057841688394546,0.5620705485343933,0.325705349445343,-0.0027329591102898,0.5592640042304993,0.27872034907341,-0.0017423093086108
2023-08-01 15:51:46.883392,15,237,0.7530033588409424,0.5133479237556458,-0.3818753659725189,0.1537238657474517,0.05810546875,0.90625,0.427734375,0.5130075216293335,0.740240752696991,2.624745434331999e-07,0.4426173865795135,0.6795470714569092,-0.0155708566308021,0.4081771373748779,0.5677082538604736,-0.0128942085430026,0.4084045886993408,0.4733375906944275,-0.0117539316415786,0.3895328044891357,0.4067978262901306,-0.0085544371977448,0.4475221931934356,0.4305688738822937,0.0293135643005371,0.4399904012680053,0.3338682055473327,0.0203933455049991,0.4410869777202606,0.2739827632904053,0.0028798405546694,0.4444248676300049,0.2169418334960937,-0.0115592433139681,0.4893757402896881,0.4177859127521515,0.0234393924474716,0.4833993017673492,0.3061221539974212,0.0213763918727636,0.4823187887668609,0.2374854087829589,0.0084039997309446,0.480784147977829,0.1725630462169647,-0.0032737827859818,0.5255686044692993,0.4290331304073334,0.011025158688426,0.5252591967582703,0.3260804414749145,0.0076040923595428,0.5239250659942627,0.2662650346755981,0.0027142032049596,0.5214526653289795,0.2112275958061218,-0.0033430738840252,0.5651135444641113,0.4584259390830993,-0.0057676439173519,0.5644291043281555,0.3749805688858032,-0.0079352874308824,0.5623605251312256,0.3265234231948852,-0.0059730312786996,0.5587754249572754,0.2791441082954407,-0.0061282268725335
2023-08-01 15:51:46.946264,16,238,0.7533645629882812,0.5130360126495361,-0.381447821855545,0.1540568321943283,0.09814453125,0.8955078125,0.4736328125,0.5132442712783813,0.7419761419296265,2.708536896989245e-07,0.4418932199478149,0.6802991628646851,-0.0171818546950817,0.4074581563472748,0.5708239078521729,-0.015935480594635,0.4073020219802856,0.4760997891426086,-0.0160169452428817,0.3892861306667328,0.405926764011383,-0.0139281675219535,0.4476782381534576,0.4322489202022552,0.0287702661007642,0.439453661441803,0.33452308177948,0.0190145410597324,0.4410655796527862,0.2747879028320312,0.0006282168324105,0.4453396201133728,0.2170579433441162,-0.0145239289849996,0.4899730682373047,0.4199107885360718,0.0231972485780715,0.4835715293884277,0.3077093362808227,0.020362164825201,0.4826239943504333,0.2394683957099914,0.0062336390838027,0.4813282787799835,0.1735925078392028,-0.0065154526382684,0.5260897874832153,0.4315750896930694,0.010888441465795,0.5253965258598328,0.3283947110176086,0.0067086215130984,0.523827314376831,0.2682812809944153,0.0013491930440068,0.5216376781463623,0.2126893997192382,-0.0051539856940507,0.5662623643875122,0.4618189632892608,-0.0059331497177481,0.5646118521690369,0.3773006796836853,-0.0085795298218727,0.5626168251037598,0.3281439840793609,-0.0068174200132489,0.5592373609542847,0.279994785785675,-0.0072296438738703
2023-08-01 15:51:47.009223,17,239,0.7568157911300659,0.5139510035514832,-0.3701153397560119,0.161551758646965,0.19873046875,0.90478515625,0.4208984375,0.5127414464950562,0.7428165674209595,2.704776136397413e-07,0.4414777755737304,0.6806851029396057,-0.0158275831490755,0.4086173772811889,0.5728567838668823,-0.0142197217792272,0.4101613163948059,0.4790298044681549,-0.0143488822504878,0.3927989602088928,0.4087380170822143,-0.0124550852924585,0.4471008777618408,0.4335677027702331,0.03028429672122,0.439286857843399,0.33620285987854,0.0207569859921932,0.4409783482551574,0.2758210301399231,0.0022785479668527,0.4454791843891144,0.2172790467739105,-0.0131480162963271,0.4895205497741699,0.420247733592987,0.023753622546792,0.4835048913955688,0.3079579472541809,0.0208609066903591,0.4826937913894653,0.2395530194044113,0.0063094943761825,0.4815243780612945,0.1731264889240265,-0.0068661863915622,0.5257743000984192,0.431450754404068,0.0105805797502398,0.5251731872558594,0.3274853825569153,0.0062396903522312,0.5236319899559021,0.2672376036643982,0.0005168342613615,0.5216373801231384,0.2113141119480133,-0.0063782855868339,0.5661688446998596,0.4619235098361969,-0.0069937431253492,0.5646167993545532,0.3771455585956573,-0.0100025832653045,0.5630420446395874,0.3274791240692138,-0.0086209448054432,0.5600653290748596,0.278395801782608,-0.0094252368435263
2023-08-01 15:51:47.075045,18,240,0.7687685489654541,0.5142799615859985,-0.3317064344882965,0.1856931447982788,0.02783203125,0.90771484375,0.40380859375,0.5136014223098755,0.7423182725906372,2.7445625505606586e-07,0.4429382681846618,0.6816568970680237,-0.0173635613173246,0.4085067510604858,0.5720885396003723,-0.0162725020200014,0.4095192551612854,0.4774803221225738,-0.0164530035108327,0.3917229175567627,0.4075495600700378,-0.0144706452265381,0.4475302696228027,0.4320773482322693,0.0273143798112869,0.4393649399280548,0.3349251747131347,0.0172291565686464,0.4404862225055694,0.2746664881706238,-0.0010932893492281,0.4441237449645996,0.2170691490173339,-0.0161365121603012,0.4897691905498504,0.4189857244491577,0.0217312257736921,0.4835042059421539,0.3066155314445495,0.0184321217238903,0.4826801419258117,0.2376309931278228,0.0045480267144739,0.481536716222763,0.171583890914917,-0.0078971739858388,0.5260586738586426,0.4300733208656311,0.0094371261075139,0.5255517959594727,0.3265419006347656,0.0047340216115117,0.5242247581481934,0.2661572694778442,-0.0008289288962259,0.522051215171814,0.2101391851902008,-0.0073474636301398,0.5661448836326599,0.4596812725067138,-0.0073499325662851,0.5652718544006348,0.3756880462169647,-0.0106781730428338,0.5634710788726807,0.3265101909637451,-0.0094477785751223,0.5600484609603882,0.2781878113746643,-0.0101469429209828
2023-08-01 15:51:47.137141,19,241,0.7906690239906311,0.5084460377693176,-0.2454228103160858,0.2368389517068863,-0.05322265625,0.90185546875,0.44775390625,0.5157132148742676,0.7440869808197021,2.791976783100836e-07,0.4430418014526367,0.682467520236969,-0.0168032012879848,0.4078088998794555,0.5722883939743042,-0.0149785848334431,0.4082399308681488,0.4768800139427185,-0.0144466254860162,0.3903661966323852,0.4073597490787506,-0.0116941789165139,0.4477917850017547,0.4339960515499115,0.0289475806057453,0.4397251904010772,0.335821121931076,0.0192900840193033,0.4414961338043213,0.2751994431018829,0.0009644238743931,0.4459324777126312,0.2170111835002899,-0.0139804109930992,0.4901725053787231,0.4211951196193695,0.0235712584108114,0.4839122593402862,0.3079853057861328,0.0212232135236263,0.4829249382019043,0.2387160062789917,0.0076564331538975,0.4817643761634826,0.1726462841033935,-0.0046196528710424,0.5263792872428894,0.432314932346344,0.0114970058202743,0.5258029699325562,0.328732967376709,0.0080954609438776,0.524374783039093,0.2682734131813049,0.0033500150311738,0.5227301716804504,0.2130854427814483,-0.0027474721428006,0.5664681792259216,0.4620105624198913,-0.0051341927610337,0.5653203725814819,0.3782447576522827,-0.0068214107304811,0.5635436773300171,0.3295043706893921,-0.0043735266663134,0.5606974959373474,0.2822177410125732,-0.0043073995038867
2023-08-01 15:51:47.193980,20,242,0.802553653717041,0.4979161918163299,-0.1718150377273559,0.2801190912723541,-0.2177734375,0.92236328125,0.232421875,0.5179805755615234,0.7335277795791626,2.390503084370721e-07,0.4530631005764007,0.6630496382713318,-0.0103064458817243,0.4281214475631714,0.5491103529930115,-0.0089777735993266,0.435068815946579,0.4589862525463104,-0.0110597312450408,0.4301837086677551,0.3934462666511535,-0.0126396268606185,0.4711605906486511,0.4278790056705475,0.0241189375519752,0.4696740508079529,0.3318273425102234,0.0112466653808951,0.4704892039299011,0.2713106870651245,-0.0066671771928668,0.4741018116474151,0.214064210653305,-0.0215525850653648,0.5074101090431213,0.4156976044178009,0.0130366906523704,0.5065268278121948,0.3022487163543701,0.0039198012091219,0.5070343613624573,0.2312268316745758,-0.0118205994367599,0.5081804394721985,0.1650609970092773,-0.0247958805412054,0.5406009554862976,0.4271126389503479,-0.0037759102415293,0.5441824793815613,0.319262683391571,-0.0150329591706395,0.545177698135376,0.2529555261135101,-0.0255931671708822,0.54439777135849,0.1920696198940277,-0.0349451079964637,0.5745649933815002,0.4579707980155945,-0.0238569807261228,0.5793851017951965,0.3721316754817962,-0.0344984419643878,0.5817810893058777,0.3172769248485565,-0.0389643758535385,0.5815039277076721,0.2646121382713318,-0.0435828045010566
2023-08-01 15:51:47.258052,21,243,0.8070068359375,0.4711038768291473,-0.0362795852124691,0.3542384505271911,-0.076171875,0.92138671875,0.1064453125,0.5224100351333618,0.7325235605239868,2.3372921020836657e-07,0.458025723695755,0.6634787321090698,-0.0098231015726923,0.4353319406509399,0.5492308735847473,-0.0090977549552917,0.4417185187339782,0.4606039226055145,-0.0118262460455298,0.4364234507083893,0.3941044807434082,-0.0137800415977835,0.48178231716156,0.4264240562915802,0.0243727210909128,0.4806565940380096,0.3282779455184936,0.011763266287744,0.4827864170074463,0.2664700150489807,-0.0061654858291149,0.4880357980728149,0.2083486020565033,-0.021145511418581,0.5162419676780701,0.4151411056518554,0.0131132258102297,0.5154957175254822,0.3022332489490509,0.0038015474565327,0.5173670649528503,0.2297377437353134,-0.0121294371783733,0.5201194286346436,0.1628092527389526,-0.0253245830535888,0.5476393699645996,0.427110493183136,-0.0037627611309289,0.5523373484611511,0.3172054886817932,-0.0143056893721222,0.5560183525085449,0.2504548132419586,-0.0245284009724855,0.5578250288963318,0.1892941892147064,-0.0337553583085536,0.578537106513977,0.4584275484085083,-0.023953853175044,0.5854090452194214,0.372370183467865,-0.0336761772632598,0.5895389318466187,0.3156552910804748,-0.0382762961089611,0.5912131667137146,0.2613575756549835,-0.0429937802255153
2023-08-01 15:51:47.328126,22,244,0.7907353639602661,0.4231269359588623,0.1179850846529007,0.4263574481010437,-0.0927734375,0.90087890625,0.228515625,0.526517391204834,0.7305059432983398,2.771454603589518e-07,0.4657317399978637,0.6558473110198975,-0.0070470869541168,0.447890043258667,0.5378518104553223,-0.0056266258470714,0.4542193114757538,0.4492385685443878,-0.0086821382865309,0.4558283686637878,0.3913352191448211,-0.0111501244828104,0.4918498694896698,0.4250475764274597,0.0279211513698101,0.4946901798248291,0.3246247768402099,0.0169312637299299,0.4963121712207794,0.2606468498706817,0.0009867409244179,0.5004991888999939,0.2025806605815887,-0.0126911513507366,0.5229136943817139,0.4156596660614013,0.0150975110009312,0.5265945792198181,0.3002869188785553,0.00657006399706,0.5291569828987122,0.2245376706123352,-0.0084175998345017,0.5323112607002258,0.156990498304367,-0.0209239143878221,0.5517081022262573,0.4283140003681183,-0.0031861511524766,0.5602894425392151,0.3153886198997497,-0.0125885214656591,0.5660478472709656,0.2447422742843628,-0.0233340561389923,0.5694126486778259,0.1830061674118042,-0.033157430589199,0.5787330269813538,0.4576692581176758,-0.0246062111109495,0.5880569219589233,0.3712342977523803,-0.0327621363103389,0.593346357345581,0.3128925561904907,-0.0376066267490386,0.5961158871650696,0.2596839070320129,-0.0430099330842494
2023-08-01 15:51:47.386897,23,245,0.7694630026817322,0.3852962255477905,0.2132442146539688,0.4626018106937408,-0.2666015625,0.96484375,-0.212890625,0.5628087520599365,0.73527991771698,2.6512233830544574e-07,0.5053473114967346,0.6380630731582642,0.0044361348263919,0.5061392188072205,0.5320193767547607,-0.0005943228607065,0.5205478072166443,0.4528889060020447,-0.0108283534646034,0.5308636426925659,0.3942762315273285,-0.021428233012557,0.5710927248001099,0.4461004137992859,0.0057184775359928,0.5519120097160339,0.3220359086990356,-0.0136557556688785,0.5443834662437439,0.2433398365974426,-0.030873917043209,0.5443190336227417,0.1752556264400482,-0.0435540676116943,0.5843552947044373,0.4491801559925079,-0.012666841968894,0.5554345846176147,0.3168651461601257,-0.0329528227448463,0.5491570830345154,0.2280038893222808,-0.048342790454626,0.5513656735420227,0.1531394720077514,-0.0601294189691543,0.5825332403182983,0.4650784730911255,-0.0332334227859973,0.5611303448677063,0.33248370885849,-0.0490278154611587,0.5558785796165466,0.2458810210227966,-0.0573736429214477,0.5601507425308228,0.1748402416706085,-0.0649998635053634,0.5675756335258484,0.4842376708984375,-0.0550378523766994,0.5582629442214966,0.3854538202285766,-0.0666136965155601,0.5552212595939636,0.3202370405197143,-0.0717165470123291,0.5565718412399292,0.261115550994873,-0.0771054551005363
2023-08-01 15:51:47.442624,24,246,0.7283242344856262,0.3182277977466583,0.338519275188446,0.5036661028862,-0.603515625,0.87060546875,-0.34130859375,0.5625791549682617,0.7210559844970703,1.7618270931052393e-07,0.5024423003196716,0.6210999488830566,0.0134099312126636,0.5086908340454102,0.5207122564315796,0.0164070725440979,0.524498462677002,0.4497745037078857,0.0135339694097638,0.5306222438812256,0.3929381370544433,0.009630705229938,0.5718852281570435,0.441446453332901,0.0159864649176597,0.5543463230133057,0.3273801803588867,0.0011930534383282,0.5452312231063843,0.2480458170175552,-0.0116998581215739,0.5434691905975342,0.181203693151474,-0.021431753411889,0.5867521166801453,0.4418728053569793,-0.0040093949064612,0.5585993528366089,0.3089157938957214,-0.0214998833835124,0.5489609241485596,0.2211226522922516,-0.0344530791044235,0.5494039058685303,0.1470169425010681,-0.0441778786480426,0.5852750539779663,0.454348087310791,-0.0255358144640922,0.5650874376296997,0.3224477171897888,-0.0442417487502098,0.5573641657829285,0.2370820492506027,-0.0555320680141449,0.559184193611145,0.1662594377994537,-0.0636217817664146,0.5685817003250122,0.4701137244701385,-0.0466001704335212,0.5596863031387329,0.3710180521011352,-0.0629936605691909,0.556593656539917,0.3055242896080017,-0.0712900981307029,0.5589529275894165,0.2449826747179031,-0.0778833925724029
2023-08-01 15:51:47.512280,25,247,0.6733493804931641,0.2464474439620971,0.4509351253509521,0.5315276980400085,-0.39697265625,0.8291015625,-0.1845703125,0.5692403316497803,0.7179069519042969,5.59562103319422e-08,0.576852560043335,0.6110959649085999,0.0305476877838373,0.5789942145347595,0.508270800113678,0.0405874773859977,0.5750581622123718,0.4322189688682556,0.0412929989397525,0.5687371492385864,0.3785093128681183,0.0395602881908416,0.5961906909942627,0.4582709968090057,0.0240543410181999,0.5752654075622559,0.340923547744751,0.009837320074439,0.5648671388626099,0.2578587830066681,-0.0019834260456264,0.5581017136573792,0.1860244870185852,-0.0114516466856002,0.5926545262336731,0.4564489424228668,-0.0050021968781948,0.5714482665061951,0.3183677196502685,-0.0205362197011709,0.5621292591094971,0.2270936816930771,-0.0323770605027675,0.5570333003997803,0.1443443596363067,-0.0423466861248016,0.5749746561050415,0.4616385698318481,-0.0338979326188564,0.5632515549659729,0.3233969211578369,-0.0488892160356044,0.5560365915298462,0.233450174331665,-0.0612581707537174,0.5538845658302307,0.1557511091232299,-0.0715628489851951,0.5452277660369873,0.4694278240203857,-0.0607585534453392,0.5458296537399292,0.3695205450057983,-0.0760568231344223,0.5474866032600403,0.3004692792892456,-0.0862265452742576,0.5505739450454712,0.238440603017807,-0.0949569940567016
2023-08-01 15:51:47.568783,26,248,0.6472529768943787,0.2221407890319824,0.4933930337429046,0.5369174480438232,-0.2890625,0.85302734375,-0.3662109375,0.580420732498169,0.7083073258399963,8.199359768923389e-08,0.6010778546333313,0.6068985462188721,0.0322649925947189,0.5990079641342163,0.5061586499214172,0.0438715405762195,0.586963415145874,0.4323082566261291,0.0459293015301227,0.5714621543884277,0.3872498571872711,0.0445649288594722,0.5979179739952087,0.44797283411026,0.0266771763563156,0.5729652047157288,0.3393460512161255,0.0157367829233407,0.5561164617538452,0.2640847563743591,0.0056796832941472,0.5438789129257202,0.1982407569885254,-0.0029383697547018,0.5890012979507446,0.4468400776386261,-0.0031548207625746,0.5645216107368469,0.3132244050502777,-0.0167507361620664,0.5497611165046692,0.221574455499649,-0.0281092431396245,0.5385884046554565,0.1407852172851562,-0.0371876582503318,0.5659202337265015,0.4554319679737091,-0.0321809276938438,0.5507665276527405,0.319738507270813,-0.0457215718924999,0.542769730091095,0.2338031977415084,-0.0555069893598556,0.538655698299408,0.1597739160060882,-0.0633756145834922,0.5308763384819031,0.4713439643383026,-0.0587862767279148,0.5260347723960876,0.3671573400497436,-0.0730321630835533,0.5273016095161438,0.2999723553657532,-0.0796289667487144,0.5313987731933594,0.2403663843870163,-0.084953136742115
2023-08-01 15:51:47.633762,27,249,0.6237205862998962,0.2049208730459213,0.5296543836593628,0.5370720028877258,-0.318359375,0.94580078125,-0.3662109375,0.5881848931312561,0.688696026802063,2.6091274207828974e-07,0.6434187293052673,0.6082696914672852,0.0128790093585848,0.6598689556121826,0.5102946758270264,0.0177661199122667,0.650290846824646,0.425672173500061,0.0201091058552265,0.6443098187446594,0.3640549778938293,0.0202985685318708,0.6192431449890137,0.4262635111808777,-0.0055271424353122,0.5931154489517212,0.3137525618076324,-0.0156120061874389,0.5799045562744141,0.2495656758546829,-0.0207402966916561,0.5703414678573608,0.1977613568305969,-0.024090252816677,0.5773513913154602,0.4311600923538208,-0.0200053695589303,0.5530299544334412,0.2953941226005554,-0.0371581502258777,0.5413135290145874,0.2091543972492218,-0.0472231693565845,0.5340757966041565,0.1415608525276184,-0.052668310701847,0.5367366075515747,0.4513038098812103,-0.0321672521531581,0.520230770111084,0.3248817324638366,-0.0490116775035858,0.5165746808052063,0.2415138483047485,-0.0582717359066009,0.5170076489448547,0.1764399111270904,-0.0625902190804481,0.4973995685577392,0.4872967302799225,-0.0417589806020259,0.4848804473876953,0.3827298283576965,-0.056486789137125,0.4830231964588165,0.3218078017234802,-0.0599380061030387,0.4853508770465851,0.269212394952774,-0.0599618069827556
2023-08-01 15:51:47.694550,28,250,0.6183459758758545,0.1992378383874893,0.5406421422958374,0.5344704985618591,-0.21630859375,0.91259765625,-0.328125,0.5918113589286804,0.6960569620132446,2.398153640115197e-07,0.6480059623718262,0.6143351197242737,0.013988179154694,0.6642916798591614,0.5151206254959106,0.0200536251068115,0.653857409954071,0.4309257566928863,0.0235273968428373,0.6518032550811768,0.368208646774292,0.0245542228221893,0.6234167814254761,0.431767851114273,-0.0044330572709441,0.596667468547821,0.3176135420799255,-0.0151021843776106,0.5847305655479431,0.2520900070667267,-0.019865296781063,0.5759196877479553,0.200101613998413,-0.0225777346640825,0.5813608169555664,0.435973048210144,-0.0194105934351682,0.557218074798584,0.2996746003627777,-0.0356597229838371,0.5458282828330994,0.2139792144298553,-0.0438678711652755,0.5389405488967896,0.1459708511829376,-0.0478601604700088,0.5406981110572815,0.4570339918136596,-0.0323767364025116,0.5244458913803101,0.3292582631111145,-0.0489984080195426,0.5194268226623535,0.2458708137273788,-0.0574748702347278,0.5187469720840454,0.1789638698101043,-0.0613265931606292,0.50032639503479,0.49454066157341,-0.0427577048540115,0.4868673086166382,0.388819009065628,-0.0585181713104248,0.4848367571830749,0.3267967700958252,-0.0625255554914474,0.4868074059486389,0.2720077931880951,-0.0628209337592125
2023-08-01 15:51:47.755898,29,251,0.6170593500137329,0.1979627162218094,0.5439732670783997,0.5330493450164795,-0.13818359375,0.92138671875,-0.34521484375,0.5888723731040955,0.6969330310821533,2.8636972615458944e-07,0.6497308015823364,0.6191997528076172,0.0120836840942502,0.6685535907745361,0.5199779272079468,0.0161519348621368,0.6603944897651672,0.4333344399929046,0.0185502953827381,0.6654914021492004,0.3696438074111938,0.0188669804483652,0.6254997253417969,0.4356785714626312,-0.0119520910084247,0.6003454923629761,0.3139573931694031,-0.023426005616784,0.5888638496398926,0.2451903969049453,-0.0272308178246021,0.5797538757324219,0.1911046504974365,-0.0292399115860462,0.5813135504722595,0.4390350878238678,-0.025540854781866,0.5609290599822998,0.2972100377082824,-0.0423132181167602,0.551741361618042,0.2113464623689651,-0.0490611009299755,0.5460235476493835,0.1443604230880737,-0.0519523993134498,0.5402058959007263,0.4594629406929016,-0.0367204956710338,0.524910569190979,0.3294029533863067,-0.0524264201521873,0.5206708312034607,0.2463864833116531,-0.0591567754745483,0.5207943916320801,0.180260956287384,-0.0620966963469982,0.5012096166610718,0.4963551163673401,-0.0454551503062248,0.4891024827957153,0.3904576003551483,-0.0595314651727676,0.4879840612411499,0.3286739587783813,-0.0622914992272853,0.490877240896225,0.2744942307472229,-0.0618983022868633
2023-08-01 15:51:47.817044,30,252,0.615324079990387,0.1976345926523208,0.5461704730987549,0.5329304337501526,-0.228515625,0.91015625,-0.3251953125,0.5836570262908936,0.7171165347099304,2.777634335870971e-07,0.6512505412101746,0.6413557529449463,0.0145911592990159,0.6745765209197998,0.538545548915863,0.0197797752916812,0.6706060171127319,0.4465151131153106,0.0237947143614292,0.6844419240951538,0.3841720521450043,0.0253392197191715,0.633071780204773,0.4529021680355072,-0.0130418082699179,0.6155694723129272,0.3237484097480774,-0.021802881732583,0.6051720976829529,0.2533769011497497,-0.0232657212764024,0.596381664276123,0.2008970379829406,-0.023781968280673,0.5859697461128235,0.4541274309158325,-0.0263602323830127,0.5725252628326416,0.3038940131664276,-0.0404792465269565,0.5638297200202942,0.2149975895881652,-0.0457950718700885,0.5578095316886902,0.1475915312767028,-0.0479197464883327,0.5421535968780518,0.4733171463012695,-0.0364568121731281,0.5327295660972595,0.3332109153270721,-0.0502187795937061,0.5295450091362,0.2474466413259506,-0.0584338344633579,0.5295633673667908,0.181694895029068,-0.0628039985895156,0.5009622573852539,0.5094873905181885,-0.0434214770793914,0.4913325905799866,0.3992974758148193,-0.0567048117518425,0.4911178052425384,0.3358415961265564,-0.0608097985386848,0.4951409697532654,0.2811900675296783,-0.0616051442921161
2023-08-01 15:51:47.884048,31,253,0.6167672872543335,0.1998735070228576,0.5437264442443848,0.532926082611084,-0.26611328125,0.9033203125,-0.33837890625,0.5814526677131653,0.7274096608161926,2.584981473319204e-07,0.6507638096809387,0.6494531035423279,0.0166867207735776,0.6739946007728577,0.5446935892105103,0.0228058882057666,0.6712334156036377,0.4516194760799408,0.0270298086106777,0.6846582293510437,0.3873904943466186,0.0286817420274019,0.6339077353477478,0.4591868221759796,-0.0112089328467845,0.6142682433128357,0.3252012729644775,-0.0205323975533247,0.6040078401565552,0.2526660859584808,-0.0219860523939132,0.59560227394104,0.19808429479599,-0.0221690610051155,0.5857104659080505,0.4598001539707184,-0.0255922637879848,0.5710237622261047,0.3064189553260803,-0.0407990515232086,0.5625690817832947,0.2152840495109558,-0.0462024733424186,0.5573502779006958,0.1475214958190918,-0.047938123345375,0.5408124923706055,0.4784657955169678,-0.036723643541336,0.5302197933197021,0.3358025252819061,-0.0507111139595508,0.5267559885978699,0.2485163509845733,-0.0574869215488433,0.5265080332756042,0.182217001914978,-0.0605159811675548,0.4982820153236389,0.5147334337234497,-0.0446178019046783,0.4886697232723236,0.3979747891426086,-0.057405237108469,0.4875028133392334,0.3325141966342926,-0.0600194968283176,0.4894983768463135,0.2776306569576263,-0.0594931952655315
2023-08-01 15:51:47.941955,32,254,0.6211668252944946,0.205473780632019,0.5363990068435669,0.5331119894981384,-0.1943359375,0.9189453125,-0.34912109375,0.5822874307632446,0.7304680347442627,2.560308018928481e-07,0.6514964699745178,0.6492909789085388,0.0169952008873224,0.6745929718017578,0.5456762909889221,0.0225542653352022,0.6714077591896057,0.4523409903049469,0.0260556545108556,0.6880913972854614,0.3877621591091156,0.0266723800450563,0.6347413659095764,0.459402322769165,-0.0120033342391252,0.6141392588615417,0.3250195384025574,-0.0221568513661623,0.6022058129310608,0.2502178847789764,-0.0240763220936059,0.5920170545578003,0.1930930316448211,-0.0247620958834886,0.5862613320350647,0.4608655273914337,-0.0270938221365213,0.5715269446372986,0.3074222803115845,-0.0428932197391986,0.5624303221702576,0.2162954211235046,-0.048312596976757,0.5567814111709595,0.1481130421161651,-0.0501571781933307,0.5408257842063904,0.4810954332351684,-0.0388578735291957,0.5301195979118347,0.3371424674987793,-0.0532693266868591,0.5259156227111816,0.2497329860925674,-0.0591229870915412,0.5250657200813293,0.1829805076122284,-0.0616247206926345,0.4975461363792419,0.5195974111557007,-0.0474271178245544,0.4884492456912994,0.4034620523452759,-0.0610487945377826,0.4879765808582306,0.3369576930999756,-0.063462421298027,0.4908477663993835,0.2804514765739441,-0.0626785978674888
2023-08-01 15:51:48.002115,33,255,0.6354784369468689,0.2234294265508651,0.5135453343391418,0.5315239429473877,-0.39794921875,0.9326171875,-0.35546875,0.5835669636726379,0.732232928276062,2.5917924517671054e-07,0.651964545249939,0.6504483222961426,0.0176706109195947,0.6748701333999634,0.5457240343093872,0.0237666796892881,0.6722707748413086,0.4521574676036834,0.0277526676654815,0.6890407204627991,0.3875850141048431,0.0289797503501176,0.6345507502555847,0.457610547542572,-0.0111479796469211,0.6141729354858398,0.3222829103469848,-0.0211388748139143,0.6025877594947815,0.2469029128551483,-0.0227568242698907,0.5927767753601074,0.1898585855960846,-0.0230871848762035,0.5867276787757874,0.4594135582447052,-0.0262813512235879,0.5719844102859497,0.3053250312805176,-0.0418674051761627,0.5632147789001465,0.2146670520305633,-0.0468243211507797,0.5577439665794373,0.1470622420310974,-0.048268936574459,0.541488528251648,0.4796651005744934,-0.0380492955446243,0.5305111408233643,0.3357647359371185,-0.0519600473344326,0.5260610580444336,0.2489555478096008,-0.0570839494466781,0.5252695083618164,0.1829515695571899,-0.0590774193406105,0.4978693425655365,0.5182045102119446,-0.0466132014989852,0.4877412915229797,0.4031818211078644,-0.0598154328763484,0.4874175786972046,0.3372777104377746,-0.0618781261146068,0.4904691278934479,0.2813456952571869,-0.0608079545199871
2023-08-01 15:51:48.068922,34,256,0.6704466938972473,0.2641111016273498,0.4550225734710693,0.5231644511222839,-0.638671875,0.92138671875,-0.3408203125,0.5817903876304626,0.7283502817153931,2.579404849711864e-07,0.6512427926063538,0.6463342905044556,0.0210032928735017,0.6755757331848145,0.5441595911979675,0.0290151517838239,0.6739738583564758,0.4511452913284302,0.0348660685122013,0.686565101146698,0.3860886096954345,0.03811676800251,0.6351203918457031,0.4574591219425201,-0.0096788089722394,0.6171180009841919,0.3211416602134704,-0.0182981025427579,0.606422483921051,0.2483313381671905,-0.0185282155871391,0.5977580547332764,0.1938497424125671,-0.0176779981702566,0.5863088369369507,0.45891073346138,-0.0251124501228332,0.5733723640441895,0.3027655482292175,-0.0403005629777908,0.5659705400466919,0.212349385023117,-0.0446096882224082,0.5616046190261841,0.1448834538459777,-0.0454262234270572,0.5410698652267456,0.4785495400428772,-0.0366184338927269,0.5313721299171448,0.3335581421852112,-0.0500735975801944,0.5282213687896729,0.2467585057020187,-0.0552285388112068,0.5283569693565369,0.1813839077949524,-0.0571022592484951,0.4984384179115295,0.5161426067352295,-0.0444776713848114,0.4897225797176361,0.4020121693611145,-0.0567845441401004,0.4904332756996155,0.3371556401252746,-0.0585682317614555,0.4944851398468017,0.2823917865753174,-0.0572949089109897
2023-08-01 15:51:48.133071,35,257,0.721432089805603,0.3307230174541473,0.347792387008667,0.4991978406906128,-0.0029296875,0.9189453125,-0.31640625,0.5811670422554016,0.7255516648292542,2.563506882324873e-07,0.649453341960907,0.6456143260002136,0.0203387830406427,0.6747861504554749,0.5444731712341309,0.0273613911122083,0.673942506313324,0.4519941210746765,0.0319928377866745,0.6850552558898926,0.3857889175415039,0.0339655466377735,0.6368554830551147,0.4546137750148773,-0.0100113926455378,0.6177119612693787,0.3191128969192505,-0.0195587258785963,0.6073575019836426,0.2454312443733215,-0.0208138674497604,0.5990149974822998,0.1894255876541137,-0.020678199827671,0.5893497467041016,0.4551861882209778,-0.0259159412235021,0.5758761167526245,0.3006747663021087,-0.0408624000847339,0.5691472291946411,0.2102125883102417,-0.0454356223344802,0.565571129322052,0.1423705220222473,-0.0467682220041751,0.5441702604293823,0.4737922847270965,-0.0381112657487392,0.5340380668640137,0.3309228122234344,-0.0513338930904865,0.5316372513771057,0.2444666624069214,-0.0563897676765918,0.5329197645187378,0.1788262724876403,-0.0584632977843284,0.5003360509872437,0.510218620300293,-0.0468828976154327,0.4921920895576477,0.3967888057231903,-0.0588888302445411,0.4931661784648895,0.3328602313995361,-0.0602757483720779,0.4976617693901062,0.2790315151214599,-0.0588522627949714
2023-08-01 15:51:48.196441,36,258,0.758259117603302,0.3883138000965118,0.2344490736722946,0.4682831764221191,-0.00634765625,0.95849609375,0.04736328125,0.5799235701560974,0.723924994468689,2.494167290478799e-07,0.6450714468955994,0.6435005068778992,0.0181733332574367,0.6708249449729919,0.5435651540756226,0.0226067639887332,0.6715000867843628,0.4491491913795471,0.0242468640208244,0.6816354393959045,0.3803352117538452,0.0225601848214864,0.6380485892295837,0.4548903107643127,-0.0123548228293657,0.6176854968070984,0.3207681179046631,-0.02445656247437,0.6081184148788452,0.2473500072956085,-0.0279589928686618,0.6013236045837402,0.1901229918003082,-0.0294817276298999,0.5926967263221741,0.4552782475948334,-0.0296257901936769,0.5765227675437927,0.3023862242698669,-0.0461730435490608,0.5693560838699341,0.2115381360054016,-0.0525552295148372,0.5665788054466248,0.1425637900829315,-0.0555135942995548,0.5478725433349609,0.4743054807186126,-0.0436421185731887,0.5359551906585693,0.3323339819908142,-0.0591771081089973,0.5345207452774048,0.2447829842567443,-0.0653690099716186,0.5380827784538269,0.176516056060791,-0.0683308020234108,0.5024194121360779,0.5110552906990051,-0.0545132681727409,0.4935256838798523,0.3973098993301391,-0.0689227432012558,0.4956418573856354,0.3331754207611084,-0.0710337981581687,0.501911461353302,0.2769396901130676,-0.0701832249760627
2023-08-01 15:51:48.254196,37,259,0.7833287715911865,0.4405856430530548,0.1004214212298393,0.42684406042099,-0.1796875,0.9638671875,-0.0634765625,0.570476770401001,0.7065584659576416,1.273127452350309e-07,0.6197866201400757,0.6139795184135437,0.0281208995729684,0.6353606581687927,0.5166441798210144,0.0369958132505416,0.6312709450721741,0.4372590482234955,0.0397387742996215,0.619535505771637,0.379744678735733,0.03882597386837,0.6282244920730591,0.4462513327598572,0.004650343209505,0.6018648743629456,0.3256811797618866,-0.00542624713853,0.5839097499847412,0.2533038258552551,-0.0105678802356123,0.569575846195221,0.194498986005783,-0.0145284030586481,0.5989357233047485,0.4443857073783874,-0.0193659849464893,0.5793230533599854,0.297234833240509,-0.0313107036054134,0.5681719183921814,0.208012968301773,-0.0373222976922988,0.561214804649353,0.1370114088058471,-0.0420990772545337,0.5601474642753601,0.4565306305885315,-0.040837362408638,0.5499242544174194,0.3153778612613678,-0.0532779991626739,0.5476467609405518,0.2306289374828338,-0.060358352959156,0.5492526888847351,0.1646808385848999,-0.0659944117069244,0.5141546130180359,0.479280412197113,-0.0590446665883064,0.5121394395828247,0.3693925738334656,-0.0735620558261871,0.5146266222000122,0.304755687713623,-0.0782231539487838,0.5196892619132996,0.2483099848031997,-0.0809441059827804
2023-08-01 15:51:48.320238,38,260,0.7944608926773071,0.4749990701675415,-0.0134773505851626,0.3781878650188446,-0.27099609375,0.94287109375,0.10693359375,0.5627341270446777,0.7103464007377625,7.333630946959603e-08,0.5948501229286194,0.6200239658355713,0.0241895914077758,0.6062402725219727,0.5161946415901184,0.0328340381383895,0.6028758883476257,0.4470587372779846,0.0333707369863987,0.5950371026992798,0.4030797183513641,0.0315100811421871,0.6092925071716309,0.4473918378353119,0.0218923650681972,0.5884228348731995,0.3413217663764953,0.0105278575792908,0.5751230120658875,0.270246684551239,-0.0006928141228854,0.5639485120773315,0.2077313959598541,-0.0100345946848392,0.5963703393936157,0.4427207708358764,-0.0041083213873207,0.5807463526725769,0.3141232430934906,-0.0167312491685152,0.5723933577537537,0.2237101793289184,-0.0283873341977596,0.5657644867897034,0.1420906782150268,-0.0379783324897289,0.5691882967948914,0.4486928582191467,-0.0300194658339023,0.5616573691368103,0.3207080066204071,-0.0419589504599571,0.5585088133811951,0.2364018857479095,-0.0520204864442348,0.557848334312439,0.1620307564735412,-0.0605014413595199,0.5301792621612549,0.4602787494659424,-0.0544975027441978,0.5279497504234314,0.3612392842769623,-0.0659589022397995,0.5294988751411438,0.2956194281578064,-0.0715367719531059,0.5339998006820679,0.2366630434989929,-0.0766222029924392
2023-08-01 15:51:48.378814,39,261,0.7942019701004028,0.5006329417228699,-0.1183711737394332,0.3234164118766784,0.0966796875,0.87353515625,0.2421875,0.5625801086425781,0.7064831256866455,1.0705787190090633e-07,0.581474244594574,0.6045387387275696,0.030153352767229,0.5869110226631165,0.5118237137794495,0.0380162894725799,0.5799010992050171,0.4424144327640533,0.0365986861288547,0.5695487260818481,0.3934149742126465,0.0323325134813785,0.5994735360145569,0.4501959681510925,0.0238575171679258,0.5814836025238037,0.3388513326644897,0.0104278624057769,0.5691503882408142,0.2618100643157959,-0.0012454842217266,0.5616854429244995,0.1954115927219391,-0.0104724904522299,0.5943226218223572,0.4460974633693695,-0.0051766973920166,0.5789287090301514,0.3105299472808838,-0.019846661016345,0.5711027979850769,0.2210693061351776,-0.0313365496695041,0.5677459239959717,0.1438890099525451,-0.0403377525508403,0.573006808757782,0.4507623016834259,-0.0336675755679607,0.5662798285484314,0.3133582174777984,-0.0463111475110054,0.5622332096099854,0.2262851595878601,-0.0556547604501247,0.5633729100227356,0.1522681713104248,-0.0636102184653282,0.5391337275505066,0.4616473913192749,-0.0601226091384887,0.5414552092552185,0.3586775064468384,-0.0720040574669838,0.5455630421638489,0.2934355139732361,-0.0775224491953849,0.5516078472137451,0.2352496236562729,-0.0823883414268493
2023-08-01 15:51:48.447045,40,262,0.788637101650238,0.5109606981277466,-0.186614915728569,0.2866105139255523,-0.24169921875,0.9140625,0.2001953125,0.5225874781608582,0.6988529562950134,1.9962060093803305e-07,0.4749882519245147,0.61920166015625,0.0098657542839646,0.476284384727478,0.5134615898132324,0.0162802953273057,0.4926967918872833,0.4427556991577148,0.0157723277807235,0.4994542598724365,0.3820544481277466,0.0149345509707927,0.5151784420013428,0.4120742082595825,0.0328204147517681,0.5179433822631836,0.3087726831436157,0.0252687856554985,0.5160634517669678,0.2408647537231445,0.0145731698721647,0.5168558359146118,0.1821282505989074,0.0050124675035476,0.5360003709793091,0.408897191286087,0.0119107495993375,0.5378778576850891,0.2933073937892914,0.002173856832087,0.5400187969207764,0.2148551344871521,-0.0099949417635798,0.5435095429420471,0.1499148309230804,-0.0190983545035123,0.5511475801467896,0.4222429990768432,-0.0123210232704877,0.5566112399101257,0.306797981262207,-0.0234079137444496,0.5619602799415588,0.2340672612190246,-0.0312796980142593,0.5677433609962463,0.1737494468688964,-0.0377566292881965,0.5607924461364746,0.4472366273403168,-0.0376670472323894,0.5640345811843872,0.3542731702327728,-0.0472258403897285,0.5680128931999207,0.2939904928207397,-0.0503853149712085,0.5725129246711731,0.242213636636734,-0.0535423420369625
2023-08-01 15:51:48.514093,41,263,0.7710959315299988,0.5212898254394531,-0.2855607569217682,0.2283048331737518,0.01123046875,0.89990234375,0.26904296875,0.5246084332466125,0.6944067478179932,1.6728058938042525e-07,0.4664711654186249,0.6109101176261902,0.0116143124178051,0.4644186496734619,0.5014969706535339,0.0223362892866134,0.478734016418457,0.4276631772518158,0.0258065853267908,0.4831904768943786,0.3717468976974487,0.0293123479932546,0.5013377070426941,0.4025658071041107,0.0436926186084747,0.501937210559845,0.3046575784683227,0.0404051356017589,0.4995474815368652,0.243085041642189,0.0312422569841146,0.4997943937778473,0.1876318156719207,0.0222136210650205,0.5261351466178894,0.3956615030765533,0.0238898079842329,0.5281343460083008,0.2820038497447967,0.0185867212712764,0.527821958065033,0.2058256715536117,0.007077476941049,0.5281781554222107,0.1396704316139221,-0.0020111687481403,0.5476812720298767,0.4079484939575195,0.0004390948452055,0.5552396178245544,0.2930779457092285,-0.0069613414816558,0.5589882731437683,0.2222913652658462,-0.0155627029016613,0.5622311234474182,0.1620979607105255,-0.0228933412581682,0.5658738017082214,0.4324756562709808,-0.0242560096085071,0.5726843476295471,0.3429988622665405,-0.0309610310941934,0.5787548422813416,0.2828484177589416,-0.0343867801129817,0.585289478302002,0.2298292964696884,-0.0382046960294246
2023-08-01 15:51:48.571186,42,264,0.7552613019943237,0.5213060975074768,-0.3518974781036377,0.1843595057725906,0.04541015625,0.9033203125,0.35302734375,0.5187317728996277,0.6965994238853455,2.020134957092523e-07,0.4603528976440429,0.6191576719284058,0.003016905626282,0.4517040848731994,0.5104620456695557,0.0091370362788438,0.4650514125823974,0.4330108165740967,0.009058172814548,0.4680662453174591,0.3743923604488373,0.0090890061110258,0.4905654788017273,0.404312252998352,0.0364394560456275,0.489647626876831,0.3059932887554168,0.0293102506548166,0.4878213405609131,0.2440970242023468,0.0164463948458433,0.4889481365680694,0.1872488856315612,0.0050288247875869,0.5171910524368286,0.3953127562999725,0.0197785627096891,0.5182198286056519,0.2833865880966186,0.013432627543807,0.5182622075080872,0.2076353430747985,0.0003296005015727,0.5194777846336365,0.1409054100513458,-0.0104632163420319,0.5410417318344116,0.4061927497386932,-0.001471767318435,0.5488871932029724,0.2941079139709472,-0.0094560449942946,0.55392986536026,0.2263669669628143,-0.0185437053442001,0.5572074055671692,0.1676143109798431,-0.0266804993152618,0.5620175004005432,0.4309768080711365,-0.0249927695840597,0.5696315169334412,0.3449302315711975,-0.0326462090015411,0.5753301382064819,0.2861057817935943,-0.0368680171668529,0.5800355672836304,0.2326910197734832,-0.041400272399187
2023-08-01 15:51:48.625212,43,265,0.7513598799705505,0.5152804255485535,-0.3758443892002105,0.1693671941757202,0.0654296875,0.8828125,0.541015625,0.5106428265571594,0.6944575309753418,2.1246883363801322e-07,0.4517335891723633,0.621464192867279,-0.0011421499075368,0.438507616519928,0.5134307742118835,0.0039750421419739,0.4495012760162353,0.4328900277614593,0.0036518317647278,0.4494248628616333,0.3742994368076324,0.0036255333106964,0.4782538414001465,0.4017421305179596,0.0364547409117221,0.477360337972641,0.3061065971851349,0.0297531429678201,0.4772141873836517,0.2459818422794342,0.0158031936734914,0.4800526201725006,0.1902722716331482,0.003183543914929,0.5087925791740417,0.3913879990577698,0.0219059772789478,0.5085713267326355,0.2805641889572143,0.0165236592292785,0.5090208053588867,0.2073136866092682,0.0014459488447755,0.5098526477813721,0.1411743760108947,-0.0114029282703995,0.5358723402023315,0.4018844366073608,0.0024366162251681,0.5414775609970093,0.2940843105316162,-0.0054964730516076,0.5454184412956238,0.2269424647092819,-0.0170399490743875,0.5470914244651794,0.1674394309520721,-0.0272484607994556,0.561090350151062,0.4275180697441101,-0.0195111371576786,0.567073404788971,0.3421426713466644,-0.0275774393230676,0.5711336731910706,0.2847472429275512,-0.0328310318291187,0.5735132098197937,0.2314063906669616,-0.0383179113268852
2023-08-01 15:51:48.688180,44,266,0.7497592568397522,0.5118550658226013,-0.3866512179374695,0.1623772531747818,0.1591796875,0.8837890625,0.55322265625,0.5010549426078796,0.7036386728286743,1.4913287316176138e-07,0.4313395023345947,0.6439604759216309,-0.0083501581102609,0.3998668193817138,0.5334611535072327,-0.0003697382926475,0.4023407995700836,0.4462876617908478,0.0043960204347968,0.39200359582901,0.3858507573604584,0.0106851309537887,0.4361671507358551,0.4171566069126129,0.0376525111496448,0.4285420477390289,0.324638307094574,0.0327931158244609,0.4291026592254638,0.2672502994537353,0.0189133454114198,0.4327341318130493,0.2124442160129547,0.0061662839725613,0.4752951860427856,0.4025713503360748,0.0289554893970489,0.4672968983650207,0.2951418459415436,0.0276578161865472,0.4656786918640136,0.2275813221931457,0.0159219317138195,0.4654719531536102,0.1651455163955688,0.0048921857960522,0.5104707479476929,0.4103648364543915,0.0140301464125514,0.5090019106864929,0.3082587718963623,0.009574195370078,0.5071446895599365,0.2496125698089599,0.0032798799220472,0.5055115818977356,0.19715416431427,-0.0037993020378053,0.5499777793884277,0.4342889487743377,-0.0044298814609646,0.5507398247718811,0.3533024489879608,-0.0091505637392401,0.55021071434021,0.3025654554367065,-0.0102946488186717,0.5496996641159058,0.2531495690345764,-0.0131325675174593
2023-08-01 15:51:48.752536,45,267,0.7498393654823303,0.5105705857276917,-0.3898396790027618,0.1583783477544784,0.1396484375,0.88525390625,0.48828125,0.4960479438304901,0.710193395614624,2.028908312468048e-07,0.4283243417739868,0.6516172289848328,-0.0097380699589848,0.3959782719612121,0.5438973307609558,-0.0029327142983675,0.3945769667625427,0.4558749496936798,0.0014673322439193,0.3779189586639404,0.3978959619998932,0.007436045911163,0.4354221522808075,0.4190369844436645,0.0341556333005428,0.4263946115970611,0.3294300138950348,0.028261924162507,0.4255333542823791,0.2731051445007324,0.013588760048151,0.4270097911357879,0.2192723155021667,0.0010360773885622,0.4745115041732788,0.4051797986030578,0.0268259160220623,0.4668983817100525,0.2999440431594848,0.0262673795223236,0.4634914696216583,0.2336735278367996,0.0150521080940961,0.4597796499729156,0.1721516549587249,0.005014359485358,0.5094727277755737,0.4140743315219879,0.0135939167812466,0.5069856643676758,0.3152723312377929,0.010861218906939,0.5054193735122681,0.2593246102333069,0.0065109035931527,0.5024319291114807,0.2080873250961303,0.0012506294297054,0.54684978723526,0.4394847154617309,-0.0033604311756789,0.5446954369544983,0.3595088720321655,-0.0055962889455258,0.5430968999862671,0.3128881752490997,-0.0039649219252169,0.5407522916793823,0.2672957479953766,-0.0041587315499782
2023-08-01 15:51:48.812848,46,268,0.7499082684516907,0.5095804333686829,-0.3918765187263489,0.1561984866857528,0.09228515625,0.90478515625,0.390625,0.4935658276081085,0.7093392014503479,1.9735414014121488e-07,0.4252468049526214,0.6527379155158997,-0.0099354870617389,0.391630470752716,0.5466741323471069,-0.0030415027868002,0.3905632495880127,0.4569301605224609,0.0013941305223852,0.3738376498222351,0.3995459675788879,0.0074566854164004,0.4290096759796142,0.4234271049499511,0.0351732484996318,0.4196605682373047,0.3337708711624145,0.0295682456344366,0.4188543856143951,0.278261661529541,0.0152007099241018,0.4200775921344757,0.2257070690393448,0.0029655969701707,0.4692547023296356,0.4077776074409485,0.0281533878296613,0.4623762667179107,0.3011503219604492,0.0280779264867305,0.4593195617198944,0.2354387640953064,0.0170768238604068,0.4555134177207947,0.1748691797256469,0.0071332273073494,0.5045722126960754,0.4147112965583801,0.0151124456897377,0.5020330548286438,0.3167543411254883,0.0128272920846939,0.5000398755073547,0.2596188187599182,0.0082308053970336,0.4971156716346741,0.2089713215827942,0.0027199101168662,0.5426816344261169,0.438144326210022,-0.0016782447928562,0.5407420992851257,0.3587469458580017,-0.0030612014234066,0.5390383005142212,0.3123010098934173,-0.0011672858381643,0.5368054509162903,0.2681701183319092,-0.001350134727545
2023-08-01 15:51:48.873137,47,269,0.750300943851471,0.5078580975532532,-0.3942118287086487,0.1540314108133316,0.0849609375,0.88134765625,0.43505859375,0.4945812225341797,0.7168285846710205,2.13841587992647e-07,0.4253401756286621,0.6613790392875671,-0.0117784664034843,0.3912831544876098,0.5540663003921509,-0.0045550526119768,0.3891995251178741,0.4633090198040008,0.0009529331000521,0.3684216737747192,0.4059785306453705,0.0085748275741934,0.4282698333263397,0.429679274559021,0.035250574350357,0.4183517396450043,0.3378143608570099,0.0305582676082849,0.4164187014102936,0.2821259200572967,0.0164330527186393,0.4170528352260589,0.2290560752153396,0.0048804301768541,0.4682160317897796,0.4159354567527771,0.0305470209568738,0.4597804844379425,0.3091133236885071,0.0335647314786911,0.4567079842090606,0.2435347139835357,0.0248235072940588,0.4535285234451294,0.1847060918807983,0.0166139304637908,0.5031678080558777,0.4244976937770843,0.0196709670126438,0.5007959008216858,0.3277894854545593,0.0208626091480255,0.5000568628311157,0.2734346985816955,0.0201658774167299,0.4991970658302307,0.2268472611904144,0.0175025910139083,0.5414565801620483,0.448461502790451,0.0046169208362698,0.5387541651725769,0.370812177658081,0.0067749479785561,0.5369295477867126,0.3269160389900207,0.0122534651309251,0.5356395244598389,0.2853382229804992,0.0150862876325845
2023-08-01 15:51:48.931144,48,270,0.7512603998184204,0.506965696811676,-0.3935303092002868,0.1540377736091613,0.0849609375,0.88671875,0.46826171875,0.4946265518665313,0.7210921049118042,2.46581322471684e-07,0.4260755777359009,0.6657788157463074,-0.0130743058398365,0.3919779658317566,0.5591946840286255,-0.0081594586372375,0.389270544052124,0.4683485031127929,-0.0048665972426533,0.3689291477203369,0.4093750715255737,0.0005436580395326,0.4279480278491974,0.4322080016136169,0.031699851155281,0.418032169342041,0.3385523557662964,0.025569699704647,0.4162143468856811,0.2804083824157715,0.0109454374760389,0.4170906543731689,0.2259351313114166,-0.0010921873617917,0.4675954580307007,0.4180035889148712,0.0266499500721693,0.4589979648590088,0.3100770711898803,0.0272146798670291,0.4556703865528106,0.2429343163967132,0.0169791728258132,0.4520218670368194,0.1822547614574432,0.0077259880490601,0.5028731226921082,0.4262955784797668,0.0155012812465429,0.4999966919422149,0.3272309303283691,0.0145405801013112,0.4980852603912353,0.2710590958595276,0.0116997733712196,0.4951859414577484,0.2222668230533599,0.0075183697044849,0.5412778258323669,0.4503772258758545,0.0002578382554929,0.5390116572380066,0.3715181052684784,0.0002305731322849,0.5362679958343506,0.3255716562271118,0.0034272277262061,0.5328892469406128,0.2823312282562256,0.0045358911156654
2023-08-01 15:51:48.996195,49,271,0.752056896686554,0.5069081783294678,-0.3919403851032257,0.1543933302164077,0.0830078125,0.8916015625,0.4970703125,0.4954252541065216,0.7223617434501648,2.517986672501138e-07,0.4279470145702362,0.6672559380531311,-0.0134573243558406,0.3929444253444671,0.5597625970840454,-0.0086118718609213,0.3888930082321167,0.4674572646617889,-0.0054051983170211,0.3671732246875763,0.4108101725578308,1.310668267251458e-05,0.4273299276828766,0.433047890663147,0.0317888334393501,0.4169590473175049,0.3385965228080749,0.0256268046796321,0.4150671362876892,0.2807725369930267,0.0110566951334476,0.4159114360809326,0.2264799177646637,-0.0008082201238721,0.4666535258293152,0.41832035779953,0.0271507669240236,0.4575457274913788,0.309979498386383,0.0282371323555707,0.4538730680942535,0.2433022260665893,0.0187271907925605,0.4496815502643585,0.1832065880298614,0.0101304957643151,0.5022920370101929,0.4259101152420044,0.0163536425679922,0.4990147054195404,0.3269230127334595,0.0161848720163106,0.4974220395088196,0.2709339559078216,0.014526855200529,0.4948503673076629,0.2232157588005066,0.0113115031272172,0.5411342978477478,0.448911190032959,0.0013008832465857,0.538206160068512,0.370201051235199,0.0024250329006463,0.5351545810699463,0.3249078392982483,0.0068181832320988,0.5317701697349548,0.2832153439521789,0.0088973538950085
