Timestamp,Index,Frame ID,w,x,y,z,ax,ay,az,x_0,y_0,z_0,x_1,y_1,z_1,x_2,y_2,z_2,x_3,y_3,z_3,x_4,y_4,z_4,x_5,y_5,z_5,x_6,y_6,z_6,x_7,y_7,z_7,x_8,y_8,z_8,x_9,y_9,z_9,x_10,y_10,z_10,x_11,y_11,z_11,x_12,y_12,z_12,x_13,y_13,z_13,x_14,y_14,z_14,x_15,y_15,z_15,x_16,y_16,z_16,x_17,y_17,z_17,x_18,y_18,z_18,x_19,y_19,z_19,x_20,y_20,z_20
2023-08-01 15:52:08.086017,0,603,0.7971604466438293,0.4782097339630127,-0.1821962147951126,0.3203986287117004,-0.12255859375,0.947265625,0.25244140625,0.4966422617435455,0.6493625640869141,2.341704572472736e-07,0.4321569800376892,0.5922461152076721,-0.0123720038682222,0.4013929665088653,0.4851573705673218,-0.0067377081140875,0.400919109582901,0.395690381526947,-0.0031147850677371,0.38201904296875,0.3365842700004577,0.0023895862977951,0.4279285073280334,0.38072669506073,0.0321050584316253,0.4140423834323883,0.2912757992744446,0.0245622042566537,0.4116244912147522,0.2356268465518951,0.009447006508708,0.4117873311042785,0.1829649209976196,-0.0030846111476421,0.4640980958938598,0.3645254671573639,0.0266975443810224,0.4521329700946808,0.2618403732776642,0.0239620972424745,0.4474655985832214,0.1968428939580917,0.0105538507923483,0.4423520863056183,0.1360201239585876,-0.0008891146280802,0.4970495104789734,0.3702764213085174,0.015180854126811,0.4914237856864929,0.2736611664295196,0.0104628531262278,0.4887978434562683,0.2162512689828872,0.0033168515656143,0.4853354692459106,0.1661328971385955,-0.0036158412694931,0.5345060229301453,0.3902953267097473,-1.150681509898277e-05,0.5314149260520935,0.3141900300979614,-0.0030255611054599,0.5289126634597778,0.2679304480552673,-0.0032825549133121,0.5250747799873352,0.2243403941392898,-0.0050337514840066
2023-08-01 15:52:08.144480,1,604,0.8058703541755676,0.4409814774990082,-0.0475591830909252,0.3922326266765594,0.0595703125,0.92333984375,0.21240234375,0.4882723093032837,0.6433954238891602,2.430332983749395e-07,0.429176390171051,0.5797597169876099,-0.0080702751874923,0.4068995416164398,0.4730393886566162,-0.0041019176132977,0.4103264808654785,0.3874425590038299,-0.003539475845173,0.4000254571437835,0.3209170699119568,-0.0020975808147341,0.4339584708213806,0.3725139498710632,0.028902119025588,0.4248793125152588,0.2831472158432007,0.0199302192777395,0.4210709035396576,0.226286232471466,0.0050411261618137,0.4210138320922851,0.1714622378349304,-0.0078680794686079,0.4653239846229553,0.3569023609161377,0.0192771311849355,0.4564301371574402,0.2529488205909729,0.012446416541934,0.452217698097229,0.1834247857332229,-0.00361357210204,0.448682963848114,0.118062138557434,-0.0170005653053522,0.4956104457378387,0.364141434431076,0.0043621035292744,0.4944474101066589,0.2625309228897095,-0.0056253932416439,0.494841992855072,0.2014626115560531,-0.0181559566408395,0.4920010864734649,0.146237313747406,-0.0285409670323133,0.5273861885070801,0.3863958120346069,-0.0132678039371967,0.529496967792511,0.3066878318786621,-0.0231639444828033,0.5299188494682312,0.2556343674659729,-0.0294821821153163,0.5275086164474487,0.2066841870546341,-0.0353596173226833
2023-08-01 15:52:08.191908,2,605,0.8001871705055237,0.3986041843891144,0.0646445602178573,0.443436861038208,-0.142578125,0.9462890625,0.109375,0.487247884273529,0.6378394961357117,1.8190155515185324e-07,0.4307841062545776,0.571424126625061,-0.0026272509712725,0.4139609038829803,0.4625917375087738,0.0023986480664461,0.4208463728427887,0.3815824389457702,0.0027062692679464,0.4171699285507202,0.3186185359954834,0.0033985916525125,0.4426947832107544,0.364867091178894,0.03109728731215,0.435015469789505,0.2752999663352966,0.022602317854762,0.4295449554920196,0.2185887396335601,0.0086973486468195,0.4275481104850769,0.1649401187896728,-0.0036152163520455,0.4702972769737243,0.3521192669868469,0.0180407762527465,0.4639832079410553,0.247936725616455,0.0110480915755033,0.4595465958118438,0.1783307343721389,-0.0038976550567895,0.4560811519622803,0.1140809059143066,-0.0164567455649375,0.4969356656074524,0.3611285984516144,0.0001199987746076,0.4986163675785064,0.2580882310867309,-0.0094182034954428,0.4997483491897583,0.1957714855670929,-0.0213248860090971,0.4979322552680969,0.1402317285537719,-0.0315237827599048,0.5238569378852844,0.3843060135841369,-0.0201513674110174,0.5283281207084656,0.3030153512954712,-0.0296113640069961,0.5294236540794373,0.2497163265943527,-0.0358433462679386,0.5274600386619568,0.1999793350696563,-0.0419227294623851
2023-08-01 15:52:08.252179,3,606,0.7697669863700867,0.3196441233158111,0.2264554649591446,0.5039884448051453,-0.28662109375,0.935546875,0.0048828125,0.4929770827293396,0.6358996629714966,1.4504311707241868e-07,0.4365301728248596,0.554275393486023,0.0089174546301364,0.4287353157997131,0.4459984302520752,0.0179680287837982,0.4364646673202514,0.3718447685241699,0.0198452062904834,0.4353358745574951,0.3145986199378967,0.0213554818183183,0.4551710486412048,0.3624479472637176,0.0400740727782249,0.4471687972545624,0.2711029052734375,0.0340280272066593,0.4401207268238067,0.2131268382072448,0.0227708425372838,0.4364506006240845,0.1589262634515762,0.0124837066978216,0.478449136018753,0.3513625264167785,0.0209264531731605,0.4736055433750152,0.2449254691600799,0.0154461907222867,0.4686159193515777,0.172898530960083,0.002535821404308,0.4646514654159546,0.1091012060642242,-0.0081758601590991,0.5006904602050781,0.3607272207736969,-0.0021830270998179,0.5035231709480286,0.2537117600440979,-0.0096710538491606,0.5044957995414734,0.187626227736473,-0.0199927054345607,0.5045790672302246,0.130504161119461,-0.0290864128619432,0.5205273032188416,0.3832534253597259,-0.0267518255859613,0.5227864384651184,0.2985856533050537,-0.0340864956378936,0.5242952108383179,0.2424101680517196,-0.0385973118245601,0.5252108573913574,0.1924536973237991,-0.0435506477952003
2023-08-01 15:52:08.297112,4,607,0.7514574527740479,0.2868224680423736,0.28794726729393,0.5197412967681885,-0.11865234375,0.89892578125,-0.09326171875,0.4938758909702301,0.6299313306808472,1.7164407495329217e-07,0.4434828162193298,0.5353241562843323,0.0130339199677109,0.442045509815216,0.4330059885978699,0.0204563047736883,0.4521876573562622,0.3658787608146667,0.0200424008071422,0.4522708058357239,0.3121522068977356,0.0191287100315094,0.4651523530483246,0.3579563796520233,0.0383295156061649,0.4584531188011169,0.2620785534381866,0.0290509164333343,0.451340913772583,0.2009786963462829,0.0169756934046745,0.4472281634807586,0.1458736956119537,0.0068328608758747,0.4863366782665252,0.3519962131977081,0.0167316533625125,0.4816769659519195,0.2432168424129486,0.0064864140003919,0.4791815280914306,0.1704172939062118,-0.0064717577770352,0.4780193269252777,0.1076386272907257,-0.0159136615693569,0.5055868625640869,0.3640800714492798,-0.0081823719665408,0.5052238702774048,0.2542120218276977,-0.0191143546253442,0.5072662234306335,0.1882892251014709,-0.0257058795541524,0.5095279216766357,0.1313273906707763,-0.030853247269988,0.5220112204551697,0.3897529244422912,-0.0340732410550117,0.5193948149681091,0.305887907743454,-0.0420448035001754,0.5195692181587219,0.2504655718803406,-0.0429105758666992,0.5200526714324951,0.2019380331039428,-0.0444869138300418
2023-08-01 15:52:08.344843,5,608,0.7289566397666931,0.2495844215154647,0.3491474390029907,0.5333159565925598,-0.28125,0.91552734375,-0.1025390625,0.510708212852478,0.6279668807983398,2.464136343860446e-07,0.4535589516162872,0.5355943441390991,0.0009788443567231,0.4541246891021728,0.4464702904224396,-0.0033717532642185,0.4656231999397278,0.3824034631252289,-0.011684819124639,0.4661225378513336,0.3287449181079864,-0.0207908544689416,0.5046347379684448,0.3671720623970032,0.0010039861081168,0.4839289784431457,0.2632256150245666,-0.0183265507221221,0.4718109965324402,0.1943407505750656,-0.0348199941217899,0.4656797647476196,0.1347385346889495,-0.0461680479347705,0.5208441019058228,0.3713261485099792,-0.0136977108195424,0.4959693551063537,0.2540005445480346,-0.0325082466006279,0.4869219958782196,0.1743701547384262,-0.0490103848278522,0.483410120010376,0.1062877178192138,-0.0608520582318306,0.5271329879760742,0.3894104957580566,-0.0300246458500623,0.5060186386108398,0.2834416031837463,-0.0469794161617755,0.4991119503974914,0.2109302282333374,-0.05889742821455,0.4973075985908508,0.1514247357845306,-0.0673371329903602,0.5220816135406494,0.4170861542224884,-0.0472072884440422,0.5082162022590637,0.3418037891387939,-0.0583772584795951,0.4999954402446747,0.2884833514690399,-0.0634794309735298,0.4941174983978271,0.2430514395236969,-0.0678201168775558
2023-08-01 15:52:08.403810,6,609,0.7041603922843933,0.2148782312870025,0.4049471616744995,0.5422206521034241,-0.28369140625,0.91943359375,-0.19482421875,0.5318863391876221,0.6143292188644409,-7.776035459983177e-08,0.5459924340248108,0.5123434662818909,0.0386901423335075,0.5433390736579895,0.4309695363044739,0.0496554598212242,0.527896523475647,0.3716465532779693,0.0501590929925441,0.5072934627532959,0.3319048285484314,0.0470622926950454,0.5539272427558899,0.378868043422699,0.0279043540358543,0.51317298412323,0.2802959978580475,0.0183984991163015,0.4830880761146545,0.22450852394104,0.010561984963715,0.4628857672214508,0.1781636923551559,0.0043946951627731,0.5429901480674744,0.3763638436794281,-0.0034367514308542,0.5048776865005493,0.2476869523525238,-0.0138896778225898,0.4813170731067657,0.1679971516132354,-0.0205423068255186,0.4642365574836731,0.1016315817832946,-0.0266431551426649,0.5182106494903564,0.3850548267364502,-0.0333496779203414,0.4925272762775421,0.2530855238437652,-0.0423927754163742,0.4748493134975433,0.1774094402790069,-0.0477512367069721,0.4643703401088714,0.1127838194370269,-0.0534703060984611,0.4842877388000488,0.4014644920825958,-0.0602192282676696,0.4714159667491913,0.3020582199096679,-0.0696642100811004,0.4651487171649933,0.2400343120098114,-0.072463572025299,0.461290031671524,0.1845852434635162,-0.0756860971450805
2023-08-01 15:52:08.465109,7,610,0.683559775352478,0.1907294690608978,0.4440272748470306,0.5469991564750671,-0.11865234375,0.9375,-0.041015625,0.5355919599533081,0.5962032079696655,3.3407420829689733e-08,0.5742814540863037,0.5047817230224609,0.0251919049769639,0.5790320634841919,0.4093614518642425,0.0328675545752048,0.5674018263816833,0.3287623226642608,0.0357691124081611,0.5480573177337646,0.2737084925174713,0.0352427288889884,0.5659418702125549,0.3515248000621795,0.0033061006106436,0.5256207585334778,0.2506566345691681,-0.0039361105300486,0.4975911676883697,0.1999085545539856,-0.0086672939360141,0.4760382771492004,0.1625347882509231,-0.0120134633034467,0.5313695669174194,0.357680082321167,-0.0158118512481451,0.4887736737728119,0.2339289784431457,-0.0240172799676656,0.4660185277462005,0.1592551916837692,-0.0292256623506546,0.4499577283859253,0.1012642383575439,-0.0337367877364158,0.4921959638595581,0.3755744397640228,-0.0320982821285724,0.4608405232429504,0.258434534072876,-0.0401338525116443,0.4481964111328125,0.1842108517885208,-0.0459181256592273,0.4408875703811645,0.12402805685997,-0.0510231256484985,0.4527110159397125,0.40601846575737,-0.0451197251677513,0.432153970003128,0.3120932579040527,-0.0536708123981952,0.4231599569320678,0.2572200298309326,-0.0551431477069854,0.4168837070465088,0.2074902951717376,-0.0559557862579822
2023-08-01 15:52:08.513289,8,611,0.6691251993179321,0.1767523437738418,0.4687609672546386,0.5489019155502319,-0.26318359375,0.97998046875,-0.17138671875,0.5339386463165283,0.5902183055877686,7.35646139560231e-08,0.5786541700363159,0.5060725212097168,0.0193665418773889,0.5861250758171082,0.4114977717399597,0.0258299149572849,0.5756990313529968,0.3285576105117798,0.028713384643197,0.5591655969619751,0.2683997750282287,0.0286994520574808,0.56444251537323,0.3521023690700531,-0.0007171101751737,0.5238484144210815,0.248879387974739,-0.0074251103214919,0.49918332695961,0.1944882869720459,-0.0105171911418437,0.4812176525592804,0.1531781554222107,-0.0125882206484675,0.5277478098869324,0.357508897781372,-0.0166759993880987,0.4867722392082214,0.2335058003664016,-0.0251205675303936,0.465673953294754,0.1587691307067871,-0.0300897993147373,0.4519238770008087,0.1020351648330688,-0.0338222831487655,0.4890452027320862,0.3756739199161529,-0.0302127264440059,0.4571843445301056,0.2596471905708313,-0.0387450344860553,0.4446655809879303,0.1857300698757171,-0.0448251962661743,0.4385127127170563,0.1278645992279052,-0.0494590289890766,0.4510989487171173,0.4061622023582458,-0.040919367223978,0.4284231960773468,0.312866598367691,-0.0496025495231151,0.4190940856933594,0.2584496140480041,-0.0514531508088111,0.414285808801651,0.2102283239364624,-0.0520958453416824
2023-08-01 15:52:08.572475,9,612,0.6544671654701233,0.1643860340118408,0.4938066303730011,0.5484569072723389,-0.34033203125,0.90771484375,-0.25,0.5331330299377441,0.5913878679275513,1.243089684521692e-07,0.5811975002288818,0.5108073353767395,0.0163854230195283,0.591248631477356,0.4176488220691681,0.0229038782417774,0.5787372589111328,0.334293395280838,0.0266076046973466,0.5659220814704895,0.2717971801757812,0.0282165519893169,0.5623342394828796,0.3515274822711944,0.0007219046237878,0.5263656377792358,0.2490832060575485,-0.0045884768478572,0.5052326917648315,0.1951648294925689,-0.0064219129271805,0.4900962114334106,0.1546636670827865,-0.0075999009422957,0.523463249206543,0.3559920191764831,-0.0130072142928838,0.4866370558738708,0.2339817583560943,-0.0221224334090948,0.4675430357456207,0.1600798517465591,-0.027569081634283,0.4554069936275482,0.1042015552520752,-0.0309491865336895,0.4846502840518951,0.374167263507843,-0.024515276774764,0.4560846090316772,0.2595664858818054,-0.0339522175490856,0.4446033239364624,0.1864781975746154,-0.0403106771409511,0.4383830428123474,0.1294891834259033,-0.0443585328757762,0.4476657509803772,0.4061643183231354,-0.0333304740488529,0.4281325340270996,0.3128167390823364,-0.0423704273998737,0.4196306467056274,0.2586806416511535,-0.0442418158054351,0.4148817658424377,0.2104517072439193,-0.0443251579999923
2023-08-01 15:52:08.620439,10,613,0.6439684629440308,0.1577593833208084,0.5104213953018188,0.5476189851760864,-0.18017578125,0.9013671875,-0.13232421875,0.5327441096305847,0.5927484035491943,1.7542028274419868e-07,0.5818216800689697,0.513676643371582,0.0116123622283339,0.5928497910499573,0.4190275967121124,0.0158207230269908,0.5796954035758972,0.3359188437461853,0.0180011019110679,0.5694981813430786,0.2738614976406097,0.0182115454226732,0.5578094124794006,0.3533637225627899,-0.0047084260731935,0.5259710550308228,0.2490833699703216,-0.0120388129726052,0.5085452198982239,0.1939736902713775,-0.0154805593192577,0.4957328140735626,0.1526825875043869,-0.0176358968019485,0.5178929567337036,0.3595511317253113,-0.0167765226215124,0.4872704148292541,0.2375751584768295,-0.0269589535892009,0.4712085425853729,0.1628851890563964,-0.03312249481678,0.4599778056144714,0.1065995395183563,-0.0370513722300529,0.4798708260059356,0.3790194988250732,-0.0269831344485282,0.4573743045330047,0.2638351917266845,-0.0373851470649242,0.4479478597640991,0.1904134452342987,-0.0444108806550502,0.4422970414161682,0.1337925791740417,-0.04897366091609,0.4445570409297943,0.4115031957626343,-0.0349034629762172,0.428178608417511,0.3181551098823547,-0.0448851734399795,0.4219687283039093,0.2642312347888946,-0.0471655428409576,0.4191282391548157,0.2176773846149444,-0.0475134141743183
2023-08-01 15:52:08.681025,11,614,0.6394605040550232,0.1590395420789718,0.5197035670280457,0.5437875986099243,-0.357421875,0.92431640625,-0.42919921875,0.5282366871833801,0.5959481596946716,2.478063834132627e-07,0.5857391357421875,0.5218123197555542,0.0112026575952768,0.6032750606536865,0.4316522181034088,0.015397073701024,0.5940137505531311,0.3475832045078277,0.0185401029884815,0.5891679525375366,0.284653902053833,0.0207760315388441,0.5645005106925964,0.3621207773685455,-0.0031528314575552,0.5424341559410095,0.2528051137924194,-0.008357954211533,0.5286307334899902,0.1983985751867294,-0.0095472410321235,0.518324077129364,0.1602496355772018,-0.0095342574641108,0.5201823711395264,0.3635152876377105,-0.0125152096152305,0.4996671974658966,0.2367678731679916,-0.020578034222126,0.4874424040317535,0.1638482511043548,-0.0240360777825117,0.4788364470005035,0.1104014813899993,-0.0253308601677417,0.480575293302536,0.3802448213100433,-0.0198040809482336,0.4648163020610809,0.2643710076808929,-0.0270902514457702,0.4588755369186401,0.193241462111473,-0.0312560908496379,0.4558548927307129,0.1406175345182418,-0.0334730669856071,0.446697473526001,0.4106845557689667,-0.0249231997877359,0.4348205924034118,0.317982017993927,-0.0304546356201171,0.4310870468616485,0.2664680778980255,-0.0296129044145345,0.43052938580513,0.2231033593416214,-0.0275322888046503
2023-08-01 15:52:08.732118,12,615,0.6390933394432068,0.1569464057683944,0.5253981351852417,0.5393369197845459,-0.27880859375,0.896484375,-0.25537109375,0.5298224091529846,0.6066460609436035,2.474028235610604e-07,0.5921167731285095,0.5315086841583252,0.0110167693346738,0.6111099720001221,0.4370225667953491,0.0163765046745538,0.6034054160118103,0.3514584600925445,0.020921491086483,0.6013514995574951,0.2891643345355987,0.024556865915656,0.5735299587249756,0.362964928150177,-0.0030067337211221,0.5534436106681824,0.2553482353687286,-0.0074318046681582,0.5395782589912415,0.1990423649549484,-0.008638996630907,0.52901691198349,0.1571644991636276,-0.009175295010209,0.5274943709373474,0.3635914921760559,-0.0124736027792096,0.5091957449913025,0.2385772317647934,-0.0216728765517473,0.4977470636367798,0.1630191355943679,-0.0263556260615587,0.4902769923210144,0.1060450375080108,-0.0283668674528598,0.4863984882831573,0.3808843195438385,-0.0196943879127502,0.4726122319698334,0.2637702822685241,-0.0279283411800861,0.4668285846710205,0.1906618922948837,-0.0331018418073654,0.4636398553848266,0.134738877415657,-0.0357646383345127,0.4512465596199035,0.4142497777938843,-0.0247137583792209,0.4405927360057831,0.321005642414093,-0.0311872195452451,0.4372716248035431,0.2674429416656494,-0.0312586203217506,0.437057614326477,0.2214875966310501,-0.0296063125133514
2023-08-01 15:52:08.790981,13,616,0.6397759318351746,0.1560416370630264,0.528184175491333,0.5360588431358337,-0.2275390625,0.927734375,-0.25537109375,0.5295413136482239,0.6126167178153992,2.671456797997962e-07,0.5930567383766174,0.5436924695968628,0.008549959398806,0.61470627784729,0.4506199061870575,0.0125396959483623,0.6071367859840393,0.3622398376464844,0.0159086249768733,0.6051481366157532,0.2968244552612304,0.0184586681425571,0.5753865242004395,0.367155909538269,-0.0046595325693488,0.556095540523529,0.2536719739437103,-0.0097853420302271,0.5435686111450195,0.1958487629890442,-0.0113101312890648,0.5341598987579346,0.1533920019865036,-0.012015625834465,0.5285517573356628,0.3669523298740387,-0.0131848929449915,0.5125457644462585,0.2385624200105667,-0.0217024777084589,0.5034504532814026,0.1619546860456466,-0.0261896215379238,0.4976879358291626,0.1053405404090881,-0.0283973477780818,0.4869123995304107,0.3843458890914917,-0.0198913291096687,0.4740123152732849,0.2653346657752991,-0.0278779510408639,0.4699960350990295,0.191275417804718,-0.0334508828818798,0.4682492911815643,0.1349876523017883,-0.0368215255439281,0.4517180919647217,0.4173646569252014,-0.0246357154101133,0.443027913570404,0.3220739960670471,-0.0315712466835975,0.4401951432228088,0.2667138576507568,-0.0324945040047168,0.4404231607913971,0.2192487269639969,-0.0316821858286857
2023-08-01 15:52:08.857201,14,617,0.6402300596237183,0.1564516425132751,0.5293254256248474,0.5342684388160706,-0.2265625,0.9521484375,-0.29248046875,0.5307064652442932,0.6153871417045593,2.5503246092739573e-07,0.5961858630180359,0.5493231415748596,0.0117796659469604,0.6178220510482788,0.4561260342597961,0.0172979515045881,0.6101514101028442,0.3660172820091247,0.0218751914799213,0.6155534982681274,0.3022756576538086,0.0256922338157892,0.5774153470993042,0.3683436512947082,-0.0007792400429025,0.5587455630302429,0.253793865442276,-0.0042992024682462,0.5445938110351562,0.1955318301916122,-0.0044080684892833,0.5327027440071106,0.1528877019882202,-0.0041105072014033,0.5304920077323914,0.3665763437747955,-0.0098525574430823,0.5147440433502197,0.2361614853143692,-0.0178570933640003,0.5047791600227356,0.1595462411642074,-0.020917909219861,0.4980041086673736,0.1029298901557922,-0.0216432176530361,0.4885416328907013,0.3828998208045959,-0.0167300682514905,0.4757941961288452,0.2621787786483764,-0.0239811167120933,0.4717174172401428,0.1893346607685089,-0.0270849782973527,0.4694599509239197,0.1344759166240692,-0.0282734353095293,0.4519499540328979,0.4162295758724212,-0.0213210321962833,0.4432294964790344,0.3212271332740783,-0.0260207504034042,0.4414663910865783,0.266647607088089,-0.024177586659789,0.442529022693634,0.2203851491212844,-0.021177414804697
2023-08-01 15:52:08.923279,15,618,0.6418671011924744,0.1595383286476135,0.5267533659934998,0.5339336395263672,-0.255859375,0.927734375,-0.279296875,0.5223342776298523,0.6317185163497925,2.753049841430766e-07,0.5928773880004883,0.5645884871482849,0.0107794720679521,0.6187434196472168,0.4704170823097229,0.0147376907989382,0.6131631731987,0.375963419675827,0.018273115158081,0.6224744915962219,0.3097363412380218,0.0211425982415676,0.5796319246292114,0.3819211423397064,-0.0051810634322464,0.5567085146903992,0.2598199844360351,-0.0098030855879187,0.5414532423019409,0.1961756944656372,-0.0101065784692764,0.5287795662879944,0.1483131945133209,-0.0094838058575987,0.529490053653717,0.3795409798622131,-0.0134346596896648,0.5120355486869812,0.2428204715251922,-0.0220941342413425,0.5008488297462463,0.1623952686786651,-0.0244074538350105,0.4941133558750152,0.1030965745449066,-0.0241553578525781,0.4839737713336944,0.3942799270153045,-0.0192111115902662,0.472098559141159,0.2682214081287384,-0.0258333291858434,0.4685820639133453,0.1925782710313797,-0.0278115887194871,0.4673562943935394,0.1364437937736511,-0.0279764756560325,0.444226324558258,0.4257185459136963,-0.0227976404130458,0.4383326768875122,0.3254972696304321,-0.0258338078856468,0.4363023042678833,0.2697131633758545,-0.0223516207188367,0.4368600249290466,0.2233839333057403,-0.0179172959178686
2023-08-01 15:52:08.977183,16,619,0.644933819770813,0.1626027077436447,0.5216565132141113,0.5343174934387207,-0.28515625,0.92138671875,-0.27490234375,0.5234755277633667,0.6370252966880798,2.577831139660703e-07,0.5926390290260315,0.5683995485305786,0.0119603471830487,0.6162574887275696,0.4738703966140747,0.0159280709922313,0.6108852028846741,0.3806900978088379,0.0187571123242378,0.6216826438903809,0.3152583837509155,0.020498801022768,0.577468752861023,0.3862246572971344,-0.0035896773915737,0.5562236309051514,0.2640614509582519,-0.0087591214105486,0.5414848327636719,0.2004763633012771,-0.0097931530326604,0.5289844274520874,0.1525554805994033,-0.0098309963941574,0.5282203555107117,0.3827076554298401,-0.0129997227340936,0.5103124976158142,0.244079902768135,-0.0212189350277185,0.499531090259552,0.1644924283027649,-0.0237900298088789,0.4928932785987854,0.1067995727062225,-0.0241395104676485,0.4831376075744629,0.3973519504070282,-0.0199929755181074,0.4709620177745819,0.2688027024269104,-0.0261602476239204,0.4679611623287201,0.1934642344713211,-0.0277971774339675,0.4670085310935974,0.1372950971126556,-0.0283588040620088,0.4436298012733459,0.4290187358856201,-0.0247498247772455,0.4357683360576629,0.3280799984931946,-0.0285775195807218,0.4349482655525207,0.2719922661781311,-0.0253434255719184,0.4369952082633972,0.2244461327791214,-0.0213270150125026
2023-08-01 15:52:09.023619,17,620,0.6534353494644165,0.1718544512987136,0.5078790187835693,0.5343660116195679,-0.29638671875,0.9345703125,-0.3330078125,0.5248919725418091,0.6395550966262817,2.53190961529981e-07,0.5940322875976562,0.5684691667556763,0.0120115019381046,0.6180645823478699,0.473401129245758,0.0154507299885153,0.6124626398086548,0.3805392980575561,0.0177729614078998,0.6229372620582581,0.3149346113204956,0.0191890522837638,0.5770756006240845,0.3888155221939087,-0.0059041106142103,0.5557169914245605,0.2663580179214477,-0.0121715106070041,0.5408930778503418,0.2023652642965316,-0.0134190544486045,0.5275669693946838,0.1534935235977172,-0.0135147469118237,0.5278807878494263,0.3858346939086914,-0.0160127263516187,0.5113772749900818,0.2468625456094741,-0.0262140352278947,0.5001993775367737,0.1651413589715957,-0.0292810164391994,0.4920709729194641,0.1044266521930694,-0.029752442613244,0.4835543930530548,0.4003686010837555,-0.0235239248722791,0.472087562084198,0.2725324630737304,-0.0310750510543584,0.4684982299804687,0.1971368342638015,-0.0320674404501915,0.4664876759052276,0.1402666270732879,-0.0317306481301784,0.4449440836906433,0.4318658411502838,-0.0288346428424119,0.4384832382202148,0.3298732340335846,-0.0328258983790874,0.4377782940864563,0.2732069492340088,-0.0288010295480489,0.4395439922809601,0.2256071418523788,-0.024038378149271
2023-08-01 15:52:09.072959,18,621,0.6660434007644653,0.1855628192424774,0.4852294921875,0.5352616310119629,-0.47998046875,0.95556640625,-0.2568359375,0.5257768034934998,0.6388952732086182,2.715694051858009e-07,0.5946067571640015,0.5679008960723877,0.0156935956329107,0.6178556680679321,0.4748299121856689,0.0212810188531875,0.6124453544616699,0.3809411525726318,0.0254516992717981,0.6216428875923157,0.3153840899467468,0.0287153888493776,0.5764957070350647,0.3874817788600921,-0.0012372049968689,0.5551891922950745,0.2640976011753082,-0.0041335471905767,0.5406091809272766,0.2006260007619857,-0.0030399376992136,0.5276575088500977,0.1517808735370636,-0.0016912424471229,0.5272490978240967,0.3836945593357086,-0.0114547377452254,0.5110076069831848,0.2447547316551208,-0.0191217884421348,0.5000943541526794,0.1647765040397644,-0.0204998720437288,0.4930502474308014,0.1057654619216919,-0.0198536477982997,0.4824241101741791,0.3985421359539032,-0.018621914088726,0.4713237583637237,0.2714822292327881,-0.0236545298248529,0.4686939716339111,0.1970168352127075,-0.0232940092682838,0.4678350389003753,0.1415241956710815,-0.0222528669983148,0.4433740377426147,0.4306634366512298,-0.0232517644762992,0.4366465508937835,0.328262448310852,-0.0247005727142095,0.4357780516147613,0.2720208764076233,-0.0193234477192163,0.4373381435871124,0.2248358279466629,-0.0138011844828724
2023-08-01 15:52:09.131525,19,622,0.6871210932731628,0.2126797586679458,0.446380078792572,0.5323314070701599,-0.05712890625,0.89453125,-0.1064453125,0.5253298282623291,0.6401809453964233,2.579505462563248e-07,0.5943086743354797,0.5679663419723511,0.0115162711590528,0.6179152131080627,0.471655011177063,0.0148845957592129,0.6112879514694214,0.3795233964920044,0.0170598998665809,0.6202942132949829,0.3138407468795776,0.0184118580073118,0.5763537287712097,0.3880811631679535,-0.0054774275049567,0.5540836453437805,0.2641421556472778,-0.0124238552525639,0.5387308597564697,0.1998603641986847,-0.0142529988661408,0.5249106884002686,0.1517325043678283,-0.0144551852717995,0.5268310904502869,0.3858042657375335,-0.0153415249660611,0.509739100933075,0.2470684647560119,-0.0251868441700935,0.4990530610084533,0.1667272895574569,-0.0279232934117317,0.491643488407135,0.1072086691856384,-0.0280725583434104,0.4823420941829681,0.400476723909378,-0.0228679198771715,0.4697654247283935,0.273142397403717,-0.0300627164542675,0.4663842618465423,0.1989806890487671,-0.0304178744554519,0.4648260176181793,0.1429509818553924,-0.0296198260039091,0.4439791440963745,0.4314086139202118,-0.0283535905182361,0.437345027923584,0.3283273577690124,-0.0317788459360599,0.4365009665489197,0.2721577286720276,-0.0268447045236825,0.4380822479724884,0.2258099913597107,-0.0213854648172855
2023-08-01 15:52:09.180019,20,623,0.69906085729599,0.2293870896100998,0.4171683490276336,0.5335409641265869,-0.529296875,0.91845703125,-0.1904296875,0.527694582939148,0.6318104267120361,2.0984026605219697e-07,0.5878829956054688,0.5566940307617188,0.0158109683543443,0.6070145964622498,0.4643654227256775,0.021591467782855,0.6013202667236328,0.3766079545021057,0.0252939537167549,0.6010491847991943,0.311970442533493,0.027193808928132,0.5724781155586243,0.3852218091487884,-0.0020995205268263,0.5474307537078857,0.267021119594574,-0.0068298955447971,0.532797634601593,0.2064206600189209,-0.0074074105359613,0.5215991735458374,0.1606702953577041,-0.007433149497956,0.5277754664421082,0.3831807374954223,-0.0145114418119192,0.504023551940918,0.245534062385559,-0.0233867838978767,0.4918165802955627,0.1661428660154342,-0.0267873425036668,0.4847589135169983,0.1073295772075653,-0.0282706450670957,0.4848588109016418,0.3989980816841125,-0.0243441723287105,0.4688535034656524,0.2716687321662903,-0.0323265492916107,0.463793396949768,0.1960066109895706,-0.0356928035616874,0.4621338546276092,0.1366867423057556,-0.037851620465517,0.4454663097858429,0.4306833148002624,-0.0314517058432102,0.434013158082962,0.3292210698127746,-0.0385959222912788,0.4315145909786224,0.2731870114803314,-0.0375401191413402,0.4316285252571106,0.22272589802742,-0.0354349240660667
2023-08-01 15:52:09.224830,21,624,0.7229081392288208,0.2630731761455536,0.3637315630912781,0.5252577066421509,0.08642578125,0.853515625,-0.03955078125,0.5274829864501953,0.6227678060531616,2.166093651112533e-07,0.5853033065795898,0.5467800498008728,0.0177192315459251,0.602279782295227,0.4571515023708343,0.0233242493122816,0.5982966423034668,0.3716542720794678,0.0258119367063045,0.5964876413345337,0.3071737289428711,0.0261854957789182,0.5704025626182556,0.376889020204544,-0.0001802295009838,0.5425925850868225,0.2616570591926574,-0.0065577505156397,0.5268637537956238,0.2009745836257934,-0.008911064825952,0.5159085988998413,0.1540822833776474,-0.0101684844121336,0.5274920463562012,0.3759783804416656,-0.0145605932921171,0.5018967986106873,0.2429671287536621,-0.0256779249757528,0.4889282584190368,0.1629753112792968,-0.0319131389260292,0.4818244576454162,0.1017974913120269,-0.0354518108069896,0.4850088953971863,0.3921730518341064,-0.0262316223233938,0.4656028151512146,0.271232396364212,-0.0357117392122745,0.4586828947067261,0.1946055889129638,-0.0407263375818729,0.4561366736888885,0.1340685188770294,-0.043752022087574,0.445205807685852,0.424003392457962,-0.0351320393383502,0.4321615695953369,0.3253432810306549,-0.0422824472188949,0.4283746778964996,0.2699726223945617,-0.0414663031697273,0.427514910697937,0.2207096368074417,-0.0395817048847675
2023-08-01 15:52:09.271975,22,625,0.7391429543495178,0.2872191965579986,0.3173471689224243,0.520061194896698,-0.8720703125,0.9189453125,-0.29736328125,0.5288013219833374,0.6190959215164185,2.0782867693469606e-07,0.5842707753181458,0.5428265333175659,0.0160339567810297,0.6028541326522827,0.4521600008010864,0.0213605239987373,0.597396194934845,0.369933933019638,0.0236890036612749,0.5915257930755615,0.3075556755065918,0.0236804708838462,0.569347620010376,0.3760867416858673,-0.0024194924626499,0.5410361289978027,0.2631471157073974,-0.010709248483181,0.525191068649292,0.2025194764137268,-0.0142231993377208,0.5145818591117859,0.1566559970378875,-0.015988765284419,0.5279927849769592,0.3759874999523163,-0.0170635934919118,0.5012707710266113,0.2426222711801529,-0.0299183297902345,0.4874979555606842,0.160962775349617,-0.0373400449752807,0.4795075058937073,0.0989100635051727,-0.0413992963731288,0.4868221879005432,0.3919185698032379,-0.0292376987636089,0.4669521152973175,0.2701807618141174,-0.0410601869225502,0.4590656459331512,0.1924811899662017,-0.0477986820042133,0.4558319747447967,0.1318287849426269,-0.0514407120645046,0.4471741318702698,0.4230288565158844,-0.0386979021131992,0.4334240555763244,0.3240780830383301,-0.0485147722065448,0.4299628734588623,0.2675171494483948,-0.0495071820914745,0.429862380027771,0.2178898155689239,-0.0485683381557464
2023-08-01 15:52:09.331527,23,626,0.784569501876831,0.3795790374279022,0.1359066516160965,0.4710624516010284,0.38720703125,0.88232421875,-0.052734375,0.5288365483283997,0.6156879663467407,1.6705315886156313e-07,0.5812375545501709,0.5389609336853027,0.0165580585598945,0.5967749953269958,0.4441207349300384,0.0229736194014549,0.5911626815795898,0.3621128797531128,0.0264301020652055,0.5866631269454956,0.3010753989219665,0.0277189463376998,0.5702444911003113,0.372976005077362,-0.0009879820281639,0.5408695340156555,0.2627418637275696,-0.0089943623170256,0.5237248539924622,0.2021143585443496,-0.0126003371551632,0.5122196078300476,0.1551808267831802,-0.0148302568122744,0.5312156677246094,0.3735058307647705,-0.0158530846238136,0.503277599811554,0.2427274584770202,-0.0281936302781105,0.4890227615833282,0.1618590056896209,-0.0355170331895351,0.4803629219532013,0.0992426574230194,-0.0398226976394653,0.4906883537769317,0.3880581855773926,-0.0284245442599058,0.4689269065856933,0.2688959538936615,-0.0400336794555187,0.4611142575740814,0.1911192089319229,-0.0471073687076568,0.4580782353878021,0.1296366453170776,-0.0512689799070358,0.4501105546951294,0.4163613617420196,-0.0383253172039985,0.4345834255218506,0.319570779800415,-0.0484552197158336,0.4300056993961334,0.2631380558013916,-0.0503561981022357,0.4293141961097717,0.2139196991920471,-0.0503849796950817
2023-08-01 15:52:09.377068,24,627,0.7984163761138916,0.4160228073596954,0.0289097987115383,0.4343045651912689,-0.2216796875,0.9208984375,0.01513671875,0.5325834155082703,0.6109647154808044,1.2575158336858294e-07,0.5804623961448669,0.5302672982215881,0.0198770649731159,0.5918295383453369,0.436575710773468,0.0258582606911659,0.5865076780319214,0.3571671843528747,0.0282201077789068,0.5825051069259644,0.2984040975570678,0.0277556329965591,0.5718539953231812,0.3730685710906982,-0.005394123494625,0.5394296646118164,0.2614012658596039,-0.0153270186856389,0.5198377370834351,0.1980579048395156,-0.0193502325564622,0.5059159398078918,0.1487315744161605,-0.0220242440700531,0.5347288846969604,0.3751496374607086,-0.0229937545955181,0.5037531852722168,0.2409888505935669,-0.0372608266770839,0.4879686832427978,0.1582589000463485,-0.0444748662412166,0.4778748750686645,0.0953707695007324,-0.0489354319870471,0.4951698184013366,0.3901236057281494,-0.0377294607460498,0.4700624644756317,0.2672899067401886,-0.050838366150856,0.4615106284618377,0.1878597736358642,-0.0581905543804168,0.4581491351127624,0.1263966262340545,-0.0627544447779655,0.4550122916698456,0.4176377058029175,-0.0494173876941204,0.4374357461929321,0.3188231289386749,-0.0619087517261505,0.4320515394210815,0.2606703639030456,-0.0655429884791374,0.4307880997657776,0.2106288373470306,-0.0669073164463043
2023-08-01 15:52:09.426769,25,628,0.7987279295921326,0.4532453417778015,-0.0895270854234695,0.3854701817035675,0.09619140625,0.9130859375,0.2724609375,0.5329833626747131,0.6128509640693665,9.117521670987117e-08,0.5771146416664124,0.5293272733688354,0.0214568972587585,0.5877967476844788,0.4343060851097107,0.0292991623282432,0.5816655158996582,0.3580048978328705,0.0330180376768112,0.5762695670127869,0.3016565144062042,0.0341582559049129,0.5704997777938843,0.3697879612445831,0.0001933713938342,0.537743866443634,0.2629246115684509,-0.0087613752111792,0.518149733543396,0.2011880725622177,-0.0123312873765826,0.5045072436332703,0.152658611536026,-0.0147675974294543,0.5364069938659668,0.3723762929439544,-0.0182188767939806,0.5046632289886475,0.2435855120420456,-0.031813308596611,0.4893156886100769,0.1633156239986419,-0.0384707637131214,0.4800012111663818,0.1015963554382324,-0.0423331223428249,0.4984154403209686,0.3875940442085266,-0.0341813750565052,0.4727966785430908,0.2677028179168701,-0.0473238229751586,0.4644488394260406,0.1898731291294098,-0.0547059550881385,0.4616374671459198,0.1281717121601104,-0.0590262785553932,0.458279937505722,0.4151846766471863,-0.0471476167440414,0.4413383901119232,0.3176611959934234,-0.0601357109844684,0.4356408417224884,0.2602781355381012,-0.0642530918121337,0.434368222951889,0.2110565155744552,-0.0657580569386482
2023-08-01 15:52:09.486158,26,629,0.7896780967712402,0.4775002598762512,-0.179506167769432,0.3408513367176056,0.36669921875,0.912109375,0.2509765625,0.5063210129737854,0.6409200429916382,1.043079933538138e-07,0.4542458355426788,0.5567857027053833,0.0054406905546784,0.4583645761013031,0.4618419706821441,0.0049780565313994,0.4757318198680877,0.3968799412250519,-0.0007210316252894,0.4920204281806946,0.347794234752655,-0.0068330559879541,0.520119845867157,0.3918887972831726,0.0155541142448782,0.5002334117889404,0.294174313545227,0.0013179372763261,0.48454350233078,0.2234900742769241,-0.0125653510913252,0.475603699684143,0.164179265499115,-0.0234203860163688,0.5303782224655151,0.3894210159778595,-0.0009550438844598,0.5014232993125916,0.274495005607605,-0.0193985551595687,0.4860557317733764,0.1961892694234848,-0.0346184447407722,0.4778249859809875,0.1274049580097198,-0.0449599623680114,0.5278769135475159,0.3974400460720062,-0.0196841452270746,0.5027899146080017,0.2817683815956116,-0.0375710763037204,0.4870713651180267,0.2058105021715164,-0.0484221056103706,0.4781116247177124,0.1421958804130554,-0.0551315136253833,0.5131036639213562,0.4105120301246643,-0.0390053130686283,0.4994660019874573,0.3198829889297485,-0.050938181579113,0.4907339215278625,0.2608368396759033,-0.0561744235455989,0.4859772026538849,0.2068486511707306,-0.0602558851242065
2023-08-01 15:52:09.534328,27,630,0.7809277772903442,0.488730639219284,-0.2291873842477798,0.3142727017402649,-0.23974609375,0.953125,0.21923828125,0.4951368868350982,0.6428229808807373,1.724115037404772e-07,0.4468962848186493,0.5592111349105835,3.302018012618646e-05,0.4476429224014282,0.4623687863349914,-1.887887810880784e-05,0.4592418670654297,0.3950292766094208,-0.0040543344803154,0.4626111984252929,0.3383912444114685,-0.0078337732702493,0.4837006330490112,0.384545087814331,0.0099580157548189,0.4802013635635376,0.2894126176834106,-0.0055504208430647,0.4734761416912079,0.2230109572410583,-0.0197940506041049,0.4712539315223694,0.1683482229709625,-0.0302750691771507,0.4989394247531891,0.3881570100784302,-0.0045452052727341,0.4867492318153381,0.2780664563179016,-0.0197165422141551,0.4801508486270904,0.2007055282592773,-0.0332659557461738,0.4786428213119507,0.1362880170345306,-0.0421001389622688,0.5102117657661438,0.4075480699539184,-0.021633168682456,0.4978212118148803,0.3059932589530945,-0.0363607257604599,0.4914078414440155,0.2383483648300171,-0.0461502820253372,0.4889532029628753,0.1822381466627121,-0.0526833496987819,0.5154678821563721,0.4412354230880737,-0.0399958752095699,0.4975503087043762,0.3777694702148437,-0.0514710173010826,0.4829287827014923,0.3327967822551727,-0.0554062910377979,0.4709723889827728,0.295489639043808,-0.0577447265386581
2023-08-01 15:52:09.580524,28,631,0.7663171887397766,0.5005897879600525,-0.2912246286869049,0.2781298458576202,0.31103515625,0.91796875,0.3447265625,0.4845187664031982,0.6444259881973267,2.390997906331904e-07,0.4365092515945434,0.5609747171401978,0.0028338772244751,0.4346950948238373,0.4592955708503723,0.0049278265796601,0.4444542229175567,0.3939333260059356,0.002412537112832,0.4477822184562683,0.338102251291275,-0.0002330510469619,0.4645627737045288,0.3818399906158447,0.0146095920354127,0.4612415134906769,0.2867813408374786,0.0006707070278935,0.4557027518749237,0.2210843712091446,-0.0129639841616153,0.4542012810707092,0.1661709249019622,-0.0228893253952264,0.4833020865917206,0.3832938075065613,-0.001368568628095,0.4766920804977417,0.2752547860145569,-0.0141468420624732,0.4711479544639587,0.1993559449911117,-0.0269692298024892,0.4699191451072693,0.1362465918064117,-0.0354052223265171,0.4993906915187835,0.4007666409015655,-0.0198908373713493,0.4922294020652771,0.292959064245224,-0.0325954183936119,0.4877532124519348,0.224966287612915,-0.0401420444250106,0.4864296317100525,0.1684241890907287,-0.0452251397073268,0.5092547535896301,0.433554857969284,-0.0395845174789428,0.4968802630901336,0.3607941567897796,-0.0492150261998176,0.4883068203926086,0.3110760748386383,-0.0505366288125515,0.4819303154945373,0.2698793411254883,-0.0511566400527954
2023-08-01 15:52:09.630288,29,632,0.7536986470222473,0.5056323409080505,-0.3364033699035644,0.2512110769748688,0.05810546875,0.912109375,0.3701171875,0.4780814349651336,0.6364816427230835,1.7485228909208677e-07,0.4259349405765533,0.5636159181594849,0.0023557587992399,0.4179653525352478,0.4610419571399688,0.007425517309457,0.4272416830062866,0.3890937864780426,0.0073113357648253,0.4301749169826507,0.328793317079544,0.0077499728649854,0.4448699355125427,0.3737676739692688,0.0294364318251609,0.4402683079242706,0.2825890779495239,0.0225592479109764,0.4350886046886444,0.2258691489696502,0.0117492238059639,0.4324996173381805,0.1750222146511078,0.0024121950846165,0.4680793583393097,0.3641651272773742,0.0152901420369744,0.4632538855075836,0.2603760659694671,0.0092518562451004,0.4599159657955169,0.1920131593942642,-0.0019735135138034,0.4579921364784241,0.1322333514690399,-0.0107684591785073,0.4897178113460541,0.3725428581237793,-0.0026008777786046,0.4897784292697906,0.2668877243995666,-0.0096741262823343,0.4897285997867584,0.2042853683233261,-0.01736905798316,0.4886893630027771,0.1510893702507019,-0.0239274967461824,0.5093907117843628,0.395279049873352,-0.0223108660429716,0.5098530054092407,0.3134930431842804,-0.028454614803195,0.5097203254699707,0.2603493332862854,-0.0312713123857975,0.5084850788116455,0.2146663218736648,-0.0342144928872585
2023-08-01 15:52:09.688088,30,633,0.7450506091117859,0.5065954923629761,-0.3623574376106262,0.2386580258607864,0.15625,0.927734375,0.36376953125,0.4737866520881653,0.6413726210594177,1.793888628753848e-07,0.4193187057971954,0.5693056583404541,0.0018066252814605,0.4099168479442596,0.466286838054657,0.007928711362183,0.418494701385498,0.3922628462314605,0.0084379902109503,0.4182492792606354,0.3337528705596924,0.0093737943097949,0.4391008019447326,0.378084659576416,0.0346425026655197,0.4333663284778595,0.2870989441871643,0.0279544070363044,0.4274872541427612,0.2299788445234298,0.0159412026405334,0.424761414527893,0.1770897656679153,0.0054924227297306,0.4627134501934051,0.3674996197223663,0.0203526373952627,0.4578307867050171,0.2639904618263244,0.0150232603773474,0.453996479511261,0.1940772831439972,0.0029040386434644,0.4517683386802673,0.1321375072002411,-0.0069712344557046,0.4852713644504547,0.3760606050491333,0.001590406987816,0.4860646426677704,0.2720648944377899,-0.0054203425534069,0.4867869317531585,0.2089037895202636,-0.0139328222721815,0.4868283569812774,0.1548705697059631,-0.0212595742195844,0.5061932802200317,0.3965588808059692,-0.0193288885056972,0.5078313946723938,0.3143992125988006,-0.0259816106408834,0.5097912549972534,0.2608122229576111,-0.0294321626424789,0.5112234950065613,0.2136225402355194,-0.0330288335680961
2023-08-01 15:52:09.734429,31,634,0.7403770685195923,0.5061949491500854,-0.3762591481208801,0.2324595600366592,0.1259765625,0.93408203125,0.35107421875,0.464369535446167,0.6445543766021729,1.4846789042621825e-07,0.4049670398235321,0.5866667628288269,-0.0085540935397148,0.3818795084953308,0.4827128946781158,-0.0038084839470684,0.3844386339187622,0.4033847749233246,-0.0020304133649915,0.3756100237369537,0.3462947309017181,0.000542608264368,0.4187150001525879,0.3814734518527984,0.026288716122508,0.4115176200866699,0.2955571413040161,0.0192365664988756,0.4086424112319946,0.2429155558347702,0.0054969764314591,0.4080592691898346,0.1923981457948684,-0.0068761920556426,0.448434978723526,0.368739902973175,0.0177411064505577,0.4404083490371704,0.2678883671760559,0.012886993587017,0.4356153905391693,0.2034675031900406,-0.0005847747670486,0.4314160048961639,0.1436758041381836,-0.0122155444696545,0.4766622185707092,0.3768777251243591,0.0041323285549879,0.4751747250556946,0.2765238881111145,-0.0032398360781371,0.4738062620162964,0.2173483073711395,-0.0133248455822467,0.4711860120296478,0.1643814444541931,-0.0225050374865531,0.5066460371017456,0.3998408615589142,-0.0123471124097704,0.5065277814865112,0.3228076100349426,-0.0204855054616928,0.506263792514801,0.272398442029953,-0.0254596844315528,0.5052838325500488,0.2247111201286316,-0.0305193215608596
