Timestamp,Index,Frame ID,w,x,y,z,ax,ay,az,x_0,y_0,z_0,x_1,y_1,z_1,x_2,y_2,z_2,x_3,y_3,z_3,x_4,y_4,z_4,x_5,y_5,z_5,x_6,y_6,z_6,x_7,y_7,z_7,x_8,y_8,z_8,x_9,y_9,z_9,x_10,y_10,z_10,x_11,y_11,z_11,x_12,y_12,z_12,x_13,y_13,z_13,x_14,y_14,z_14,x_15,y_15,z_15,x_16,y_16,z_16,x_17,y_17,z_17,x_18,y_18,z_18,x_19,y_19,z_19,x_20,y_20,z_20
2023-08-01 15:52:00.655424,0,477,0.7549945116043091,0.5025452971458435,-0.3817818462848663,0.1779719144105911,0.11962890625,0.90673828125,0.390625,0.4847016036510467,0.6511310338973999,1.931544773015048e-07,0.4154278337955475,0.5943068265914917,-0.0101827913895249,0.3836152553558349,0.4838412702083587,-0.0006413766532205,0.3856761157512665,0.3929905891418457,0.0065579786896705,0.3741232752799988,0.3353515267372131,0.0154883554205298,0.4238036572933197,0.3738448023796081,0.0383315868675708,0.4152453541755676,0.2832163274288177,0.0343077182769775,0.4141462445259094,0.2261085957288742,0.0207068994641304,0.4151832163333893,0.1726810932159423,0.0087587535381317,0.4621793031692505,0.3585622012615204,0.0325050540268421,0.4555959403514862,0.2536749839782715,0.0332615599036216,0.4527098536491394,0.1872953176498413,0.0218079220503568,0.4493404328823089,0.1255307495594024,0.0114088347181677,0.4956131279468536,0.3652764558792114,0.0203758962452411,0.4941102564334869,0.2681231200695038,0.0184497758746147,0.4923682808876037,0.2106485366821289,0.0123165594413876,0.4899770021438598,0.1591857969760894,0.0055102608166635,0.5331317782402039,0.3872532844543457,0.0044946447014808,0.5323190689086914,0.3095561563968658,0.0028370467480272,0.5309323668479919,0.2631222605705261,0.0031068297103047,0.5286093950271606,0.2176738530397415,0.0014720319304615
2023-08-01 15:52:00.702692,1,478,0.7558844685554504,0.5021905899047852,-0.3796434998512268,0.1797611564397812,0.11767578125,0.90087890625,0.4560546875,0.4837191700935364,0.6495001316070557,2.044678097945507e-07,0.4149066507816314,0.5917491316795349,-0.0100516751408576,0.3837244212627411,0.4845149219036102,-0.0011862841201946,0.3860141634941101,0.3947157263755798,0.0052325241267681,0.3744034469127655,0.3361012935638428,0.0132546378299593,0.4237949848175049,0.3739350140094757,0.0377322733402252,0.4155465364456177,0.2835534214973449,0.0330949686467647,0.4149456918239593,0.2262118905782699,0.019289469346404,0.4166231751441955,0.172535702586174,0.0073101394809782,0.4622403085231781,0.3589601218700409,0.0315914675593376,0.4561079740524292,0.2545064389705658,0.0315604731440544,0.4531756639480591,0.1881395131349563,0.0198991876095533,0.4499659240245819,0.126446783542633,0.0095472875982522,0.495910495519638,0.3660127520561218,0.0191766005009412,0.495096743106842,0.2690983116626739,0.0163091383874416,0.4934617877006531,0.2118570655584335,0.0101444013416767,0.4911681413650512,0.1603023111820221,0.0035898501519113,0.5333317518234253,0.3886197507381439,0.0030898232944309,0.5325261950492859,0.3112662136554718,0.0004435500886756,0.5313096046447754,0.2648196220397949,0.0004938380443491,0.5290358066558838,0.2189970910549163,-0.0010514508467167
2023-08-01 15:52:00.751486,2,479,0.757072925567627,0.5031774640083313,-0.3735460340976715,0.1847063601016998,0.06640625,0.900390625,0.41845703125,0.4831939041614532,0.650526762008667,2.1492378721177374e-07,0.4143701791763305,0.5933030843734741,-0.0095725078135728,0.3835819661617279,0.4853689670562744,-0.0012295790947973,0.3863395452499389,0.3954410851001739,0.004490990191698,0.3741433620452881,0.336081326007843,0.0119131067767739,0.4233377575874328,0.3737833499908447,0.037511546164751,0.4135513007640838,0.2823117971420288,0.0330891273915767,0.412137508392334,0.2255148887634277,0.0196123924106359,0.4134304821491241,0.1727165579795837,0.007942171767354,0.4613840579986572,0.3584358692169189,0.0311143565922975,0.4539748430252075,0.2529580593109131,0.0311709810048341,0.4506856203079223,0.1861119419336319,0.019643822684884,0.4473497569561004,0.1254744231700897,0.0095566408708691,0.4951682984828949,0.3649366497993469,0.0185866355895996,0.4931781888008117,0.2661957740783691,0.0159649066627025,0.491288810968399,0.2085284292697906,0.009687028825283,0.4886654317378998,0.1578480303287506,0.0031969114206731,0.5325133800506592,0.3865507841110229,0.0024574322160333,0.5317521095275879,0.3086772859096527,0.0001979609805857,0.5296643376350403,0.2617467045783996,0.000315899727866,0.5265378355979919,0.2163169831037521,-0.0010542531963437
2023-08-01 15:52:00.812970,3,480,0.7598865032196045,0.5043933391571045,-0.3597060441970825,0.1969046890735626,0.1796875,0.91796875,0.37744140625,0.4855760335922241,0.6503154039382935,2.0218874396960018e-07,0.4151367545127868,0.5967656970024109,-0.0095901386812329,0.3831601440906524,0.4883396923542022,-5.474564750329591e-05,0.3842747211456299,0.396956205368042,0.0072054187767207,0.3716099262237549,0.3372625708580017,0.0164048541337251,0.4226681590080261,0.3736249506473541,0.0394413992762565,0.4118996858596802,0.2821929454803467,0.0367203466594219,0.4098240435123443,0.2260658293962478,0.0240008793771266,0.4107701778411865,0.173559233546257,0.0127704460173845,0.4605132043361664,0.3575601577758789,0.0340207293629646,0.4520381987094879,0.2513782978057861,0.0367372259497642,0.4484048783779144,0.1851230412721634,0.0265168119221925,0.4447448551654815,0.1245645880699157,0.0169657561928033,0.493928998708725,0.3639070093631744,0.0223916303366422,0.4912506639957428,0.2658171057701111,0.0224364046007394,0.4890961945056915,0.2085071802139282,0.017361830919981,0.4868578314781189,0.1584671437740326,0.0111648542806506,0.5317143201828003,0.3849268555641174,0.0070058573037385,0.5305026769638062,0.3073156177997589,0.0070146317593753,0.5287601351737976,0.2613888382911682,0.0081872707232832,0.5266724228858948,0.2168377339839935,0.007248630747199
2023-08-01 15:52:00.889003,4,481,0.7743523120880127,0.501300573348999,-0.3048058748245239,0.2370010912418365,0.26220703125,0.92236328125,0.48388671875,0.4850223362445831,0.6512541174888611,1.8955692837607785e-07,0.4162385463714599,0.5952051877975464,-0.0090142823755741,0.3840871453285217,0.4853721559047699,0.0007023219950497,0.3855099976062774,0.3945826292037964,0.0078366249799728,0.3733240067958832,0.3354154229164123,0.0164789818227291,0.4230008125305176,0.3737448751926422,0.0382717475295066,0.4138948917388916,0.2831563651561737,0.0339827537536621,0.4129843711853027,0.225221961736679,0.0200497843325138,0.4147621393203735,0.1706017851829528,0.0076664281077682,0.4606625437736511,0.3582964241504669,0.0315671972930431,0.4530351161956787,0.2535059154033661,0.0318113565444946,0.4499841928482055,0.1867811232805252,0.019482672214508,0.4467827677726745,0.1240592002868652,0.0082004340365529,0.4938599467277527,0.3652857542037964,0.0187382772564888,0.4923485517501831,0.2678337395191192,0.0160856321454048,0.490840196609497,0.2105015963315963,0.0088553614914417,0.4886500835418701,0.1593420803546905,0.0011208046926185,0.5314392447471619,0.3878172934055328,0.0023445372935384,0.5305729508399963,0.3099376559257507,-0.0003640007053036,0.5295391082763672,0.2628378868103027,-0.0012967486400157,0.5273707509040833,0.2164840251207351,-0.0039486922323703
2023-08-01 15:52:00.955556,5,482,0.7929640412330627,0.48951455950737,-0.2222913205623626,0.2866531908512115,0.20361328125,0.90380859375,0.447265625,0.4860387444496155,0.6508082747459412,1.901438508866704e-07,0.4161742925643921,0.5943846106529236,-0.0092506604269146,0.3850182592868805,0.4849548637866974,0.0005787251866422,0.3873021304607391,0.394317090511322,0.0077366014011204,0.3757979273796081,0.3342221677303314,0.0163960438221693,0.4237191379070282,0.3761857151985168,0.0391816981136798,0.4148705601692199,0.2864400446414947,0.0349058732390403,0.4145186841487884,0.2290777117013931,0.0209063123911619,0.4168121516704559,0.1744959503412246,0.008497423492372,0.4618103206157684,0.3600881993770599,0.0325393378734588,0.4540033042430877,0.256174087524414,0.0327179320156574,0.4510159194469452,0.1893900334835052,0.0200164075940847,0.4479463994503021,0.1265122294425964,0.0084468303248286,0.4951933026313782,0.3664099276065826,0.019612455740571,0.4934447407722473,0.2698659896850586,0.0165092572569847,0.4918564856052398,0.2125207781791687,0.0084233740344643,0.4894005954265594,0.1610634326934814,0.000182245959877,0.5327140092849731,0.3879153728485107,0.0031368229538202,0.5319096446037292,0.3101636469364166,-4.891680509899743e-05,0.5306792855262756,0.2633944451808929,-0.0015892926603555,0.5280675888061523,0.2169910073280334,-0.004678142722696
2023-08-01 15:52:01.010902,6,483,0.8044226765632629,0.4688822627067566,-0.116266943514347,0.3457392156124115,-0.30810546875,0.9453125,0.1796875,0.4789474904537201,0.6494012475013733,1.6459866003515344e-07,0.4229879677295685,0.5861231088638306,-0.0032102621626108,0.4054322838783264,0.4765464067459106,0.004345279186964,0.4131902754306793,0.3927653133869171,0.0078503228724002,0.4080036580562591,0.3327270150184631,0.0119202453643083,0.4367564618587494,0.3727346658706665,0.0339675210416317,0.4308746755123138,0.2833013534545898,0.0281440466642379,0.4276264905929565,0.2267226874828338,0.0152037208899855,0.4282610416412353,0.1731933206319809,0.0033988924697041,0.46668341755867,0.3575938045978546,0.0228014644235372,0.4609270989894867,0.2533572316169739,0.0193170867860317,0.4586850106716156,0.1851750463247299,0.0058322185650467,0.4575270414352417,0.1213435530662536,-0.006001157220453,0.4955202937126159,0.3645781278610229,0.0066796736791729,0.497545838356018,0.2616446614265442,0.0004032533324789,0.5006223320960999,0.2004163712263107,-0.0101473648101091,0.5012596249580383,0.1446964144706726,-0.0199955776333808,0.5257789492607117,0.3865624964237213,-0.0119952345266938,0.5299608111381531,0.3052915930747986,-0.0188506282866001,0.5333561301231384,0.254209041595459,-0.0235509350895881,0.5341150164604187,0.2050517052412033,-0.0288073886185884
2023-08-01 15:52:01.059009,7,484,0.8040812611579895,0.4490936398506164,-0.0337918847799301,0.3881060481071472,-0.07470703125,0.9345703125,0.0908203125,0.4825665950775146,0.6487507820129395,1.9597212030930685e-07,0.4265411794185638,0.5832903981208801,-0.0019302489235997,0.4118086397647857,0.4703416526317596,0.0054118526168167,0.4196627736091614,0.3896307051181793,0.0079699726775288,0.4197655618190765,0.3315125703811645,0.0113214645534753,0.4451580941677093,0.3694011270999908,0.0344946458935737,0.4409463405609131,0.2751884460449219,0.0281744059175252,0.4394869804382324,0.2157705426216125,0.0158394742757082,0.4424617290496826,0.1618847548961639,0.0048963990993797,0.4729660153388977,0.3576058149337768,0.0222518127411603,0.4674925804138183,0.2504818439483642,0.0172850657254457,0.4657871425151825,0.1788824498653412,0.0044214399531483,0.4661456644535064,0.114924281835556,-0.0061890231445431,0.5004486441612244,0.364944189786911,0.0050868513062596,0.5030356645584106,0.2587546706199646,-0.0018118844600394,0.5073321461677551,0.1973699927330017,-0.0109033798798918,0.5101132392883301,0.1444479823112487,-0.0189617071300745,0.5272554755210876,0.3848912715911865,-0.0146986972540616,0.5312928557395935,0.3025268316268921,-0.0215390808880329,0.5351422429084778,0.2493200004100799,-0.0255726110190153,0.5378333926200867,0.2002802938222885,-0.029827382415533
2023-08-01 15:52:01.103271,8,485,0.7997857928276062,0.4247708022594452,0.043026328086853,0.4219728112220764,-0.1845703125,0.94580078125,0.16650390625,0.4848273396492004,0.6469526886940002,1.6173991923551514e-07,0.4323517084121704,0.5745456218719482,0.0044500208459794,0.4245488047599792,0.462967038154602,0.0131677007302641,0.4351638853549957,0.3853298127651214,0.016009647399187,0.437387615442276,0.3293710350990295,0.0192069262266159,0.4581547081470489,0.3657188713550567,0.0375849790871143,0.4544435739517212,0.2709583640098572,0.0327548719942569,0.4507958590984344,0.212225928902626,0.0226756017655134,0.451535165309906,0.159479409456253,0.0135674681514501,0.482743501663208,0.3548587560653686,0.0219372641295194,0.4811945855617523,0.246196910738945,0.018310597166419,0.4803674519062042,0.1748129576444625,0.0080226473510265,0.4809852540493011,0.1123847365379333,-0.0005399904912337,0.506341814994812,0.363343596458435,0.001980199245736,0.5134808421134949,0.2547153234481811,-0.0031495701987296,0.5188028812408447,0.1913238763809204,-0.009960071183741,0.5235121846199036,0.13705575466156,-0.0165984295308589,0.5288636088371277,0.3847741484642029,-0.0200826618820428,0.5362995862960815,0.2995323240756988,-0.0250025670975446,0.5421538949012756,0.2444016635417938,-0.0270864572376012,0.5470799803733826,0.1951846033334732,-0.0300617776811122
2023-08-01 15:52:01.151118,9,486,0.784800112247467,0.3922113180160522,0.136701762676239,0.4599691927433014,-0.126953125,0.9287109375,0.1142578125,0.4975135326385498,0.646125316619873,1.0438102293619522e-07,0.44293874502182,0.5645633935928345,0.0142810782417654,0.442020833492279,0.4575796723365783,0.0265191961079835,0.4552380442619324,0.3847748041152954,0.0313047803938388,0.4550176858901977,0.3298379778861999,0.0358376316726207,0.473450630903244,0.3623855113983154,0.0439433120191097,0.4711645543575287,0.2660906612873077,0.0398656874895095,0.4681675732135772,0.2056833952665329,0.0305386558175086,0.4680711328983307,0.1505707204341888,0.0217446889728307,0.4955825507640838,0.3548483252525329,0.0229342635720968,0.4958012700080871,0.24530990421772,0.017617043107748,0.4949499070644378,0.1719932109117508,0.0064039081335067,0.494302898645401,0.108102798461914,-0.0026939690578728,0.5153483152389526,0.3649328947067261,-0.0014551919884979,0.5234617590904236,0.2560775279998779,-0.0078763626515865,0.5275609493255615,0.1897114813327789,-0.0149011323228478,0.5312724113464355,0.1319781839847564,-0.021608991548419,0.5329591631889343,0.3879496157169342,-0.0270052012056112,0.5381811261177063,0.3008863627910614,-0.0327762477099895,0.5433083176612854,0.2442433089017868,-0.0349290668964386,0.5485167503356934,0.1939056366682052,-0.0381290204823017
2023-08-01 15:52:01.211480,10,487,0.7630432844161987,0.3547523915767669,0.2247157245874405,0.4913435280323028,0.04443359375,0.88818359375,0.02734375,0.506773054599762,0.6543458700180054,2.407929855507973e-07,0.4546584486961365,0.564907431602478,0.0024683526717126,0.4565447568893432,0.4594994485378265,0.0027564978227019,0.4717986583709717,0.3885530829429626,-0.0013005312066525,0.4735259711742401,0.3309488296508789,-0.0060630994848906,0.4945170283317566,0.3684858083724975,0.0099459849298,0.4922656118869781,0.2672889828681946,-0.0057535637170076,0.4888325929641723,0.1998571157455444,-0.0203607026487588,0.4881756007671356,0.1420999467372894,-0.0317939668893814,0.516616940498352,0.3742063641548157,-0.008129758760333,0.5155601501464844,0.2586195468902588,-0.0223943777382373,0.5164768099784851,0.1798991858959198,-0.0363738760352134,0.5201013088226318,0.1134939193725586,-0.0471613816916942,0.531678318977356,0.3994555175304413,-0.0289492085576057,0.5306411385536194,0.289668470621109,-0.0438965670764446,0.5345631837844849,0.2184673696756363,-0.0545543171465396,0.5411967039108276,0.1586697846651077,-0.0633474364876747,0.5379882454872131,0.4401739537715912,-0.0509292893111705,0.5255511999130249,0.3707879781723022,-0.0640411972999572,0.5157414674758911,0.3224458396434784,-0.0693239122629165,0.5084189176559448,0.2823490500450134,-0.0741197764873504
2023-08-01 15:52:01.289066,11,488,0.7209473848342896,0.2957341074943542,0.3451814651489258,0.5230926871299744,0.119140625,0.884765625,0.00244140625,0.5467996001243591,0.5738936066627502,4.789663776705312e-08,0.5793967843055725,0.5158867239952087,0.0393662638962268,0.5880518555641174,0.4487798511981964,0.0605595521628856,0.5870314240455627,0.4043301343917846,0.0743158981204032,0.5799554586410522,0.3711539208889007,0.0852335169911384,0.5921666026115417,0.3814607858657837,0.0355144627392292,0.5673097372055054,0.294531762599945,0.03849308937788,0.5504391193389893,0.232629582285881,0.0409163758158683,0.5408665537834167,0.1838022023439407,0.0415866561233997,0.5779100060462952,0.375263512134552,0.0110811293125152,0.5584215521812439,0.2674999237060547,0.0076169851236045,0.550210177898407,0.1955518722534179,0.005963759496808,0.5468328595161438,0.1377097964286804,0.0056362277828156,0.5518276691436768,0.3758727014064789,-0.0110494075343012,0.5387133955955505,0.2717093229293823,-0.0177370719611644,0.5348160266876221,0.202631413936615,-0.0224534422159194,0.5355633497238159,0.1462768316268921,-0.0246086232364177,0.51771080493927,0.3834035396575928,-0.0293903276324272,0.517460823059082,0.2928805947303772,-0.0409163534641265,0.522939145565033,0.2379142194986343,-0.0460111945867538,0.530845046043396,0.1919809132814407,-0.048032771795988
2023-08-01 15:52:01.317298,12,489,0.7007706165313721,0.2672998309135437,0.3933839201927185,0.531714677810669,-0.162109375,0.92138671875,-0.03564453125,0.55842125415802,0.6294059753417969,3.3293634515985104e-10,0.5884996056556702,0.5272237062454224,0.0374728739261627,0.5943170189857483,0.4426485598087311,0.0471784621477127,0.5812243223190308,0.379009336233139,0.0471209175884723,0.5550475716590881,0.3405417203903198,0.042646124958992,0.6041682958602905,0.3852661848068237,0.0230000764131546,0.5680367946624756,0.2838222086429596,0.0133468592539429,0.5392462611198425,0.2305703163146972,0.0052118627354502,0.5184980630874634,0.1856632083654403,-0.0013988047139719,0.5849366784095764,0.3784714937210083,-0.007055431138724,0.5628810524940491,0.2442531734704971,-0.0186882521957159,0.5499714016914368,0.1642562001943588,-0.0252008363604545,0.5413706302642822,0.0954271256923675,-0.0303869657218456,0.5532676577568054,0.3867518007755279,-0.0351163521409034,0.5425184965133667,0.2483285367488861,-0.0461319610476493,0.5359276533126831,0.1713071018457412,-0.0508520044386386,0.5359634160995483,0.1063390970230102,-0.0549027994275093,0.5132545828819275,0.4043384194374084,-0.0598521530628204,0.5111900568008423,0.2988519966602325,-0.0710993409156799,0.5135542154312134,0.2350705713033676,-0.0730413272976875,0.5187262892723083,0.1779900789260864,-0.0745252147316932
2023-08-01 15:52:01.366815,13,490,0.682677686214447,0.2434576600790023,0.4344252645969391,0.5347468852996826,0.1103515625,0.9638671875,-0.03173828125,0.5656698942184448,0.6154882907867432,-7.389495948473268e-08,0.600631058216095,0.5166165828704834,0.0403023995459079,0.6086168885231018,0.4340780973434448,0.0498543009161949,0.5897085666656494,0.3629729449748993,0.0498164035379886,0.5595895051956177,0.3221686780452728,0.0448301509022712,0.617900550365448,0.3813559710979461,0.0157816372811794,0.5750992894172668,0.2750820815563202,0.005173604004085,0.5400699377059937,0.2459766417741775,-0.0019721363205462,0.5177530646324158,0.2356324344873428,-0.0059396759606897,0.5874653458595276,0.3730394542217254,-0.0139368558302521,0.5617209672927856,0.231662705540657,-0.0224522612988948,0.5473007559776306,0.1503614336252212,-0.0254570953547954,0.5388535857200623,0.0859138369560241,-0.0289918538182973,0.548962414264679,0.3828971087932586,-0.0407697446644306,0.5392306447029114,0.2393853962421417,-0.0494490303099155,0.5328409075737,0.1643847525119781,-0.0518038235604763,0.5321944355964661,0.1053579747676849,-0.0551799796521663,0.5052921175956726,0.4049065411090851,-0.0634821876883506,0.5041596293449402,0.2972896695137024,-0.0738373845815658,0.5057341456413269,0.2357667982578277,-0.0736994221806526,0.5083040595054626,0.1805558800697326,-0.073928564786911
2023-08-01 15:52:01.427109,14,491,0.6526739597320557,0.2082274258136749,0.49190354347229,0.5372978448867798,-0.2451171875,0.9580078125,-0.35595703125,0.5684404373168945,0.611230731010437,1.3180737390428021e-08,0.610633909702301,0.5188559293746948,0.0285217352211475,0.6228452920913696,0.4317789077758789,0.0346049964427948,0.6035895347595215,0.3579652011394501,0.0339617505669593,0.5725223422050476,0.3149507343769073,0.0287783704698085,0.6268997192382812,0.3761453628540039,0.0065097655169665,0.5858238935470581,0.2714508771896362,-0.0040440089069306,0.5522740483283997,0.2282139509916305,-0.0116506442427635,0.5288334488868713,0.1993342339992523,-0.0168128777295351,0.5900832414627075,0.368570327758789,-0.0171573814004659,0.563994824886322,0.2314513921737671,-0.0259171929210424,0.5494483709335327,0.1488415747880935,-0.0304844658821821,0.5408203601837158,0.0835970044136047,-0.0348302796483039,0.547707200050354,0.3782384693622589,-0.038539070636034,0.5342716574668884,0.2434651851654052,-0.0473543442785739,0.5283439755439758,0.1661158055067062,-0.0519287437200546,0.5285099148750305,0.1047976315021514,-0.0565212294459342,0.5036866664886475,0.4007566273212433,-0.0567385517060756,0.4991868436336517,0.2967367470264435,-0.0668449103832244,0.4987231194972992,0.2373630106449127,-0.0673087835311889,0.4998772740364074,0.1832517832517624,-0.0676893889904022
2023-08-01 15:52:01.474248,15,492,0.6398948431015015,0.1967471241950988,0.5147477388381958,0.5355929732322693,-0.3408203125,0.9091796875,-0.27001953125,0.5716660618782043,0.6131827235221863,5.0753300229189335e-08,0.6216030120849609,0.5261147022247314,0.0253489855676889,0.6339480876922607,0.4325796961784363,0.0342142917215824,0.6186861395835876,0.3522500991821289,0.0379665605723857,0.5984973907470703,0.3008535504341125,0.0379977561533451,0.6262551546096802,0.370652437210083,0.0052700694650411,0.5934221744537354,0.2642140388488769,-0.0001575417991261,0.56963050365448,0.2082623988389969,-0.0030191668774932,0.553098201751709,0.1637789607048034,-0.0058103697374463,0.5885804891586304,0.3650547862052917,-0.0144018409773707,0.56011962890625,0.2335191518068313,-0.022560803219676,0.5447995662689209,0.1519259810447693,-0.0273045003414154,0.535910427570343,0.0881949067115783,-0.0310919992625713,0.5457384586334229,0.3753208220005035,-0.0313748382031917,0.5287175178527832,0.2503265738487243,-0.0407520271837711,0.5252249240875244,0.1701428890228271,-0.0481158420443534,0.5263887643814087,0.107128620147705,-0.0540153048932552,0.501870334148407,0.3979793787002563,-0.0449386239051818,0.4948761463165283,0.3010343909263611,-0.0558475293219089,0.4929248988628387,0.242250770330429,-0.0590332634747028,0.4943535327911377,0.1892949491739273,-0.0609038397669792
2023-08-01 15:52:01.534438,16,493,0.6333308815956116,0.1941234469413757,0.526955783367157,0.5324713587760925,-0.09423828125,0.884765625,-0.3212890625,0.5773841142654419,0.6071798205375671,7.55056177581537e-08,0.6295424699783325,0.5231216549873352,0.0203548744320869,0.6431251168251038,0.4253109395503998,0.0280687343329191,0.6323481202125549,0.3365574777126312,0.0321177542209625,0.6205880641937256,0.2749417424201965,0.0330027155578136,0.6247266530990601,0.3641295731067657,0.001597122172825,0.5934832096099854,0.2562801837921142,-0.0037864954210817,0.5720708966255188,0.1981417685747146,-0.0058179758489131,0.557172954082489,0.1518362015485763,-0.0076739233918488,0.5857656598091125,0.3631582260131836,-0.0148902349174022,0.5569761395454407,0.2328101992607116,-0.0242670662701129,0.5409718155860901,0.1526625305414199,-0.0296880584210157,0.5319928526878357,0.0907422006130218,-0.0335005111992359,0.5442023277282715,0.3768472373485565,-0.0288651529699563,0.5255300998687744,0.2527129352092743,-0.0397872440516948,0.5198084115982056,0.1730223894119262,-0.0469541810452938,0.5192120671272278,0.1100781559944152,-0.0518777891993522,0.5021921396255493,0.4040312170982361,-0.039615161716938,0.489146739244461,0.3028489351272583,-0.0513996370136737,0.485524833202362,0.244200587272644,-0.0546116419136524,0.4860471785068512,0.1907729506492614,-0.0559166893362998
2023-08-01 15:52:01.582191,17,494,0.6302856206893921,0.1924119442701339,0.5372533798217773,0.5263804197311401,-0.12744140625,0.89404296875,-0.33984375,0.5839962363243103,0.6119424104690552,2.2457291493083178e-07,0.6454737186431885,0.541949987411499,0.0184910949319601,0.6702216863632202,0.4472600817680359,0.026707312092185,0.6685460805892944,0.3531572222709656,0.033837467432022,0.6603224277496338,0.2837088406085968,0.0391838401556015,0.6347762942314148,0.3582227528095245,-0.0046245218254625,0.6143926382064819,0.240872785449028,-0.0060941064730286,0.6011052131652832,0.1823143362998962,-0.003109554760158,0.5908522009849548,0.1388858258724212,-0.0009166101808659,0.5896070599555969,0.3591177761554718,-0.017314963042736,0.5700486302375793,0.2205188572406768,-0.0263454150408506,0.5584262013435364,0.1384878605604171,-0.0297501683235168,0.5508482456207275,0.0793883502483367,-0.0308856908231973,0.5463312268257141,0.3784494400024414,-0.026334960013628,0.531539797782898,0.2458327412605285,-0.0365815684199333,0.5262806415557861,0.1657935231924057,-0.0432100743055343,0.5243571400642395,0.1056861877441406,-0.0464133471250534,0.5064536929130554,0.4133805930614471,-0.0317340716719627,0.4951973855495453,0.3069488108158111,-0.0416641123592853,0.4920172393321991,0.2488217949867248,-0.0441101789474487,0.4926137328147888,0.1979934424161911,-0.0438142456114292
2023-08-01 15:52:01.630146,18,495,0.6295682191848755,0.1913845092058181,0.5442712903022766,0.5203695893287659,-0.173828125,0.892578125,-0.30224609375,0.5858155488967896,0.6223748922348022,2.2510586461521606e-07,0.6502758860588074,0.548562228679657,0.0142002394422888,0.6754117012023926,0.452879935503006,0.0209127552807331,0.6692931652069092,0.3578687906265259,0.0263507850468158,0.6586902141571045,0.2876291871070862,0.0303877051919698,0.6359724402427673,0.3619349002838135,-0.0008281362825073,0.6147856116294861,0.2412393540143966,-0.003507760586217,0.6018608808517456,0.180714339017868,-0.003303441684693,0.5921972393989563,0.1339111924171447,-0.0030404760036617,0.5883346796035767,0.3632035255432129,-0.0117612732574343,0.5682112574577332,0.2259207367897033,-0.0201456788927316,0.5571306347846985,0.1461956650018692,-0.0248317159712314,0.5493384599685669,0.0864147841930389,-0.027033295482397,0.5453320741653442,0.3827060759067535,-0.0200494062155485,0.5305513143539429,0.2551139891147613,-0.0289728138595819,0.5256631374359131,0.1763097941875457,-0.0352658033370971,0.522064208984375,0.1163478195667266,-0.0385705307126045,0.5079166889190674,0.4179312586784363,-0.0255434326827526,0.4974071085453033,0.3144928514957428,-0.0329408273100853,0.493908017873764,0.2558861076831817,-0.0337720587849617,0.4933935701847076,0.205524668097496,-0.0326285399496555
2023-08-01 15:52:01.677306,19,496,0.6271748542785645,0.1882615834474563,0.5518901348114014,0.5163589715957642,-0.380859375,0.90673828125,-0.40966796875,0.5879916548728943,0.6276441216468811,2.104781913203624e-07,0.6552416682243347,0.5507985353469849,0.0131531096994876,0.6793711185455322,0.4527058601379394,0.0195392873138189,0.6721951365470886,0.3574374616146087,0.0247648786753416,0.6595258712768555,0.288148283958435,0.0284864827990531,0.6391785144805908,0.3672807812690735,-0.0023430793080478,0.6161527633666992,0.2466625422239303,-0.0058532278053462,0.6014097929000854,0.1856214851140976,-0.0064471517689526,0.5899507999420166,0.139049157500267,-0.007048309314996,0.5906253457069397,0.3686753511428833,-0.0130944848060607,0.5697121620178223,0.2315245568752288,-0.0218974687159061,0.5582008957862854,0.1499691307544708,-0.0275562927126884,0.5498955249786377,0.0877258777618408,-0.0310137551277875,0.5465067028999329,0.3872652351856231,-0.0213398318737745,0.5321220755577087,0.2582711577415466,-0.0308558531105518,0.5272096991539001,0.1767057627439499,-0.0384230576455593,0.5234028697013855,0.1139634251594543,-0.0432374216616153,0.5085774660110474,0.4214289486408233,-0.0268437042832374,0.4977757334709167,0.3181361854076385,-0.036430574953556,0.4934771358966827,0.2582835853099823,-0.0392114780843257,0.4915417730808258,0.2063450813293457,-0.0397254005074501
2023-08-01 15:52:01.724559,20,497,0.6255211234092712,0.1872093677520752,0.5550606846809387,0.5153481364250183,-0.26611328125,0.9638671875,-0.36865234375,0.5858227610588074,0.6307268738746643,2.1514647130516098e-07,0.6535552740097046,0.5576655864715576,0.0110458927229046,0.678941547870636,0.4596996307373047,0.0170114245265722,0.669672966003418,0.3625508844852447,0.0223075821995735,0.6597186923027039,0.2917003631591797,0.0263224337249994,0.6362494230270386,0.3705171942710876,-0.00284237973392,0.6146994829177856,0.2523365914821625,-0.0061832861974835,0.6002642512321472,0.1911800503730774,-0.0067241243086755,0.588394284248352,0.1423200666904449,-0.007557516451925,0.5872923731803894,0.3711401224136352,-0.0126992296427488,0.5682814121246338,0.2358272820711136,-0.0217253994196653,0.556979238986969,0.1548994332551956,-0.0273381248116493,0.5490290522575378,0.0918160080909729,-0.0307940896600484,0.5439483523368835,0.3900483250617981,-0.0202318709343671,0.5300967693328857,0.2618380784988403,-0.0297410041093826,0.5251106023788452,0.1819742023944854,-0.0365666784346103,0.5215209126472473,0.118263691663742,-0.0410164482891559,0.5065637230873108,0.4254255890846252,-0.0253202784806489,0.4955858290195465,0.3225043714046478,-0.035013623535633,0.4912039339542389,0.262971431016922,-0.0376274026930332,0.4890168905258178,0.2094352394342422,-0.038026887923479
2023-08-01 15:52:01.770252,21,498,0.6241850256919861,0.1868614852428436,0.5545392632484436,0.5176506042480469,-0.30419921875,0.93701171875,-0.39453125,0.5771628022193909,0.6376091837882996,2.1017349638441374e-07,0.6469295024871826,0.5683479309082031,0.0144062079489231,0.6752738356590271,0.4717301726341247,0.0226139836013317,0.6703758835792542,0.3743190765380859,0.029976513236761,0.6596992611885071,0.305372953414917,0.0360855758190155,0.6359604597091675,0.3786065578460693,0.0006871169316582,0.6154001355171204,0.259587824344635,-0.0006229434511624,0.6001390814781189,0.1974012106657028,0.0003327091690152,0.587644100189209,0.149000883102417,0.0007253687363117,0.5854457020759583,0.377573162317276,-0.0095423981547355,0.5655577778816223,0.2401480227708816,-0.0174604710191488,0.5537322163581848,0.1595048904418945,-0.0210026893764734,0.5462515354156494,0.0978464782238006,-0.0223169457167387,0.5394232273101807,0.3945886194705963,-0.0170957427471876,0.5265672206878662,0.263819545507431,-0.0255000367760658,0.5217231512069702,0.1840294003486633,-0.0305060241371393,0.5188030004501343,0.1216033399105072,-0.0331081636250019,0.499163806438446,0.4279563724994659,-0.0218484066426754,0.4899458289146423,0.3235729038715362,-0.0294001791626214,0.4861885011196136,0.2652138769626617,-0.0297455992549657,0.4852765202522278,0.214322954416275,-0.0281812734901905
2023-08-01 15:52:01.816744,22,499,0.6243728399276733,0.1863341331481933,0.5529914498329163,0.5192674398422241,-0.265625,0.9140625,-0.259765625,0.5654109716415405,0.6539376974105835,2.546276505199785e-07,0.637277364730835,0.5826436281204224,0.0151366218924522,0.6659420132637024,0.4863631725311279,0.02213423140347,0.6568890810012817,0.383768767118454,0.0289754550904035,0.6459266543388367,0.3085902631282806,0.035120490938425,0.6242368817329407,0.3924894332885742,-0.0016584936529397,0.6010574698448181,0.2647533416748047,-2.961310201499145e-05,0.5856606960296631,0.2038437128067016,0.0045108697377145,0.5732190012931824,0.156796395778656,0.007773945108056,0.5701287984848022,0.3922283351421356,-0.010670892894268,0.5504090785980225,0.2477856874465942,-0.0150601333007216,0.5383621454238892,0.1668261587619781,-0.0153884198516607,0.5303444266319275,0.1085039675235748,-0.0147183155640959,0.522102415561676,0.4107104241847992,-0.0164171811193227,0.5075777173042297,0.2756099998950958,-0.019879026338458,0.5032252669334412,0.1970330774784088,-0.021485585719347,0.5004962682723999,0.1371711194515228,-0.0227275174111127,0.4821667075157165,0.4439841210842132,-0.0192753113806247,0.4726488888263702,0.3353188633918762,-0.0219270903617143,0.4700484573841095,0.2789537012577057,-0.0194109734147787,0.4701229929924011,0.2296484261751175,-0.0163768976926803
2023-08-01 15:52:01.865993,23,500,0.6273495554924011,0.1869574040174484,0.5489221215248108,0.5197728872299194,-0.185546875,0.8701171875,-0.296875,0.5609353184700012,0.6580324172973633,2.464799422341457e-07,0.6331547498703003,0.5869206190109253,0.0162336472421884,0.6650183796882629,0.4891921579837799,0.0251940172165632,0.6580531597137451,0.3867362141609192,0.0339374430477619,0.6439830660820007,0.3132016062736511,0.0419075228273868,0.6203991770744324,0.3953293859958648,0.0013951291330158,0.6004666686058044,0.2695770263671875,0.0040775230154395,0.5852965712547302,0.2069307267665863,0.0086530400440096,0.5730226039886475,0.1577524542808532,0.0115163438022136,0.5667832493782043,0.3929118812084198,-0.0076985550113022,0.5478837490081787,0.2489923536777496,-0.0121304951608181,0.5367521047592163,0.1665243655443191,-0.0130499741062521,0.5301218628883362,0.1046070456504821,-0.0127156600356101,0.51957768201828,0.4093803465366363,-0.0135643975809216,0.5073620080947876,0.2740339040756225,-0.0184480622410774,0.5042592883110046,0.192952811717987,-0.0220477133989334,0.5020925402641296,0.1303132176399231,-0.0240753646939992,0.4803633093833923,0.4420085251331329,-0.0163209177553653,0.4711195528507232,0.3329682946205139,-0.0197510905563831,0.4669603705406189,0.2745921015739441,-0.0181598886847496,0.4653621613979339,0.2238276451826095,-0.0156663432717323
2023-08-01 15:52:01.925085,24,501,0.6309512853622437,0.1897836029529571,0.5426698327064514,0.5209529995918274,-0.2470703125,0.86669921875,-0.36962890625,0.5615575313568115,0.6539342999458313,2.39516509736859e-07,0.6327493786811829,0.5816844701766968,0.0117730544880032,0.6636759638786316,0.4820897281169891,0.0189808122813701,0.6561390161514282,0.3817571103572845,0.0261538121849298,0.6428844332695007,0.3099008202552795,0.0322800390422344,0.6176512241363525,0.3900947272777557,-0.0023654724936932,0.5969436168670654,0.2656252384185791,-0.0024822899140417,0.5827109813690186,0.2031213939189911,-0.0002822162059601,0.571277379989624,0.1539707779884338,0.0007306071929633,0.5652785897254944,0.3889172673225403,-0.0110036917030811,0.5454381704330444,0.2469798475503921,-0.0157493818551301,0.5351257920265198,0.1643840819597244,-0.0179844126105308,0.5291697978973389,0.1019657850265502,-0.0194233283400535,0.5190339684486389,0.406586080789566,-0.0171680469065904,0.5059370398521423,0.2716010212898254,-0.0233357232064008,0.5028968453407288,0.1912987977266311,-0.0285629834979772,0.5011559128761292,0.1277233362197876,-0.0324758142232894,0.480507493019104,0.4402406215667724,-0.0207614358514547,0.4706969261169433,0.3330172002315521,-0.0283436235040426,0.4662930965423584,0.2737630009651184,-0.0299396775662899,0.4646086096763611,0.2203477919101715,-0.0298307705670595
2023-08-01 15:52:01.978807,25,502,0.6399003267288208,0.1989853382110595,0.5286485552787781,0.5210211873054504,-0.30224609375,0.88916015625,-0.310546875,0.5605751276016235,0.6532294154167175,2.2825024359462986e-07,0.6324872374534607,0.5796831846237183,0.0125007405877113,0.6617164015769958,0.4785856306552887,0.0204710625112056,0.6537931561470032,0.3791204988956451,0.0283041857182979,0.6406326293945312,0.307805061340332,0.0352015420794487,0.617718517780304,0.3894203305244446,-0.0011407895945012,0.5961815714836121,0.2655144035816192,-0.0013137307250872,0.5809205174446106,0.2019647806882858,0.0006904361071065,0.5680074691772461,0.1518566906452179,0.0015756076900288,0.5657975673675537,0.3868100345134735,-0.0097506325691938,0.5463336706161499,0.2466872930526733,-0.0149189131334424,0.5348892211914062,0.1647459268569946,-0.0174132604151964,0.5275462865829468,0.1019409000873565,-0.0188627000898122,0.5191434621810913,0.4026205539703369,-0.0158042702823877,0.5067092776298523,0.2692670226097107,-0.0218079648911952,0.5031752586364746,0.188762679696083,-0.0266726799309253,0.5006497502326965,0.1247578263282775,-0.0301872547715902,0.479482501745224,0.4354119598865509,-0.0193026755005121,0.4700807332992553,0.3283199667930603,-0.0260866712778806,0.4655529856681824,0.2695255279541015,-0.026954436674714,0.4632058143615722,0.217027336359024,-0.0262852385640144
2023-08-01 15:52:02.042832,26,503,0.6581520438194275,0.2206132262945175,0.4992572665214538,0.5185633301734924,-0.32861328125,0.919921875,-0.27197265625,0.5628310441970825,0.6499496698379517,2.23809763610916e-07,0.6336689591407776,0.5758481621742249,0.0121433893218636,0.6623061895370483,0.4754977524280548,0.0197378285229206,0.654144823551178,0.3771227300167084,0.0274435188621282,0.6405755877494812,0.3076078295707702,0.0340981781482696,0.6168985366821289,0.384785532951355,-0.0042196623980998,0.5960420370101929,0.2626324295997619,-0.0048045376315712,0.5807380080223083,0.1999851316213607,-0.002369228284806,0.568029522895813,0.1509622037410736,-0.0014108925824984,0.5659770965576172,0.3832774460315704,-0.0131810093298554,0.546868622303009,0.2437512278556823,-0.0206390395760536,0.5359233617782593,0.160803884267807,-0.0244384072721004,0.5287099480628967,0.0967798829078674,-0.0267736371606588,0.5204440355300903,0.4009566605091095,-0.0193090625107288,0.5071727633476257,0.2685813903808594,-0.0276947151869535,0.5032349228858948,0.1872501969337463,-0.0344483628869056,0.5003671050071716,0.1218165755271911,-0.0391452796757221,0.4819443821907043,0.4364597201347351,-0.0226573627442121,0.4711166024208069,0.3304007649421692,-0.031959731131792,0.4661293029785156,0.2705793380737304,-0.0350266247987747,0.4634910523891449,0.2161101847887039,-0.0359406806528568
2023-08-01 15:52:02.100597,27,504,0.679829478263855,0.2490801960229873,0.4606752097606659,0.5133899450302124,-0.20751953125,0.91455078125,-0.24658203125,0.5624475479125977,0.6475473046302795,2.486722223693505e-07,0.6325893998146057,0.5736231803894043,0.0112537099048495,0.661437451839447,0.4735354483127594,0.0181202795356512,0.6539889574050903,0.375052660703659,0.0246999077498912,0.6406303644180298,0.3039980828762054,0.0303257200866937,0.6156088709831238,0.3811875581741333,-0.0021445588208734,0.5947408080101013,0.2580703198909759,-0.0035790679976344,0.5804838538169861,0.1956325322389602,-0.00225212238729,0.568912148475647,0.1468865275382995,-0.0017810964491218,0.5651076436042786,0.3805592656135559,-0.0111038871109485,0.5466948747634888,0.2423212975263595,-0.0184815414249897,0.5355660319328308,0.159814640879631,-0.0229848977178335,0.5279783010482788,0.0959027409553527,-0.0257782619446516,0.5197014808654785,0.3984717726707458,-0.0176532790064811,0.5063409805297852,0.2681934833526611,-0.0258231163024902,0.5014535188674927,0.1876453161239624,-0.0325321331620216,0.4977357387542724,0.1231504380702972,-0.0370980538427829,0.4808138906955719,0.4333437979221344,-0.0216763503849506,0.4702367186546325,0.3284383416175842,-0.0301700681447982,0.46532142162323,0.2690038681030273,-0.0325646996498107,0.462801456451416,0.215622991323471,-0.0329397022724151
2023-08-01 15:52:02.157992,28,505,0.7041075229644775,0.2804706394672394,0.4110976457595825,0.506524920463562,-0.255859375,0.94775390625,-0.28369140625,0.5662278532981873,0.6469805240631104,1.759048586791323e-07,0.6307900547981262,0.5655244588851929,0.015788672491908,0.6565873622894287,0.4648843705654144,0.0226726587861776,0.6441429257392883,0.3694323599338531,0.0275541972368955,0.6228386163711548,0.3047968447208404,0.0299221314489841,0.6226740479469299,0.383280485868454,-0.0026662701275199,0.5968001484870911,0.2637124359607696,-0.00651840493083,0.5789055824279785,0.2026018798351287,-0.0071944161318242,0.5664398074150085,0.1553281843662262,-0.0082167275249958,0.5745880007743835,0.3811886310577392,-0.0160520374774932,0.5499236583709717,0.2434556931257248,-0.0244751665741205,0.5364344716072083,0.1607593894004821,-0.0301925484091043,0.5288848280906677,0.097207099199295,-0.0342424027621746,0.5287442207336426,0.3975325226783752,-0.0267838817089796,0.5108353495597839,0.268354594707489,-0.0364357829093933,0.5045472383499146,0.1853743940591812,-0.0453400760889053,0.5015525221824646,0.1194778680801391,-0.0518381595611572,0.486629843711853,0.4301803708076477,-0.0345291197299957,0.4737042784690857,0.3231925666332245,-0.0449894145131111,0.4684490859508514,0.2631359994411468,-0.048898234963417,0.4662100672721863,0.207919180393219,-0.0507712960243225
2023-08-01 15:52:02.206798,29,506,0.7198938727378845,0.2996372580528259,0.3724769949913025,0.503220796585083,-0.392578125,0.90966796875,-0.232421875,0.567415714263916,0.6430621147155762,1.7885089675928614e-07,0.6289170384407043,0.5623947978019714,0.014383902773261,0.655973494052887,0.4631655514240265,0.0196221377700567,0.6438915133476257,0.3682258725166321,0.022852711379528,0.6239404678344727,0.3024339079856872,0.0233428813517093,0.6214863061904907,0.3829785287380218,-0.0043643140234053,0.5952397584915161,0.2653935253620147,-0.0100013278424739,0.5778986215591431,0.2030820995569229,-0.0123084699735045,0.5654107928276062,0.1535320580005645,-0.0144065031781792,0.5747907161712646,0.3807208240032196,-0.01822922937572,0.549890398979187,0.241906076669693,-0.0271528121083974,0.5366032719612122,0.1580986529588699,-0.033171996474266,0.5294116139411926,0.092865914106369,-0.0376034714281559,0.5294780731201172,0.3962171375751495,-0.0297272522002458,0.5121524333953857,0.2665357589721679,-0.0397969931364059,0.5067817568778992,0.1836156547069549,-0.0482932217419147,0.5051978826522827,0.1169737577438354,-0.0546852424740791,0.4867378175258636,0.4276027083396911,-0.0384690165519714,0.4744577407836914,0.3213875591754913,-0.0495510995388031,0.4695068299770355,0.2608186304569244,-0.053265493363142,0.46734619140625,0.2042908519506454,-0.055029634386301
2023-08-01 15:52:02.265980,30,507,0.755557119846344,0.3524158596992492,0.2740616798400879,0.4794023931026459,0.26708984375,0.94873046875,-0.11474609375,0.5672128796577454,0.6388551592826843,1.9141222651342105e-07,0.6282374858856201,0.5585864782333374,0.0170798115432262,0.6516503095626831,0.459294855594635,0.0239185784012079,0.6433320641517639,0.3648932576179504,0.0281131993979215,0.6247613430023193,0.2990912497043609,0.0297147966921329,0.6182532906532288,0.37739297747612,-0.0009327245061285,0.5907941460609436,0.2605236172676086,-0.0066729667596518,0.5745165348052979,0.1972428560256958,-0.0091912755742669,0.5636969804763794,0.1471041440963745,-0.0111053436994552,0.5739173889160156,0.3750782310962677,-0.0155764808878302,0.5491437911987305,0.2375927716493606,-0.025245701894164,0.5361068248748779,0.1522480845451355,-0.0317324884235858,0.529044508934021,0.0864697098731994,-0.0360693372786045,0.5298953652381897,0.3905243277549743,-0.0276527516543865,0.5125389695167542,0.2626583576202392,-0.0374618954956531,0.5069851875305176,0.1794216930866241,-0.0451375469565391,0.5055749416351318,0.1127071678638458,-0.0505642741918563,0.4871065318584442,0.4224608242511749,-0.0369020886719226,0.4751766622066498,0.3173542320728302,-0.0468294583261013,0.4707746505737304,0.2568598985671997,-0.0495195798575878,0.4690166711807251,0.2009731829166412,-0.0503937453031539
2023-08-01 15:52:02.316955,31,508,0.7686253190040588,0.3688433468341827,0.2278039157390594,0.4703989923000335,-0.611328125,0.99072265625,-0.11181640625,0.5707950592041016,0.635543942451477,1.543449741348013e-07,0.6259503960609436,0.5500772595405579,0.0150425322353839,0.6497893333435059,0.4535768032073974,0.0187920834869146,0.6324833631515503,0.3667510151863098,0.0196786541491746,0.6051096320152283,0.3112804293632507,0.0169444531202316,0.6209781169891357,0.3793522715568542,-0.0047911345027387,0.5919442176818848,0.263656735420227,-0.0141179477795958,0.5719413757324219,0.2005074918270111,-0.0195083823055028,0.5580097436904907,0.1499840915203094,-0.0235875435173511,0.5776468515396118,0.3749864101409912,-0.020836217328906,0.5502799153327942,0.2392360121011734,-0.0314004048705101,0.5353112816810608,0.1558382362127304,-0.0389431193470954,0.5272453427314758,0.0909112095832824,-0.0445776656270027,0.5338965058326721,0.3898760378360748,-0.0348391272127628,0.5158109664916992,0.2607235312461853,-0.0469588488340377,0.5103137493133545,0.1770339012145996,-0.0573073364794254,0.5101897716522217,0.1098652482032775,-0.0650263503193855,0.490965187549591,0.420737624168396,-0.0460590794682502,0.4791055917739868,0.3170719444751739,-0.059589497745037,0.4752382040023803,0.2566918134689331,-0.064753420650959,0.4749190807342529,0.2002637535333633,-0.0676184669137001
2023-08-01 15:52:02.377010,32,509,0.7931680083274841,0.4176152646541595,0.1078434213995933,0.4299438297748565,0.359375,0.85986328125,0.07421875,0.5670967102050781,0.6226758360862732,-1.520340298100109e-08,0.6030269861221313,0.5281141996383667,0.0382479019463062,0.6112059354782104,0.4478428661823272,0.0499117709696292,0.6017223000526428,0.3881571292877197,0.0526081062853336,0.5802599191665649,0.345436692237854,0.0511339344084262,0.6110919117927551,0.3696000277996063,0.0168648064136505,0.5683000087738037,0.2636435329914093,0.0087956087663769,0.5345916748046875,0.2192735075950622,0.0035812577698379,0.5122458934783936,0.1868825107812881,-0.0006188186816871,0.5881565809249878,0.3665691018104553,-0.0125925550237298,0.5564583539962769,0.2267660796642303,-0.0225918628275394,0.5385945439338684,0.1420306861400604,-0.0267625693231821,0.5269101858139038,0.0729924142360687,-0.0309246592223644,0.553507387638092,0.3798359632492065,-0.0394410602748394,0.5348005890846252,0.2403031885623932,-0.0506839267909526,0.5252702236175537,0.1592716872692108,-0.0558165796101093,0.522457480430603,0.0931474864482879,-0.060650248080492,0.5112679600715637,0.4025472998619079,-0.0623957142233848,0.5028334259986877,0.2945819497108459,-0.0775378569960594,0.5018636584281921,0.2288363873958587,-0.0818637013435363,0.5043279528617859,0.1706935167312622,-0.0847793295979499
2023-08-01 15:52:02.437970,33,510,0.8016588687896729,0.4332086145877838,0.0532115250825881,0.4084628224372864,-0.404296875,0.921875,0.1015625,0.5528594851493835,0.6273062825202942,-4.806232922760501e-08,0.5850167274475098,0.5385754704475403,0.0324162244796752,0.5965959429740906,0.4516481757164001,0.0455906726419925,0.5962879061698914,0.3909585773944855,0.0506624691188335,0.5907706022262573,0.3513607382774353,0.052884642034769,0.5940066576004028,0.3723128139972687,0.0238981172442436,0.565083920955658,0.2704358696937561,0.0153452344238758,0.543674886226654,0.2025223076343536,0.0085869114845991,0.5269486904144287,0.1457579731941223,0.0025726649910211,0.5812022089958191,0.3687035739421844,-0.0035516005009412,0.5567790269851685,0.2386661320924759,-0.0162213761359453,0.5428908467292786,0.1511625498533249,-0.0240093003958463,0.5318471193313599,0.0746350586414337,-0.0298340916633605,0.5543392300605774,0.3757696151733398,-0.0297551583498716,0.5383979678153992,0.2475566118955612,-0.0426471754908561,0.5302132964134216,0.1655610203742981,-0.0503005869686603,0.5263123512268066,0.0937240123748779,-0.0559334009885787,0.5168547630310059,0.3898941874504089,-0.0533036887645721,0.5093866586685181,0.2898341715335846,-0.0683760568499565,0.5087109804153442,0.224113255739212,-0.0749679952859878,0.5111919641494751,0.1653498858213424,-0.0794931054115295
2023-08-01 15:52:02.484279,34,511,0.8056432008743286,0.4585222899913788,-0.0326305292546749,0.3736730515956878,-0.0947265625,0.94140625,0.18701171875,0.5529706478118896,0.6279653310775757,-3.233463274909809e-08,0.5743184089660645,0.5274485349655151,0.035322330892086,0.5792505145072937,0.4359370470046997,0.0458122678101062,0.5697504281997681,0.3701852560043335,0.0467282831668853,0.559280514717102,0.3223959803581238,0.0447232946753501,0.5888672471046448,0.3799528479576111,0.022066056728363,0.5628893375396729,0.267145574092865,0.0111100524663925,0.5434144139289856,0.1927167624235153,0.0035578098613768,0.5306912064552307,0.1292633116245269,-0.0029230767395347,0.5810378193855286,0.3772235214710235,-0.0087533248588442,0.5559055805206299,0.2403148412704467,-0.022221066057682,0.5419756770133972,0.1537056267261505,-0.0309441275894641,0.5342157483100891,0.0810966491699218,-0.038382165133953,0.5589594841003418,0.3830688297748565,-0.038213238120079,0.5454636812210083,0.2458014637231826,-0.0495205707848072,0.5363776087760925,0.1612276136875152,-0.0579899959266185,0.5336488485336304,0.0896333754062652,-0.0660384893417358,0.5271376371383667,0.3932402729988098,-0.0649868100881576,0.5239381790161133,0.2900883555412292,-0.0783431828022003,0.5246899724006653,0.2230813801288604,-0.0863008946180343,0.527520477771759,0.1637207418680191,-0.0932110473513603
2023-08-01 15:52:02.531920,35,512,0.8054426312446594,0.4725908935070038,-0.0855987817049026,0.34726482629776,-0.01708984375,0.89453125,0.3212890625,0.547547459602356,0.6303028464317322,-5.934446889455104e-08,0.5547018051147461,0.5354665517807007,0.0369093306362628,0.5603237748146057,0.4475679993629455,0.0473364442586898,0.5573781728744507,0.3835978209972381,0.0483111254870891,0.5517355799674988,0.3364141285419464,0.0469185374677181,0.5810608267784119,0.3779819309711456,0.020572492852807,0.555738091468811,0.2605498135089874,0.00855303555727,0.5377692580223083,0.1847313940525055,0.0004381877952255,0.527276337146759,0.1211852133274078,-0.0062914155423641,0.5797091722488403,0.3783297836780548,-0.0106281461194157,0.5502867698669434,0.2392144203186035,-0.0256374757736921,0.534982442855835,0.1529879420995712,-0.0347153097391128,0.5281361937522888,0.0837146639823913,-0.0425554811954498,0.5612713694572449,0.3864001035690307,-0.0402887277305126,0.5446487665176392,0.2441138625144958,-0.0525795705616474,0.5342568755149841,0.1588056236505508,-0.05996835231781,0.531439483165741,0.0880776941776275,-0.0672768577933311,0.5309496521949768,0.3969215154647827,-0.0670863762497901,0.5280196070671082,0.2919085919857025,-0.0816327109932899,0.5282352566719055,0.2254693806171417,-0.0899752378463745,0.5304512977600098,0.1670618206262588,-0.097170166671276
2023-08-01 15:52:02.578790,36,513,0.7995789647102356,0.4874875247478485,-0.1539607942104339,0.3151594400405884,-0.1435546875,0.947265625,0.2431640625,0.5368332862854004,0.638771653175354,4.00799144983921e-08,0.49459308385849,0.5459612607955933,0.0186514575034379,0.5056861042976379,0.4488126337528229,0.0241914726793766,0.5225174427032471,0.3838591277599334,0.0232862327247858,0.5374358296394348,0.3352699279785156,0.0214862003922462,0.5685842633247375,0.3785386085510254,0.0179629400372505,0.5501409769058228,0.2663207054138183,0.005362547468394,0.5358632206916809,0.1866667419672012,-0.0060394909232854,0.5289003252983093,0.1203929185867309,-0.0155061809346079,0.5756018161773682,0.3776060342788696,-0.0043284990824759,0.5450682640075684,0.2435737997293472,-0.0204178020358085,0.5290302634239197,0.1565034687519073,-0.0334030501544475,0.523213267326355,0.0847962498664856,-0.0433111228048801,0.5654828548431396,0.3839303851127624,-0.0272347442805767,0.5461766719818115,0.2486165910959243,-0.0441833212971687,0.5352743864059448,0.1612002849578857,-0.0554445013403892,0.532257616519928,0.0882548391819,-0.0637485384941101,0.5400005578994751,0.3919174075126648,-0.0491331331431865,0.5371111631393433,0.291532427072525,-0.0646252632141113,0.5376797914505005,0.2267331629991531,-0.0730436667799949,0.5422595739364624,0.1678078323602676,-0.0797271579504013
2023-08-01 15:52:02.639945,37,514,0.7860896587371826,0.5039964914321899,-0.240677461028099,0.2648110687732696,0.232421875,0.90771484375,0.333984375,0.5011688470840454,0.6316596269607544,1.8593372885789003e-07,0.4496377110481262,0.5491588115692139,0.0030402368865907,0.4485252499580383,0.4437097907066345,0.0088128615170717,0.4612243771553039,0.3742069602012634,0.0099986530840396,0.466985821723938,0.3176977932453155,0.0120519446209073,0.4810500741004944,0.3484586477279663,0.0267832968384027,0.4839674234390259,0.2465594261884689,0.0177400764077901,0.4839750528335571,0.1814102381467819,0.0068767829798161,0.4853504002094269,0.1261577606201172,-0.0018779342062771,0.5031764507293701,0.3421705365180969,0.0120981661602854,0.5083044767379761,0.2271737903356552,0.0015839874977245,0.510233461856842,0.1506722867488861,-0.0102762095630168,0.5132148265838623,0.0858783423900604,-0.0185135547071695,0.522578239440918,0.3518012166023254,-0.0061645158566534,0.5341541767120361,0.2388000190258026,-0.0165283605456352,0.5409200191497803,0.1698228269815445,-0.0252159517258405,0.5464209914207458,0.1126157343387603,-0.0316412411630153,0.5390836000442505,0.3762896358966827,-0.0259867291897535,0.5507460832595825,0.2903255820274353,-0.0331244282424449,0.5569063425064087,0.2338378131389618,-0.036188781261444,0.5613933205604553,0.1849958300590515,-0.0391434803605079
2023-08-01 15:52:02.685672,38,515,0.7801540493965149,0.5071272253990173,-0.2727452516555786,0.2445233911275863,-0.25634765625,0.9130859375,0.24365234375,0.5052849650382996,0.6359348297119141,1.5046455814626825e-07,0.4502800107002258,0.5477215647697449,0.0145762450993061,0.4498791396617889,0.4380394220352173,0.0264532975852489,0.4627594649791717,0.364965558052063,0.0305877868086099,0.4665209352970123,0.3076403737068176,0.0346404761075973,0.4828332364559173,0.3499889373779297,0.0442476123571395,0.4824852347373962,0.2508433163166046,0.0398031063377857,0.4789637327194214,0.1879703104496002,0.030528163537383,0.4778693318367004,0.1313048005104065,0.0217094309628009,0.5055781602859497,0.3419479131698608,0.0230492185801267,0.5099748969078064,0.2287448495626449,0.0165128279477357,0.5098375082015991,0.1526642441749572,0.0048659993335604,0.5098131895065308,0.0866810381412506,-0.0041765966452658,0.5256273150444031,0.3528327941894531,-0.0015461188741028,0.538262665271759,0.2400997877120971,-0.0090705761685967,0.5438281297683716,0.1699846088886261,-0.0175528079271316,0.5480649471282959,0.110877513885498,-0.0248547662049531,0.5424339771270752,0.3775792419910431,-0.0270999986678361,0.5511072278022766,0.2902406454086303,-0.0326971374452114,0.5571645498275757,0.2327438592910766,-0.0352340303361415,0.5631179809570312,0.183740958571434,-0.0387023352086544
2023-08-01 15:52:02.733189,39,516,0.7685812711715698,0.5105006694793701,-0.3198663294315338,0.2153076827526092,0.10888671875,0.916015625,0.3857421875,0.4949338734149933,0.6353309154510498,2.013694455627047e-07,0.4346079230308532,0.5613468885421753,-0.0003816608514171,0.4252894222736358,0.4548960328102112,0.0059872749261558,0.4386752843856811,0.3760244846343994,0.0067498194985091,0.4407046437263489,0.3134672343730926,0.0075475969351828,0.4651471972465515,0.3507077693939209,0.0384851731359958,0.4646757841110229,0.2595056891441345,0.0331322662532329,0.4626435041427612,0.2016080170869827,0.0198418051004409,0.4634953737258911,0.1456233859062194,0.0075520193204283,0.4932578206062317,0.3380315005779266,0.0241244547069072,0.495909720659256,0.230654627084732,0.0206714365631341,0.4953859150409698,0.1571903377771377,0.0062275193631649,0.4963034987449646,0.0902028083801269,-0.006628833245486,0.5181313157081604,0.3478530943393707,0.0047868574038147,0.5282082557678223,0.2430433630943298,-0.0016330963699147,0.5330674052238464,0.1761152297258377,-0.0134324710816144,0.5359134078025818,0.1170533299446106,-0.0242404341697692,0.5405473709106445,0.3722480535507202,-0.0169998239725828,0.5498107671737671,0.2887071967124939,-0.0238923933357,0.5559751391410828,0.2324225455522537,-0.0291271787136793,0.5605366230010986,0.1807797253131866,-0.0349334068596363
2023-08-01 15:52:02.778272,40,517,0.7645687460899353,0.5100346207618713,-0.3376253545284271,0.2032445222139358,-0.001953125,0.8984375,0.35107421875,0.4939395487308502,0.6363799571990967,2.160013679031181e-07,0.4320428669452667,0.5684077739715576,-0.0044803922064602,0.4164282381534576,0.4620823860168457,9.36079741222784e-05,0.4264534711837768,0.3804073631763458,-0.0001850631524575,0.4279429614543915,0.3146117329597473,2.5076662495848723e-05,0.4572049379348755,0.3536901175975799,0.0351222343742847,0.4556492865085602,0.2610487937927246,0.0285847559571266,0.4559278190135956,0.2034710943698883,0.014269670471549,0.4595383405685425,0.1474882662296295,0.0012296432396396,0.4871988594532013,0.3410271108150482,0.0224446076899766,0.4862629771232605,0.2336616367101669,0.0177885834127664,0.486307144165039,0.161587968468666,0.0023575259838253,0.4876307845115661,0.0951440036296844,-0.0113188726827502,0.5138648748397827,0.3501416146755218,0.0044218227267265,0.5207319855690002,0.246999129652977,-0.0026142378337681,0.5268122553825378,0.1829946190118789,-0.0145166376605629,0.5306951403617859,0.1262441277503967,-0.0255300309509038,0.5398948192596436,0.3739172220230102,-0.0164451058954,0.5477887392044067,0.2912314832210541,-0.0235378947108984,0.5543005466461182,0.2375261634588241,-0.0286891907453537,0.5590623617172241,0.1873309910297393,-0.0345965363085269
2023-08-01 15:52:02.823799,41,518,0.7594778537750244,0.509614884853363,-0.3565787374973297,0.1906242221593856,0.029296875,0.92333984375,0.400390625,0.4918212294578552,0.637688934803009,2.238827079281691e-07,0.4281869828701019,0.5724363923072815,-0.0068157478235661,0.4096871018409729,0.4644124507904053,-0.0020989726763218,0.4184461236000061,0.3793697357177734,-0.001557775074616,0.415840208530426,0.315595269203186,-0.0002279037144035,0.4511741697788238,0.354810357093811,0.0345302559435367,0.448363184928894,0.2631505727767944,0.0276004206389188,0.4492018222808838,0.2058377712965011,0.0128272166475653,0.4532366394996643,0.1502940505743026,-0.0004072688170708,0.4835747480392456,0.3416534066200256,0.0236729513853788,0.4811969697475433,0.2356456816196441,0.0191757474094629,0.4805893898010254,0.1644940674304962,0.0040194801986217,0.4810992777347564,0.0985284149646759,-0.0092230262234807,0.5128547549247742,0.3508778214454651,0.0072041382081806,0.517297089099884,0.2499400824308395,0.000348313129507,0.521507740020752,0.1874545663595199,-0.0105038722977042,0.5234650373458862,0.1317069828510284,-0.0205478351563215,0.5421082377433777,0.375120609998703,-0.0123857762664556,0.5485993027687073,0.2946281731128692,-0.0188661329448223,0.5530718564987183,0.2428058534860611,-0.0229812040925025,0.5556492805480957,0.1935672163963318,-0.0279193613678216
2023-08-01 15:52:02.870707,42,519,0.7552036643028259,0.5082736015319824,-0.3710865676403045,0.1833576560020446,0.076171875,0.9140625,0.46435546875,0.4926763474941253,0.6384680271148682,2.155508127543726e-07,0.4290804266929626,0.5771686434745789,-0.0081588542088866,0.4059371948242187,0.4664573669433594,-0.0025420279707759,0.4115970134735107,0.3793980181217193,-0.0005560293793678,0.4081258773803711,0.317730963230133,0.0024024017620831,0.4466971158981323,0.3567360937595367,0.0340042412281036,0.4427276253700256,0.2662166655063629,0.0283976886421442,0.4441695213317871,0.2108590751886367,0.0143170459195971,0.4484347999095917,0.1568576097488403,0.0014188995119184,0.4804199934005737,0.34305340051651,0.0246669203042984,0.477179080247879,0.2378169894218444,0.0216414332389831,0.4769370555877685,0.1687583178281784,0.0072497366927564,0.4773475229740143,0.1039091348648071,-0.0055249934084713,0.5109315514564514,0.3524031639099121,0.0096527375280857,0.5139225721359253,0.2536273002624511,0.0040688742883503,0.5176634788513184,0.1917763948440551,-0.0065835914574563,0.5194694399833679,0.1366716921329498,-0.0167452171444892,0.5425301790237427,0.3768139779567718,-0.0085629764944314,0.5474123358726501,0.2986111640930176,-0.0138519704341888,0.5508698225021362,0.2484522759914398,-0.0175073631107807,0.5528524518013,0.2002524733543396,-0.0223479121923446
2023-08-01 15:52:02.931199,43,520,0.7540238499641418,0.5070556998252869,-0.3751424252986908,0.1833322197198867,0.0986328125,0.9384765625,0.3125,0.4897639751434326,0.6406058669090271,2.010832389487405e-07,0.4247858226299286,0.5810428857803345,-0.0076543916948139,0.4006995856761932,0.4719924628734588,-0.0007357404101639,0.4063685238361358,0.3853150904178619,0.002938168356195,0.401030033826828,0.3238506615161896,0.0078599760308861,0.4410850405693054,0.3586742579936981,0.0346316322684288,0.4348966181278229,0.268419086933136,0.0296851601451635,0.4351106584072113,0.212707906961441,0.0159074384719133,0.4380557537078857,0.1590320467948913,0.003386378288269,0.4763009548187256,0.3448954820632934,0.0257303062826395,0.4713259637355804,0.239349752664566,0.0241741351783275,0.4702341854572296,0.170837715268135,0.0109262093901634,0.4696521759033203,0.1072096228599548,-0.0010235576191917,0.5075699090957642,0.354203462600708,0.0112091563642025,0.508669376373291,0.2559428215026855,0.0070920190773904,0.5111011266708374,0.1951458752155304,-0.0018318522488698,0.5125980973243713,0.1409908533096313,-0.0109160216525197,0.5406847596168518,0.3791568279266357,-0.0065757534466683,0.543485164642334,0.3020055294036865,-0.010506210848689,0.5456639528274536,0.2533071041107178,-0.0126947872340679,0.5472349524497986,0.2061249911785125,-0.0164157710969448
2023-08-01 15:52:02.993087,44,521,0.7540814280509949,0.5060240030288696,-0.3768703043460846,0.1823998391628265,0.12841796875,0.9033203125,0.44921875,0.4861374497413635,0.6459805965423584,1.889514180675178e-07,0.416536420583725,0.5897709727287292,-0.0098405303433537,0.3867470622062683,0.4835304021835327,-0.0018438290571793,0.3903825879096985,0.3936476409435272,0.0037939785979688,0.3811686635017395,0.3325992822647095,0.0112488260492682,0.4276984930038452,0.371972382068634,0.036417368799448,0.4191539287567138,0.2809357047080993,0.0334087014198303,0.4178095459938049,0.2276144474744796,0.0213493220508098,0.4185249507427215,0.1774707287549972,0.0108828265219926,0.4656825065612793,0.3575568199157715,0.0307183731347322,0.4606290757656097,0.2498646825551986,0.0333513878285884,0.4577697217464447,0.1842663884162902,0.0240342076867818,0.4549374878406524,0.1275181472301483,0.0151732675731182,0.4988904297351837,0.3655269145965576,0.0189506821334362,0.499605268239975,0.2686904668807983,0.0191390011459589,0.4994960129261017,0.2123902291059494,0.014486564323306,0.4988511502742767,0.1652213037014007,0.0085547110065817,0.5351308584213257,0.3891324996948242,0.0035460330545902,0.5375672578811646,0.3138056695461273,0.0042239818722009,0.5376314520835876,0.2684609889984131,0.0059722741134464,0.5373634099960327,0.2260984629392624,0.005345822777599
2023-08-01 15:52:03.038825,45,522,0.7541449666023254,0.5063697695732117,-0.376179039478302,0.182603970170021,0.107421875,0.90087890625,0.42822265625,0.4852941036224365,0.651311993598938,1.832476783647508e-07,0.4141778349876404,0.5951189994812012,-0.0088431797921657,0.3840546309947967,0.4866394400596618,0.0001520408986834,0.3893786966800689,0.396528035402298,0.0064077619463205,0.3817238509654999,0.336700826883316,0.0141483824700117,0.4269067347049713,0.375912994146347,0.038567803800106,0.4167378544807434,0.2875728011131286,0.0346317514777183,0.4149686098098755,0.2327311635017395,0.0210363809019327,0.4157372713088989,0.1812110990285873,0.0091548422351479,0.4635214507579803,0.3606529831886291,0.0317410789430141,0.4562085568904876,0.2559367716312408,0.0321795158088207,0.4527420699596405,0.1897032856941223,0.0203984882682561,0.4494708776473999,0.1296816170215606,0.009915123693645,0.4959807395935058,0.3677995204925537,0.0187684092670679,0.4943423867225647,0.2696520686149597,0.0161694344133138,0.4928773939609527,0.2116927504539489,0.0091781001538038,0.4908913075923919,0.1613896787166595,0.0020311584230512,0.5317988991737366,0.3902082741260528,0.0022712170612066,0.5317984819412231,0.3119569420814514,0.0003559651377145,0.5312440395355225,0.265068918466568,0.0003086361975874,0.5302954316139221,0.2204810827970504,-0.001481843763031
2023-08-01 15:52:03.088976,46,523,0.7547037601470947,0.5069149732589722,-0.3734636902809143,0.1843481808900833,0.091796875,0.912109375,0.35498046875,0.4848795235157013,0.6502740979194641,1.8805629053986203e-07,0.4164145290851593,0.5945610404014587,-0.0091632297262549,0.385750949382782,0.4854230284690857,0.0001740689767757,0.3884841203689575,0.3954541981220245,0.0067927930504083,0.3802026510238647,0.3360958993434906,0.0150302918627858,0.4249861538410187,0.3778292536735534,0.0384956113994121,0.4152355194091797,0.2873850166797638,0.0347637087106704,0.4136395752429962,0.2304899990558624,0.021586038172245,0.4145251810550689,0.1770199090242386,0.0097178537398576,0.4613257944583893,0.3624160885810852,0.0320687033236026,0.4526935815811157,0.2577317953109741,0.0322441048920154,0.4488188326358795,0.1915406435728073,0.0199417266994714,0.4450104832649231,0.1297789812088012,0.0088823344558477,0.4938799440860748,0.3685995936393738,0.0195992179214954,0.4912947416305542,0.2703383564949035,0.0169937293976545,0.4896628856658935,0.211895540356636,0.0095071215182542,0.4873870015144348,0.1608328819274902,0.0017402893863618,0.5305333137512207,0.3893363773822784,0.0036035527009516,0.5295400023460388,0.3120809197425842,0.0013528886483982,0.5287961363792419,0.2648168206214905,0.0005142208538018,0.5272176265716553,0.2191417217254638,-0.0020366883836686
2023-08-01 15:52:03.160285,47,524,0.7567728161811829,0.5071244239807129,-0.3670021295547485,0.1882264912128448,0.130859375,0.919921875,0.3759765625,0.4850378632545471,0.6515910625457764,1.986416577892669e-07,0.4154263138771057,0.5952498912811279,-0.0094301886856555,0.3852466642856598,0.4866940379142761,-0.0006954447017051,0.3893084526062011,0.3968648314476013,0.005420759320259,0.3796806931495666,0.3365994691848755,0.0130609422922134,0.4240592420101166,0.3794534504413605,0.0369385480880737,0.4141767919063568,0.28917196393013,0.0319271944463253,0.4125663340091705,0.2315438687801361,0.017907777801156,0.413369745016098,0.1773339956998825,0.0054889838211238,0.4607613086700439,0.3632548153400421,0.0303488597273826,0.4522135853767395,0.2587994337081909,0.0290298145264387,0.4484687745571136,0.1922363340854644,0.0156516060233116,0.4447609186172485,0.1296673715114593,0.0039502149447798,0.4932304620742798,0.368790328502655,0.0177809428423643,0.4910191893577575,0.2698721587657928,0.0135270990431308,0.4896411001682281,0.2116659581661224,0.0052554081194102,0.4874747097492218,0.1600602567195892,-0.0027869527693837,0.5295214653015137,0.3892797827720642,0.0017920669633895,0.5292535424232483,0.3124946653842926,-0.0020052697509527,0.5286545753479004,0.2649001777172088,-0.0036854844074696,0.5268440842628479,0.2181591093540191,-0.0066357795149087
2023-08-01 15:52:03.214188,48,525,0.7596880197525024,0.5072595477104187,-0.3571527600288391,0.1949452459812164,0.056640625,0.91015625,0.44677734375,0.4866508245468139,0.652888298034668,1.997829457422995e-07,0.4200942814350128,0.5982780456542969,-0.0106392512097954,0.3902981877326965,0.4851607382297516,-0.0022796608973294,0.3931049406528473,0.393786072731018,0.0038028617855161,0.3811263144016266,0.3333112299442291,0.0114203104749321,0.4242678880691528,0.3799054324626922,0.0337353162467479,0.4154307842254638,0.2884801626205444,0.0279893726110458,0.4147680699825287,0.2294013351202011,0.0140533493831753,0.4167781472206116,0.1736746877431869,0.0015453208470717,0.4618323743343353,0.3633489906787872,0.0273815728724002,0.4533988237380981,0.2589381337165832,0.0252053476870059,0.4508270025253296,0.1914038956165313,0.0117209739983081,0.4478899240493774,0.1269920170307159,-0.0002579930005595,0.495195597410202,0.3692526221275329,0.0150738265365362,0.4934696853160858,0.2709646821022033,0.0097432918846607,0.4930453896522522,0.2117118090391159,0.0007162644760683,0.4911597967147827,0.1585524380207061,-0.0080369990319013,0.5320261120796204,0.3898264169692993,-0.000640686135739,0.5318273305892944,0.3131619393825531,-0.0062163304537534,0.5317404270172119,0.2648961246013641,-0.0093873534351587,0.5298042893409729,0.2170225381851196,-0.0135165033861994
