Timestamp,Index,Frame ID,w,x,y,z,ax,ay,az,x_0,y_0,z_0,x_1,y_1,z_1,x_2,y_2,z_2,x_3,y_3,z_3,x_4,y_4,z_4,x_5,y_5,z_5,x_6,y_6,z_6,x_7,y_7,z_7,x_8,y_8,z_8,x_9,y_9,z_9,x_10,y_10,z_10,x_11,y_11,z_11,x_12,y_12,z_12,x_13,y_13,z_13,x_14,y_14,z_14,x_15,y_15,z_15,x_16,y_16,z_16,x_17,y_17,z_17,x_18,y_18,z_18,x_19,y_19,z_19,x_20,y_20,z_20
2023-08-01 16:27:55.852242,0,213,0.9997568130493164,-0.0088299410417675,-0.0050257975235581,-0.0195740666240453,-0.2255859375,0.92041015625,0.34130859375,0.7557039856910706,0.8748281598091125,-7.448947485499957e-07,0.681635856628418,0.7737113237380981,0.026914557442069,0.6590396761894226,0.6634481549263,0.0342797376215457,0.6317914724349976,0.590817928314209,0.026944326236844,0.5972208976745605,0.5370815992355347,0.0192315448075532,0.7513613700866699,0.5799647569656372,0.0702801868319511,0.698477566242218,0.5052810907363892,0.0499290563166141,0.6405027508735657,0.4914764761924743,0.0227660257369279,0.5910714268684387,0.497957170009613,0.0060854917392134,0.7704968452453613,0.5787902474403381,0.0397481359541416,0.6997131109237671,0.4885003268718719,0.0214704629033803,0.6331176161766052,0.4880715012550354,-0.0053924242965877,0.5834101438522339,0.5040995478630066,-0.0219305399805307,0.7796246409416199,0.5915435552597046,0.0047662653960287,0.7117473483085632,0.4975801706314087,-0.013729628175497,0.6411378979682922,0.4978832304477691,-0.0280203651636838,0.5898616909980774,0.5139586925506592,-0.0344486758112907,0.7717570662498474,0.6154083609580994,-0.0296126492321491,0.7056832909584045,0.5441051721572876,-0.0405203029513359,0.6521875858306885,0.5293415188789368,-0.043928176164627,0.6107710003852844,0.5284698605537415,-0.0445264540612697
2023-08-01 16:27:55.913843,1,214,0.999780297279358,-0.0083058709278702,-0.0039248606190085,-0.0188391953706741,-0.27001953125,0.939453125,0.25390625,0.7545784115791321,0.8704526424407959,-7.507049986088532e-07,0.6820664405822754,0.7698718309402466,0.0291324276477098,0.6596829891204834,0.6606670022010803,0.0368782170116901,0.6348506212234497,0.5885152220726013,0.029418496415019,0.60245281457901,0.5356679558753967,0.0214095115661621,0.7540596127510071,0.5775701999664307,0.0701942667365074,0.7023460865020752,0.5016130805015564,0.0497034415602684,0.6453335881233215,0.4883376955986023,0.0230309553444385,0.596447229385376,0.4949240684509277,0.006752819288522,0.7734320163726807,0.577246367931366,0.0383435674011707,0.7038426995277405,0.4852685332298279,0.0192688964307308,0.637904167175293,0.4839721918106079,-0.0068604056723415,0.5882880091667175,0.4989280104637146,-0.0227557308971881,0.782421350479126,0.5908981561660767,0.0022473032586276,0.7158784866333008,0.4954118728637695,-0.0169983059167861,0.6459528803825378,0.4948660135269165,-0.0305087175220251,0.594091534614563,0.509591817855835,-0.0363122373819351,0.7753279209136963,0.6147142052650452,-0.0330436155200004,0.7110447287559509,0.5441542267799377,-0.0442314706742763,0.65924471616745,0.5289309620857239,-0.047410886734724,0.6184837818145752,0.5261257886886597,-0.0479505844414234
2023-08-01 16:27:55.973030,2,215,0.9998024702072144,-0.0091270180419087,-0.003981564193964,-0.0172008853405714,-0.17529296875,0.94287109375,0.3525390625,0.75551438331604,0.8697605729103088,-7.50697324747307e-07,0.6823652386665344,0.7675274014472961,0.0273352526128292,0.6603205800056458,0.6587616205215454,0.0345653146505355,0.6344248652458191,0.5871052742004395,0.0267797950655221,0.6027555465698242,0.5319324135780334,0.0182332936674356,0.7529069185256958,0.5778512358665466,0.0683830380439758,0.7014304399490356,0.5000724196434021,0.0470213219523429,0.6429717540740967,0.4833167791366577,0.0192288607358932,0.5920050144195557,0.4873921573162079,0.0021626085508614,0.7725637555122375,0.5775060653686523,0.0370723418891429,0.703011691570282,0.4835920929908752,0.0180719401687383,0.6347958445549011,0.4782015979290008,-0.0097280470654368,0.5833877921104431,0.4896635711193084,-0.0274287015199661,0.7816711664199829,0.5908210277557373,0.0014310472179204,0.7156708836555481,0.4918695986270904,-0.0185479000210762,0.6447185277938843,0.4912688732147217,-0.034004233777523,0.5929766893386841,0.5076351165771484,-0.0412403121590614,0.7736548185348511,0.614803671836853,-0.033439964056015,0.7092851996421814,0.5394518375396729,-0.045937143266201,0.6564469933509827,0.5237489938735962,-0.0502311065793037,0.6150656342506409,0.5231871604919434,-0.051530472934246
2023-08-01 16:27:56.040890,3,216,0.9998022317886353,-0.0114294458180665,-0.0040913554839789,-0.0157456118613481,-0.34375,0.93994140625,0.2724609375,0.751968502998352,0.8657863140106201,-7.291291126421129e-07,0.679529070854187,0.7620309591293335,0.0278699547052383,0.6590469479560852,0.6519964337348938,0.0369218960404396,0.6347382068634033,0.5787703990936279,0.0307923890650272,0.601564347743988,0.5241370797157288,0.0240519773215055,0.7505620718002319,0.5726814866065979,0.0741450116038322,0.7010035514831543,0.4969044327735901,0.0545037202537059,0.6443329453468323,0.4807459115982055,0.0275230016559362,0.5949720144271851,0.4851073622703552,0.0108724860474467,0.7699744701385498,0.5718494653701782,0.043022483587265,0.7038767337799072,0.4798334836959839,0.0249999370425939,0.6382782459259033,0.4738097190856933,-0.0025143539533019,0.5879665613174438,0.4852479696273803,-0.0197175312787294,0.7797361612319946,0.5852423906326294,0.0071208556182682,0.7157529592514038,0.4900267720222473,-0.0126752983778715,0.6461783647537231,0.4859459996223449,-0.0287639256566762,0.5943197011947632,0.4983660578727722,-0.0362444445490837,0.773668110370636,0.6096903085708618,-0.028037954121828,0.7106386423110962,0.5374200940132141,-0.0403288342058658,0.6583054661750793,0.5213422775268555,-0.0450217723846435,0.6173150539398193,0.5189976096153259,-0.0466188713908195
2023-08-01 16:27:56.100882,4,217,0.9997698068618774,-0.013540593907237,-0.0008123638108372,-0.0166224036365747,-0.23876953125,0.94189453125,0.2490234375,0.7505380511283875,0.8643268346786499,-7.278450198100472e-07,0.6783089637756348,0.7603044509887695,0.0305610504001379,0.6584195494651794,0.6484140753746033,0.0415218882262706,0.6353101134300232,0.5744374990463257,0.0367797873914241,0.602920651435852,0.5184740424156189,0.0313448756933212,0.7480161786079407,0.5670211315155029,0.0781991109251976,0.7007171511650085,0.492932915687561,0.0599942952394485,0.6453024744987488,0.4774869680404663,0.0340538546442985,0.5969241857528687,0.4816101789474487,0.0181484725326299,0.7677686214447021,0.566491961479187,0.0460742600262165,0.7040120959281921,0.4783510565757751,0.0297018401324749,0.6409696340560913,0.4704638421535492,0.0040941638872027,0.5916208028793335,0.4811921119689941,-0.0113232722505927,0.7783985733985901,0.5811886191368103,0.0091664111241698,0.7151533961296082,0.4912633895874023,-0.0088427755981683,0.6485182642936707,0.485429584980011,-0.0220989994704723,0.5981370210647583,0.4948883652687073,-0.0274832677096128,0.7751317024230957,0.6077971458435059,-0.027031123638153,0.7129479646682739,0.5395597219467163,-0.0379005037248134,0.6617432236671448,0.5224905014038086,-0.0406713299453258,0.6214132308959961,0.5171617865562439,-0.0405018143355846
2023-08-01 16:27:56.164395,5,218,0.9997138381004332,-0.0155684258788824,0.0024844065774232,-0.0179875791072845,-0.21923828125,0.8916015625,0.38330078125,0.7511453628540039,0.8567267060279846,-7.344780783569149e-07,0.6777939796447754,0.7504855394363403,0.0308939535170793,0.6562266945838928,0.6406537890434265,0.0416917912662029,0.6316866278648376,0.5685093402862549,0.0367642864584922,0.6007397770881653,0.5122308135032654,0.0312633998692035,0.7490467429161072,0.5605090260505676,0.0773902237415313,0.6986165046691895,0.4871177077293396,0.0594443157315254,0.6425992250442505,0.4731791913509369,0.0336208380758762,0.5938789248466492,0.4785469472408294,0.0177656114101409,0.769270658493042,0.5599152445793152,0.0451994985342025,0.7017855048179626,0.4698173403739929,0.028505653142929,0.6376726031303406,0.4648000597953796,0.0023248952347785,0.5888897180557251,0.4791266322135925,-0.0136993238702416,0.7792219519615173,0.5735947489738464,0.0084599936380982,0.713003396987915,0.4808530807495117,-0.0096255345270037,0.6459621787071228,0.4781753420829773,-0.0241474900394678,0.5967622995376587,0.4923467338085174,-0.0305665004998445,0.7734639644622803,0.5988326072692871,-0.0273884162306785,0.7078193426132202,0.528586745262146,-0.0383908711373806,0.6556163430213928,0.5147379040718079,-0.041752815246582,0.615598201751709,0.5152918100357056,-0.0421466045081615
2023-08-01 16:27:56.229407,6,219,0.999573826789856,-0.0162228643894195,0.0087272683158516,-0.0226461254060268,-0.107421875,0.89990234375,0.20654296875,0.7462801337242126,0.8537781834602356,-7.316950245694898e-07,0.6741713285446167,0.7437870502471924,0.0318281948566436,0.6548871397972107,0.6334275007247925,0.0422513894736766,0.6311948299407959,0.559424102306366,0.0362397693097591,0.6006928086280823,0.4988654851913452,0.0294828470796346,0.7461019158363342,0.555465579032898,0.0808751806616783,0.6985468864440918,0.4847305715084076,0.0622715801000595,0.6436161994934082,0.4687675833702087,0.0352628231048584,0.5947535634040833,0.4705910086631775,0.0181092135608196,0.7673318982124329,0.5557756423950195,0.047289352864027,0.7037550806999207,0.4692443013191223,0.0292844083160161,0.6408675909042358,0.4625567197799682,0.0011862497776746,0.5912529230117798,0.4718495011329651,-0.0163943897932767,0.7784848213195801,0.5696775317192078,0.0089373420923948,0.7153560519218445,0.4795041978359222,-0.0107702249661087,0.6480839848518372,0.4751777648925781,-0.0265380013734102,0.5974535942077637,0.4854821860790252,-0.0338304080069065,0.7742077708244324,0.5942481756210327,-0.0284872725605964,0.7091482281684875,0.526695728302002,-0.0408464446663856,0.6569725871086121,0.5114960670471191,-0.0453425049781799,0.6164922714233398,0.5080126523971558,-0.0467144101858139
2023-08-01 16:27:56.293789,7,220,0.9995444416999816,-0.0172821599990129,0.008133933879435,-0.0233684051781892,-0.33203125,0.9365234375,0.31396484375,0.7447819709777832,0.8449151515960693,-7.318085408769548e-07,0.672753632068634,0.7295199632644653,0.0350454859435558,0.6514214277267456,0.6238143444061279,0.0437906086444854,0.6254870295524597,0.5512740015983582,0.035244133323431,0.5967662930488586,0.4873953461647033,0.0259369704872369,0.744379997253418,0.5424494743347168,0.0794007331132888,0.6942681074142456,0.4734429717063904,0.0589652881026268,0.6404529213905334,0.4595044553279876,0.0311338659375906,0.5925369262695312,0.4619455933570862,0.0133108859881758,0.7671645879745483,0.5450712442398071,0.0424436330795288,0.7020276784896851,0.458554208278656,0.0226175282150506,0.6397853493690491,0.4558000564575195,-0.0052970484830439,0.5920076966285706,0.4699795246124267,-0.0227612778544425,0.7786656022071838,0.5610459446907043,0.001029985724017,0.715195894241333,0.4716632962226867,-0.0198040623217821,0.6492909789085388,0.4719750881195068,-0.0346872992813587,0.601413369178772,0.4876465797424316,-0.0415123179554939,0.7744899988174438,0.588598906993866,-0.0392539501190185,0.7087063193321228,0.5252249240875244,-0.0539556182920932,0.6572191715240479,0.5128339529037476,-0.0593363903462886,0.6181060671806335,0.5129644870758057,-0.0610300004482269
2023-08-01 16:27:56.350292,8,221,0.9992613196372986,-0.0187134835869073,0.0136635415256023,-0.0306595303118228,-0.09130859375,0.873046875,0.24853515625,0.7392509579658508,0.8268932104110718,-7.813088700459048e-07,0.6694386601448059,0.7047070264816284,0.0519189536571502,0.6487963199615479,0.5995014309883118,0.0668742060661315,0.6251533031463623,0.5298373699188232,0.0602312311530113,0.5997611284255981,0.4641900360584259,0.0513341538608074,0.744947612285614,0.5206007957458496,0.0947745367884635,0.6937675476074219,0.4525855481624603,0.0777411237359047,0.6395929455757141,0.4398569464683532,0.0521062165498733,0.5920933485031128,0.4435571432113647,0.0349866561591625,0.7696020007133484,0.5259994864463806,0.047162540256977,0.7041128873825073,0.4402230679988861,0.0291549693793058,0.6406956315040588,0.4373767375946045,0.0011315178126096,0.5913861989974976,0.4535015523433685,-0.0170003585517406,0.7825521230697632,0.5425964593887329,-0.0039682984352111,0.7138959765434265,0.4580320715904236,-0.0237579364329576,0.6471594572067261,0.4612734317779541,-0.0387163236737251,0.5984078645706177,0.4783670604228973,-0.0465316325426101,0.7800402641296387,0.5706100463867188,-0.052784826606512,0.7077498435974121,0.5073643326759338,-0.0669850036501884,0.6544756889343262,0.4999566674232483,-0.0718250498175621,0.6142879128456116,0.5042484998703003,-0.0739391222596168
2023-08-01 16:27:56.413856,9,222,0.9990976452827454,-0.0184602104127407,0.0179838165640831,-0.0337599031627178,-0.35302734375,0.89111328125,0.41455078125,0.7351055145263672,0.8247692584991455,-7.540124897786882e-07,0.6698659062385559,0.7036283016204834,0.0343400202691555,0.6507031321525574,0.5964697599411011,0.0434724986553192,0.6243560314178467,0.5236479043960571,0.0355608277022838,0.600860059261322,0.4580006599426269,0.027087764814496,0.7513768076896667,0.5149485468864441,0.0757460594177246,0.6992949843406677,0.4437173008918762,0.0544808022677898,0.6446455121040344,0.4276633560657501,0.0271381326019763,0.5960872769355774,0.429506242275238,0.0101328808814287,0.7745075821876526,0.5209571123123169,0.0396445803344249,0.7063441276550293,0.432907223701477,0.0194208081811666,0.6425124406814575,0.4288126230239868,-0.0081073427572846,0.5925916433334351,0.4442850351333618,-0.0250423718243837,0.7865689992904663,0.5382183790206909,-0.0007694630767218,0.7140383720397949,0.4581805765628814,-0.022012373432517,0.6461277604103088,0.4606680274009704,-0.0381206646561622,0.5960783958435059,0.4787337779998779,-0.0455124825239181,0.7809287905693054,0.5663273930549622,-0.0401077345013618,0.7105427384376526,0.5060266256332397,-0.0547268614172935,0.6568342447280884,0.4982032179832458,-0.0607868358492851,0.6144276857376099,0.5038809180259705,-0.0627545043826103
2023-08-01 16:27:56.471799,10,223,0.9987863898277284,-0.0163699407130479,0.0252016689628362,-0.03902093693614,-0.46435546875,0.98291015625,0.19482421875,0.7320883274078369,0.8209733366966248,-8.047093729146582e-07,0.6682857871055603,0.6989655494689941,0.0341646000742912,0.6479974985122681,0.5934329628944397,0.0417337752878665,0.6220672726631165,0.5216842293739319,0.0322551988065242,0.5992083549499512,0.455569714307785,0.0218364596366882,0.752788782119751,0.5110516548156738,0.0714258253574371,0.699176549911499,0.4361681640148163,0.0475168898701667,0.6435232162475586,0.4222491979598999,0.0188483949750661,0.5970252752304077,0.428410530090332,0.0013233756180852,0.7761325240135193,0.5196763277053833,0.0350234173238277,0.7077358365058899,0.4277918934822082,0.011589640751481,0.6412245035171509,0.4276043176651001,-0.0173583272844553,0.5926207304000854,0.4493053555488586,-0.0346759743988513,0.78754061460495,0.5384579300880432,-0.0053984490223228,0.7158493399620056,0.4575645923614502,-0.0284700226038694,0.6475427746772766,0.4633963108062744,-0.0453560799360275,0.6002134680747986,0.4860446751117706,-0.0528939962387084,0.7812619805335999,0.5664365291595459,-0.0446425564587116,0.7115795016288757,0.5073241591453552,-0.0606173910200595,0.659303605556488,0.5013285875320435,-0.0675034523010253,0.6195572018623352,0.5091954469680786,-0.0696846023201942
2023-08-01 16:27:56.535645,11,224,0.9981414675712584,-0.0142371328547596,0.0378104820847511,-0.0456196889281272,-0.404296875,0.89208984375,0.2998046875,0.7253617644309998,0.8143495917320251,-7.218507676043373e-07,0.6712490320205688,0.6854291558265686,0.018479723483324,0.6474825143814087,0.5854302644729614,0.0151599384844303,0.6181378364562988,0.5172075629234314,-0.0015498765278607,0.5951322913169861,0.4513290524482727,-0.0183707363903522,0.7614898681640625,0.5032179355621338,0.0451042242348194,0.7048401832580566,0.4334272742271423,0.0124314948916435,0.6517019867897034,0.4144903719425201,-0.0213311351835727,0.604675829410553,0.4096195101737976,-0.0424273200333118,0.7857882380485535,0.5184628963470459,0.0144024668261408,0.71462082862854,0.433012306690216,-0.0180096663534641,0.6529128551483154,0.4211987257003784,-0.0507081001996994,0.6056070327758789,0.4241224527359009,-0.0716029182076454,0.798964262008667,0.5451630353927612,-0.0207904540002346,0.7224521040916443,0.4704307317733764,-0.0550162382423877,0.6552562117576599,0.480717122554779,-0.074099987745285,0.6083205342292786,0.5020456910133362,-0.0818165838718414,0.7940424680709839,0.5825299620628357,-0.0553655996918678,0.7228870987892151,0.521740198135376,-0.0807773545384407,0.6701295971870422,0.5190927982330322,-0.0902595520019531,0.6307147741317749,0.5272870659828186,-0.093337133526802
2023-08-01 16:27:56.600954,12,225,0.9970101714134216,-0.0105649279430508,0.0534299165010452,-0.0548119246959686,-0.208984375,0.84814453125,0.32861328125,0.7243016958236694,0.8146200180053711,-7.816605034349777e-07,0.6723328232765198,0.6859054565429688,0.0129839787259697,0.6478583812713623,0.5847948789596558,0.0060824509710073,0.6183844804763794,0.5144451856613159,-0.0127745792269706,0.6011823415756226,0.4450369775295257,-0.0314978659152984,0.7686886787414551,0.5042428970336914,0.0371377319097518,0.7094801068305969,0.438493549823761,0.0004628331225831,0.6568142175674438,0.4220124781131744,-0.036029078066349,0.6104205846786499,0.4212552905082702,-0.0584613978862762,0.7942755222320557,0.5210567712783813,0.008596247062087,0.7191217541694641,0.4408320188522339,-0.0265757106244564,0.655432939529419,0.4391208291053772,-0.0592732243239879,0.6096961498260498,0.4516534805297851,-0.0794301033020019,0.8070274591445923,0.5503668189048767,-0.0248001646250486,0.7302272915840149,0.4777260720729828,-0.0607577189803123,0.6592223644256592,0.4898804128170013,-0.0782088935375213,0.6114484667778015,0.5135173797607422,-0.0843511223793029,0.8011263012886047,0.5898239016532898,-0.0580684356391429,0.7306868433952332,0.5299606323242188,-0.0855662822723388,0.6763515472412109,0.5291701555252075,-0.0946428254246711,0.6367357969284058,0.5400093197822571,-0.096590369939804
2023-08-01 16:27:56.664248,13,226,0.9951953887939452,-0.0050439103506505,0.0723963379859924,-0.0657213330268859,-0.35595703125,0.8994140625,0.20703125,0.7180706858634949,0.8061695694923401,-7.170798426159308e-07,0.674038290977478,0.6853045225143433,0.0017573462100699,0.6486837863922119,0.5847568511962891,-0.0100301569327712,0.6185826063156128,0.5147268772125244,-0.0291248504072427,0.6048082113265991,0.4503107070922851,-0.0473635345697402,0.7824809551239014,0.5056290626525879,0.0134076448157429,0.7221787571907043,0.4411568641662597,-0.0210839044302701,0.6700741648674011,0.4207459092140198,-0.0531705468893051,0.6247323155403137,0.4136556982994079,-0.0729015469551086,0.8066058158874512,0.5284904837608337,-0.0070210988633334,0.7289130091667175,0.4483731389045715,-0.0397283099591732,0.6666069626808167,0.4424611032009125,-0.0675594210624694,0.6216498017311096,0.4501827955245971,-0.0850779935717582,0.8153098821640015,0.5627192854881287,-0.0313325710594654,0.7339932322502136,0.4919184744358063,-0.0657484456896781,0.6630264520645142,0.4984841644763946,-0.0807187259197235,0.6143988370895386,0.5170258283615112,-0.0857453644275665,0.8039267659187317,0.6052457094192505,-0.0558327883481979,0.734846293926239,0.5438580513000488,-0.0830181837081909,0.6806982159614563,0.5409920811653137,-0.0912335962057113,0.6398872137069702,0.5495432019233704,-0.0925417616963386
2023-08-01 16:27:56.719338,14,227,0.9935988187789916,0.000566879461985,0.0850522145628929,-0.0743448287248611,-0.41162109375,0.888671875,0.16650390625,0.7243035435676575,0.8004039525985718,-7.881681653998385e-07,0.6766754388809204,0.681760311126709,-0.0112282615154981,0.6482009887695312,0.5866126418113708,-0.0339642763137817,0.619864284992218,0.5181112885475159,-0.0609835907816886,0.6162043809890747,0.4643631875514984,-0.0865823924541473,0.796734094619751,0.4981637597084045,-0.0167545434087514,0.7291938662528992,0.4354608356952667,-0.0602369233965873,0.6737901568412781,0.4339799582958221,-0.0936881378293037,0.6298060417175293,0.4469410181045532,-0.1126661822199821,0.8224822282791138,0.5337480306625366,-0.0324188917875289,0.7347803115844727,0.467128723859787,-0.0763504281640052,0.6652629375457764,0.4792238473892212,-0.1033190563321113,0.6186798214912415,0.4992707967758178,-0.1172945946455001,0.829631507396698,0.580657422542572,-0.0517316684126853,0.7393893003463745,0.5246335864067078,-0.0939071625471115,0.6674578189849854,0.5336375832557678,-0.106500543653965,0.6182523369789124,0.5518982410430908,-0.1081901341676712,0.81524258852005,0.631939709186554,-0.071812704205513,0.7386032938957214,0.5850058794021606,-0.1038307696580886,0.683509111404419,0.5802161693572998,-0.1113428249955177,0.6433019042015076,0.5839629769325256,-0.1104269921779632
2023-08-01 16:27:56.788128,15,228,0.991885244846344,0.0044001583009958,0.0969262719154357,-0.0821558460593223,-0.42724609375,0.87744140625,0.16845703125,0.7289106845855713,0.8010638356208801,-8.3730765254586e-07,0.6800799369812012,0.680844783782959,-0.0134505098685622,0.6541711091995239,0.5852597951889038,-0.0349913537502288,0.626136302947998,0.5165182948112488,-0.0595600679516792,0.6153753399848938,0.4672459959983825,-0.083168551325798,0.8027843236923218,0.4927027523517608,-0.0211803577840328,0.728201687335968,0.4408411681652069,-0.0620345287024974,0.6723853945732117,0.4378034472465515,-0.091595709323883,0.6293331980705261,0.4469763338565826,-0.108341097831726,0.8298441171646118,0.5316351652145386,-0.0352021493017673,0.7335865497589111,0.4771684408187866,-0.0774901807308197,0.6626271605491638,0.4934880435466766,-0.1015706062316894,0.616823136806488,0.5135790109634399,-0.1135028228163719,0.8357763886451721,0.5842547416687012,-0.0526535287499427,0.7360158562660217,0.535332441329956,-0.0955492258071899,0.6633611917495728,0.5432068109512329,-0.1086513474583625,0.6148648262023926,0.557444155216217,-0.1101959124207496,0.8198856115341187,0.6404745578765869,-0.0707399100065231,0.7376677393913269,0.5952949523925781,-0.1042341068387031,0.6823840141296387,0.5871739983558655,-0.1130381375551223,0.6413490176200867,0.5861219763755798,-0.1126380190253257
2023-08-01 16:27:56.843725,16,229,0.991245985031128,0.0063149682246148,0.0995823219418525,-0.0864572897553443,-0.3896484375,0.87646484375,0.19189453125,0.7320027351379395,0.7998040914535522,-8.350120310751663e-07,0.6822075247764587,0.6770646572113037,-0.0141557874158024,0.6581838726997375,0.5819434523582458,-0.0365360341966152,0.6305031180381775,0.512176513671875,-0.0614469237625598,0.6053903102874756,0.4708860218524933,-0.0859196856617927,0.8051034212112427,0.4908559620380401,-0.0268260836601257,0.7278311252593994,0.44583261013031,-0.0692925155162811,0.6710648536682129,0.4461883902549743,-0.0989356562495231,0.6247184872627258,0.4576959908008575,-0.1156677156686782,0.8337581753730774,0.5323335528373718,-0.0416995473206043,0.7335085868835449,0.4845152497291565,-0.0854478701949119,0.6628585457801819,0.4998154044151306,-0.1094844341278076,0.6157796382904053,0.5181534290313721,-0.121728666126728,0.8404214978218079,0.5876505970954895,-0.0599620565772056,0.7361213564872742,0.5440902709960938,-0.1047795340418815,0.6636690497398376,0.550140380859375,-0.1188961789011955,0.6150853633880615,0.5626167058944702,-0.1213090643286705,0.82563716173172,0.6467229723930359,-0.0788356810808181,0.737267792224884,0.6036930084228516,-0.1145372837781906,0.6813158988952637,0.5947784185409546,-0.1247719526290893,0.6405447125434875,0.5917974710464478,-0.1256813108921051
2023-08-01 16:27:56.906104,17,230,0.9906986951828004,0.0078876670449972,0.102641187608242,-0.0889867693185806,-0.4345703125,0.87548828125,0.20556640625,0.7378638982772827,0.8051142692565918,-8.713659553905018e-07,0.6857421398162842,0.6825442314147949,-0.0145067786797881,0.6621202230453491,0.5890426635742188,-0.0378577746450901,0.6347239017486572,0.5198541879653931,-0.0642287358641624,0.6056638956069946,0.4713137149810791,-0.0909006670117378,0.807728111743927,0.4940021634101867,-0.0289678741246461,0.7295406460762024,0.4514176845550537,-0.0773343369364738,0.6708322763442993,0.4526967406272888,-0.1128456741571426,0.6212033033370972,0.4635526239871979,-0.1328746378421783,0.8376994729042053,0.5351883172988892,-0.0452685169875621,0.7363765835762024,0.4902815520763397,-0.093866616487503,0.6642494797706604,0.5069144368171692,-0.1224824637174606,0.615624189376831,0.5247916579246521,-0.1374767571687698,0.8455095291137695,0.5916308760643005,-0.0651972666382789,0.7410987019538879,0.5496254563331604,-0.1140304803848266,0.6663763523101807,0.5550770163536072,-0.1312432736158371,0.6160579919815063,0.565698504447937,-0.1351550370454788,0.8308634757995605,0.6523744463920593,-0.0856092944741249,0.7415282726287842,0.6096400618553162,-0.1235902160406112,0.6845436692237854,0.5993576049804688,-0.1348300576210022,0.6440019607543945,0.5952784419059753,-0.1361937075853347
2023-08-01 16:27:56.968936,18,231,0.9904124736785888,0.0083343368023633,0.104622945189476,-0.0898203998804092,-0.435546875,0.869140625,0.1787109375,0.7360289692878723,0.799725353717804,-8.955216799222399e-07,0.6865890026092529,0.6806334257125854,-0.0163423921912908,0.6648387908935547,0.5893086194992065,-0.0392588749527931,0.6397873759269714,0.5219039916992188,-0.0641362071037292,0.614953339099884,0.476671814918518,-0.0891862586140632,0.8126217126846313,0.4946565926074981,-0.0336436480283737,0.7334887981414795,0.4552389979362488,-0.0803859233856201,0.6742978096008301,0.4560053944587707,-0.1132750138640403,0.6257191300392151,0.4653949737548828,-0.1313848197460174,0.8417079448699951,0.5386391878128052,-0.0476364679634571,0.734562873840332,0.4968434870243072,-0.0947083756327629,0.6620854139328003,0.5162878632545471,-0.12033411860466,0.6139926910400391,0.5345810651779175,-0.133061870932579,0.8479518294334412,0.5978434681892395,-0.0648708567023277,0.7370801568031311,0.5581533312797546,-0.112563706934452,0.6634109616279602,0.5683872103691101,-0.1270178407430648,0.6145755052566528,0.5794243216514587,-0.1285668909549713,0.8330013155937195,0.6619378328323364,-0.0826572328805923,0.7432238459587097,0.618194043636322,-0.1192451119422912,0.6877383589744568,0.6073430776596069,-0.1287347227334976,0.6480808854103088,0.6006289720535278,-0.1284839659929275
2023-08-01 16:27:57.032736,19,232,0.9901938438415528,0.0089887222275137,0.1057163327932357,-0.0908811166882515,-0.36181640625,0.8662109375,0.15966796875,0.7492213249206543,0.8091161251068115,-9.0939232677556e-07,0.6955820322036743,0.6855549812316895,-0.0214355401694774,0.6720880270004272,0.5918775200843811,-0.0489057563245296,0.6432464122772217,0.5243971943855286,-0.0768575519323349,0.610772967338562,0.478469580411911,-0.1056266576051712,0.8253699541091919,0.5007414221763611,-0.0490652918815612,0.7331013083457947,0.4730717837810516,-0.0989197567105293,0.6713860630989075,0.4731501638889313,-0.1337159872055053,0.6205682158470154,0.4775480329990387,-0.1538070738315582,0.8507341146469116,0.5493940114974976,-0.0627330690622329,0.7394953370094299,0.5126577019691467,-0.1145315021276474,0.6617941856384277,0.5286950469017029,-0.1420760750770568,0.6083370447158813,0.5436074733734131,-0.1566616743803024,0.8536911010742188,0.6130729913711548,-0.0790344402194023,0.7431816458702087,0.580734372138977,-0.1292388886213302,0.6678535342216492,0.5845826268196106,-0.1448854207992553,0.6168847680091858,0.5906959176063538,-0.148123487830162,0.8356130123138428,0.6796471476554871,-0.0961906611919403,0.7421444058418274,0.6408938765525818,-0.1350249797105789,0.6839398145675659,0.625457227230072,-0.1458019763231277,0.6434184312820435,0.6136001944541931,-0.1470286548137664
2023-08-01 16:27:57.093975,20,233,0.989955186843872,0.0094297733157873,0.1069631651043891,-0.0919714048504829,-0.416015625,0.876953125,0.1708984375,0.7492489218711853,0.8139216899871826,-9.191888921122882e-07,0.6958653926849365,0.689944863319397,-0.024478442966938,0.6724848747253418,0.5959584712982178,-0.0530784763395786,0.6425631642341614,0.5266876220703125,-0.0816267877817154,0.611191987991333,0.4757348299026489,-0.1106047332286834,0.8246250748634338,0.5020128488540649,-0.0511560291051864,0.7330184578895569,0.4732567369937897,-0.102223165333271,0.6721361875534058,0.47365802526474,-0.1376297175884246,0.620557427406311,0.4763029813766479,-0.1579570025205612,0.8516901731491089,0.5474587082862854,-0.0635150596499443,0.7405327558517456,0.5138221979141235,-0.1176861152052879,0.6622687578201294,0.5311259031295776,-0.1473972052335739,0.6075888872146606,0.545718789100647,-0.1632042527198791,0.8568252325057983,0.6086118817329407,-0.0787305459380149,0.7461054921150208,0.5800339579582214,-0.1318483650684356,0.669101357460022,0.5870142579078674,-0.1497776061296463,0.6160770654678345,0.5949342846870422,-0.1539032310247421,0.8417497277259827,0.6741623878479004,-0.094941958785057,0.7486726641654968,0.6393804550170898,-0.1360888630151748,0.6894075870513916,0.6270151138305664,-0.1487153619527816,0.6471943855285645,0.616573691368103,-0.1509054154157638
2023-08-01 16:27:57.154112,21,234,0.9897492527961732,0.0094493320211768,0.1084165126085281,-0.0924829244613647,-0.44140625,0.88330078125,0.1962890625,0.7484562993049622,0.8168710470199585,-9.350412710773526e-07,0.6971005797386169,0.6935045719146729,-0.0223258659243583,0.6742990016937256,0.5971403121948242,-0.049112107604742,0.6455128788948059,0.527703583240509,-0.0762433111667633,0.6143377423286438,0.4799188077449798,-0.1033369451761245,0.8282361030578613,0.5050711035728455,-0.0471846349537372,0.7371690273284912,0.4789461493492126,-0.0953666567802429,0.6762080788612366,0.4834177494049072,-0.1274438500404358,0.6275933384895325,0.4884976744651794,-0.1455786526203155,0.8540730476379395,0.5531365871429443,-0.059975042939186,0.742376446723938,0.5204890966415405,-0.1116239801049232,0.6649856567382812,0.5387429594993591,-0.1389083117246627,0.6124486923217773,0.5531944632530212,-0.1529974639415741,0.8585186004638672,0.6151356101036072,-0.0755819156765937,0.7463880777359009,0.5857019424438477,-0.1276067793369293,0.6689332127571106,0.5928743481636047,-0.1446520835161209,0.6163200736045837,0.6002112030982971,-0.1478574424982071,0.8435954451560974,0.6808046698570251,-0.0919263362884521,0.7520847320556641,0.6414579153060913,-0.1319918483495712,0.6932811737060547,0.6288159489631653,-0.1440109312534332,0.6508045196533203,0.6184084415435791,-0.1456000804901123
2023-08-01 16:27:57.215672,22,235,0.9897202253341676,0.010041918605566,0.108622059226036,-0.0924895331263542,-0.44677734375,0.8759765625,0.14404296875,0.7544603943824768,0.8189098238945007,-8.71008921876637e-07,0.6975737810134888,0.6880350708961487,-0.023611806333065,0.6727012991905212,0.5967180728912354,-0.057279035449028,0.6429258584976196,0.5313804149627686,-0.0917385444045066,0.6130928993225098,0.4856396019458771,-0.1275419145822525,0.8299530148506165,0.5097926259040833,-0.0639198794960975,0.7356738448143005,0.4803738594055176,-0.119476705789566,0.6735898852348328,0.4838829636573791,-0.1561694592237472,0.623140275478363,0.48916757106781,-0.1776211410760879,0.8524420857429504,0.558662474155426,-0.0803956389427185,0.7432531714439392,0.5209258794784546,-0.1406348496675491,0.6649768948554993,0.538239598274231,-0.1725693196058273,0.6118706464767456,0.5531357526779175,-0.1900980770587921,0.8553609251976013,0.6217136383056641,-0.0989961996674537,0.7467616200447083,0.5902408361434937,-0.1563776731491089,0.6690963506698608,0.5934689044952393,-0.1761277616024017,0.6159831881523132,0.6009384989738464,-0.181961178779602,0.8398764729499817,0.6875383853912354,-0.1182770207524299,0.7481705546379089,0.6483123302459717,-0.1619157642126083,0.6878692507743835,0.6326099038124084,-0.1755891889333725,0.6449803113937378,0.6214985847473145,-0.1791964918375015
2023-08-01 16:27:57.280350,23,236,0.9899069666862488,0.0101514551788568,0.1078045591711998,-0.0914291590452194,-0.42626953125,0.884765625,0.16650390625,0.7544454336166382,0.8172444105148315,-8.86713223735569e-07,0.6995753049850464,0.6891638040542603,-0.0240011252462863,0.6770991683006287,0.597850501537323,-0.056345272809267,0.6515018343925476,0.5334234237670898,-0.0892157852649688,0.6307724714279175,0.4895009994506836,-0.1233261823654174,0.8307127952575684,0.51416015625,-0.0620850026607513,0.7366800904273987,0.4826667010784149,-0.1172150447964668,0.6724542379379272,0.4837069809436798,-0.1537064462900161,0.6196929216384888,0.4893258512020111,-0.1749514043331146,0.8537967801094055,0.5611904859542847,-0.077888548374176,0.7438297271728516,0.5206937193870544,-0.1370324045419693,0.6655839085578918,0.5380780696868896,-0.1683283299207687,0.612410843372345,0.5532742738723755,-0.1855010241270065,0.8567116856575012,0.6225935816764832,-0.0959959849715232,0.7471047639846802,0.5885525941848755,-0.1522289365530014,0.670731782913208,0.5937256217002869,-0.1704509109258651,0.618655264377594,0.6016471982002258,-0.1754588484764099,0.8407003283500671,0.6873300075531006,-0.1149427816271781,0.7469220757484436,0.6485108733177185,-0.158330500125885,0.6871462464332581,0.6342238783836365,-0.1714428812265396,0.6450780034065247,0.6227923631668091,-0.1745810210704803
2023-08-01 16:27:57.340198,24,237,0.989928424358368,0.0098205152899026,0.1088445112109184,-0.0899900719523429,-0.39306640625,0.8720703125,0.19580078125,0.751846194267273,0.8176693916320801,-8.608701023149479e-07,0.7001640200614929,0.691628098487854,-0.02730068936944,0.6782426834106445,0.5981826782226562,-0.0581911243498325,0.6497817039489746,0.5316579937934875,-0.0889555811882019,0.6252807378768921,0.4851592779159546,-0.1203290745615959,0.8326943516731262,0.5127454400062561,-0.0573924407362937,0.7413981556892395,0.4804487228393554,-0.1113259121775627,0.6792514324188232,0.4825854003429413,-0.1477700322866439,0.6286665201187134,0.4881756603717804,-0.1689080148935318,0.856137216091156,0.5605273246765137,-0.069994069635868,0.7440441250801086,0.5224177241325378,-0.1295793801546096,0.6666678786277771,0.5396117568016052,-0.1633292734622955,0.613554835319519,0.5529835820198059,-0.1814500093460083,0.8588706851005554,0.622616171836853,-0.0854170173406601,0.7455680966377258,0.5895310044288635,-0.1435047388076782,0.6678879261016846,0.5943456292152405,-0.1652469485998153,0.6143772602081299,0.6015409231185913,-0.1713245064020156,0.8419020175933838,0.6871200799942017,-0.1016950532793998,0.7483800053596497,0.6471592783927917,-0.1466756612062454,0.6893982887268066,0.6321771740913391,-0.1623354107141494,0.6474119424819946,0.6199199557304382,-0.1665224283933639
2023-08-01 16:27:57.406104,25,238,0.9899659156799316,0.0099069410935044,0.109206847846508,-0.0891251116991043,-0.3974609375,0.86474609375,0.14501953125,0.7477790713310242,0.8150732517242432,-9.249513368558836e-07,0.6978273391723633,0.6913509964942932,-0.0264508388936519,0.6774311661720276,0.5979260802268982,-0.0537947639822959,0.6484586596488953,0.5298147201538086,-0.080149807035923,0.6204072833061218,0.4784546196460724,-0.1067989394068718,0.8348906636238098,0.5105414986610413,-0.0510734692215919,0.7410814762115479,0.4804176688194275,-0.09750796854496,0.6782195568084717,0.482001394033432,-0.1291632354259491,0.6278790235519409,0.4865118563175201,-0.1473436206579208,0.859980046749115,0.5594517588615417,-0.060301523655653,0.7457618713378906,0.5219313502311707,-0.1101796254515647,0.6675891280174255,0.5376740097999573,-0.1384318023920059,0.6132194399833679,0.5513279438018799,-0.1537845730781555,0.8616751432418823,0.6215513944625854,-0.07205081731081,0.7466640472412109,0.5892466306686401,-0.1215394660830497,0.670635998249054,0.5941333770751953,-0.1396557241678238,0.6178375482559204,0.6005591750144958,-0.1445433944463729,0.8427518010139465,0.6865509748458862,-0.0847852528095245,0.7477992177009583,0.6480780243873596,-0.1238849461078643,0.6909588575363159,0.6339083909988403,-0.1370108723640442,0.6497657895088196,0.6213598251342773,-0.139819249510765
2023-08-01 16:27:57.467773,26,239,0.9901666045188904,0.0091000674292445,0.1089534685015678,-0.0872718915343284,-0.37353515625,0.865234375,0.2099609375,0.7481115460395813,0.8180506229400635,-9.26008908663789e-07,0.6969216465950012,0.694969117641449,-0.0273535493761301,0.6739035248756409,0.6008132696151733,-0.0563074573874473,0.6437566876411438,0.5302995443344116,-0.08381287753582,0.6130892634391785,0.4750690758228302,-0.1112661361694336,0.8343901038169861,0.5103611946105957,-0.0568278580904006,0.7408801317214966,0.4804462790489197,-0.1039562672376632,0.678383469581604,0.4832766652107239,-0.1345060914754867,0.6286791563034058,0.4881954491138458,-0.1519865542650222,0.8587266802787781,0.5602238178253174,-0.0662862211465835,0.7456968426704407,0.5197767615318298,-0.1172396913170814,0.6672947406768799,0.5334585905075073,-0.1439659297466278,0.6138127446174622,0.5457614064216614,-0.1583002060651779,0.8597299456596375,0.6228935122489929,-0.0781016275286674,0.7465739250183105,0.5878779292106628,-0.1288350373506546,0.6695742607116699,0.5896724462509155,-0.1454249769449234,0.6169168949127197,0.5945396423339844,-0.1493216603994369,0.8401705026626587,0.6881735324859619,-0.0909002423286438,0.7457166314125061,0.6467357277870178,-0.1318114846944809,0.6875037550926208,0.6304907202720642,-0.1445565819740295,0.6459900736808777,0.6174874901771545,-0.1467906236648559
2023-08-01 16:27:57.525367,27,240,0.9901466369628906,0.0077514974400401,0.1115488186478614,-0.0842996016144752,-0.44580078125,0.8681640625,0.18603515625,0.7491567134857178,0.8216657638549805,-9.313843634117802e-07,0.6961389183998108,0.6969138979911804,-0.0283260084688663,0.6739315986633301,0.5992369055747986,-0.0578304789960384,0.6445531249046326,0.5280818343162537,-0.0859775841236114,0.6155699491500854,0.4740650355815887,-0.1140550598502159,0.8328628540039062,0.5087212324142456,-0.0558876357972621,0.7380460500717163,0.4787327945232391,-0.1051362976431846,0.6743841767311096,0.4822743833065033,-0.1381619423627853,0.623997688293457,0.4876326322555542,-0.1570892184972763,0.8583693504333496,0.5575078725814819,-0.0655090659856796,0.7449073791503906,0.517875075340271,-0.1182646229863166,0.6664673686027527,0.5338841676712036,-0.1468319296836853,0.6136534810066223,0.5480220317840576,-0.1619840711355209,0.8606694936752319,0.6197417974472046,-0.0778317973017692,0.7479338645935059,0.5862012505531311,-0.1295170336961746,0.6718831062316895,0.5896255970001221,-0.1472699344158172,0.6204953193664551,0.5957139730453491,-0.151657372713089,0.8420339822769165,0.6850029230117798,-0.0913101211190223,0.7463390231132507,0.6459211111068726,-0.1321562975645065,0.6883696913719177,0.6310504078865051,-0.1452610939741134,0.6477383375167847,0.6187446117401123,-0.147738367319107
2023-08-01 16:27:57.585564,28,241,0.990654468536377,0.0058890637010335,0.1088706254959106,-0.0819517076015472,-0.23828125,0.8369140625,0.111328125,0.7462219595909119,0.8162813782691956,-9.439215773454634e-07,0.6949437260627747,0.6883469820022583,-0.0172458682209253,0.6749066710472107,0.5929782390594482,-0.0429271608591079,0.6476888060569763,0.5221215486526489,-0.0703323557972908,0.6202234029769897,0.4758035242557525,-0.0983949080109596,0.8305706977844238,0.50553297996521,-0.0402900092303752,0.7420037388801575,0.4690394401550293,-0.0887344852089881,0.6776214241981506,0.4716086387634277,-0.1232290044426918,0.6267890930175781,0.4790399074554443,-0.1432310789823532,0.8561471104621887,0.5525778532028198,-0.0556978657841682,0.7464075684547424,0.508388876914978,-0.1052272692322731,0.6693152785301208,0.5244086384773254,-0.1335097104310989,0.6171401143074036,0.5391663908958435,-0.1489140838384628,0.8591910600662231,0.6135864853858948,-0.0736674889922142,0.7466713190078735,0.572719156742096,-0.1216028332710266,0.6718412041664124,0.5765997767448425,-0.1383704841136932,0.6213256120681763,0.5832817554473877,-0.1428904086351394,0.8417065739631653,0.6785432696342468,-0.0922592207789421,0.7483658790588379,0.6338706612586975,-0.128479465842247,0.690847635269165,0.6194885969161987,-0.1393094062805175,0.650199294090271,0.6091549396514893,-0.1411758959293365
2023-08-01 16:27:57.649171,29,242,0.9912164211273192,0.0037115614395588,0.107667289674282,-0.07670708745718,-0.32177734375,0.8330078125,0.212890625,0.7467018365859985,0.8130452632904053,-8.969324767349462e-07,0.6935455799102783,0.6854110956192017,-0.0207399800419807,0.6730809807777405,0.5918943285942078,-0.0494694486260414,0.6465975046157837,0.521965503692627,-0.0794947668910026,0.6170751452445984,0.4749793410301208,-0.1104459315538406,0.8276722431182861,0.5049264430999756,-0.0494564659893512,0.7400517463684082,0.464478850364685,-0.1021585464477539,0.676041305065155,0.4652585983276367,-0.1386765241622924,0.6246800422668457,0.472536027431488,-0.1595892757177353,0.8525161147117615,0.5529589056968689,-0.0650593787431716,0.7463780641555786,0.5048375129699707,-0.1190234348177909,0.6695712208747864,0.5188716650009155,-0.1489804685115814,0.617884635925293,0.5324161052703857,-0.1654376238584518,0.8551982641220093,0.6148990988731384,-0.0835179239511489,0.7476744055747986,0.5709247589111328,-0.1355103850364685,0.672211766242981,0.5725764632225037,-0.1537173390388488,0.6215821504592896,0.5790219306945801,-0.1589551419019699,0.8378579616546631,0.6809028387069702,-0.1027410104870796,0.751169741153717,0.6327596306800842,-0.1417528688907623,0.6943603157997131,0.6174080967903137,-0.1537628173828125,0.6543197631835938,0.60787034034729,-0.1566155701875686
2023-08-01 16:27:57.719919,30,243,0.992455005645752,-0.000507436459884,0.1032356470823288,-0.0661445707082748,-0.26611328125,0.89013671875,0.2314453125,0.7492605447769165,0.8173092007637024,-8.76201113442221e-07,0.6926777958869934,0.6863184571266174,-0.0183048844337463,0.672949492931366,0.5939173102378845,-0.0484295785427093,0.6474984884262085,0.5265814661979675,-0.0810860991477966,0.6238296031951904,0.4798060059547424,-0.1152976527810096,0.824150800704956,0.508729100227356,-0.0496592260897159,0.7369167804718018,0.4655174911022186,-0.1069280877709388,0.673109769821167,0.4642820656299591,-0.1471690982580185,0.6199542880058289,0.4713373184204101,-0.1702808439731598,0.8491356372833252,0.5521622896194458,-0.0689131915569305,0.7473104596138,0.500445544719696,-0.1286738961935043,0.6707085371017456,0.518244206905365,-0.1616842597723007,0.6198928356170654,0.5355908274650574,-0.1790497004985809,0.8536216020584106,0.6103496551513672,-0.091108538210392,0.7492090463638306,0.564862072467804,-0.1470562368631363,0.6733160018920898,0.5694865584373474,-0.1665248274803161,0.6234095096588135,0.5793420672416687,-0.1718994230031967,0.8380232453346252,0.6730800867080688,-0.1139461621642112,0.7512287497520447,0.6271175146102905,-0.1548620462417602,0.6928654909133911,0.6129151582717896,-0.1672578006982803,0.6525555849075317,0.6052331924438477,-0.1703013628721237
2023-08-01 16:27:57.785109,31,244,0.9938364624977112,-0.0043008434586226,0.0950863063335418,-0.0568254701793193,-0.38037109375,0.9267578125,0.18310546875,0.7430002093315125,0.8123866319656372,-8.011051590983698e-07,0.6895267963409424,0.6902124881744385,-0.015978904440999,0.6639660000801086,0.5998425483703613,-0.0425062738358974,0.6345677971839905,0.5358118414878845,-0.0715579837560653,0.6112955808639526,0.4979693293571472,-0.1014745533466339,0.8199389576911926,0.507976233959198,-0.0365901179611682,0.7428529262542725,0.4612185955047607,-0.0855995416641235,0.6846880316734314,0.4538589119911194,-0.1216857582330703,0.6335594654083252,0.4575245976448059,-0.1427012681961059,0.8478931188583374,0.5510005354881287,-0.0537370033562183,0.7506113648414612,0.4980177283287048,-0.1044546142220497,0.6756546497344971,0.5086567401885986,-0.1336954087018966,0.6240214109420776,0.5210756659507751,-0.1490949392318725,0.8531969785690308,0.6085538268089294,-0.0740383639931678,0.7513564229011536,0.5617414116859436,-0.1241485476493835,0.6762756109237671,0.5624415874481201,-0.1415042132139206,0.6253347992897034,0.5694695115089417,-0.145456314086914,0.8358544111251831,0.6700361967086792,-0.0948173031210899,0.7481002807617188,0.6218740940093994,-0.1327564865350723,0.6908858418464661,0.6081729531288147,-0.1435143202543258,0.6501611471176147,0.601692795753479,-0.1447985768318176
2023-08-01 16:27:57.854287,32,245,0.9948793053627014,-0.006125668529421,0.0879328399896621,-0.0494503676891326,-0.20361328125,0.8603515625,0.23095703125,0.7396829724311829,0.8106502294540405,-7.408218607452e-07,0.686725914478302,0.6941754817962646,-0.0105623742565512,0.6580841541290283,0.6024211049079895,-0.0341594591736793,0.6272299289703369,0.5377479195594788,-0.0619617477059364,0.6152025461196899,0.4781973361968994,-0.0897699669003486,0.8096438646316528,0.5167895555496216,-0.0245715100318193,0.74251389503479,0.4497579336166382,-0.0713859125971794,0.6879475116729736,0.4342067241668701,-0.1060799211263656,0.640288770198822,0.4345675110816955,-0.1258456259965896,0.8322390913963318,0.5520401000976562,-0.0435174629092216,0.7487940192222595,0.4779263436794281,-0.0917008966207504,0.6751986742019653,0.4778484404087066,-0.1199357211589813,0.6248313784599304,0.4859898686408996,-0.1344925910234451,0.8352192044258118,0.599390983581543,-0.0660222098231315,0.7459994554519653,0.5363190174102783,-0.1140808090567588,0.6714134812355042,0.5354856848716736,-0.1301321983337402,0.6224533319473267,0.5428460240364075,-0.1332449167966842,0.8181071281433105,0.6506308913230896,-0.088705189526081,0.7387397289276123,0.5938791632652283,-0.1261060386896133,0.6820072531700134,0.5796516537666321,-0.1367064267396927,0.6424828171730042,0.5739431977272034,-0.1375621408224105
2023-08-01 16:27:57.915271,33,246,0.9958681464195251,-0.0075464490801095,0.0795124843716621,-0.0432145893573761,-0.36376953125,0.9189453125,0.2626953125,0.7307112216949463,0.8095302581787109,-7.895913540778565e-07,0.6845483779907227,0.6958479285240173,-0.010604933835566,0.6582634449005127,0.599973201751709,-0.0300335995852947,0.6253544092178345,0.5295966267585754,-0.0531440377235412,0.6165459156036377,0.467855304479599,-0.0752153545618057,0.8104710578918457,0.5120537281036377,-0.0127683011814951,0.7393639087677002,0.4438261389732361,-0.0502545423805713,0.6826609969139099,0.4331604838371277,-0.0803847759962081,0.6395453810691833,0.4387038350105285,-0.0980893895030021,0.8327402472496033,0.544514536857605,-0.0267322789877653,0.7440981864929199,0.4692331552505493,-0.0624213404953479,0.6743049621582031,0.4705977439880371,-0.0873483568429946,0.6275287866592407,0.4810653328895569,-0.1018211022019386,0.8348789811134338,0.5889707803726196,-0.0440611988306045,0.742113471031189,0.5256943106651306,-0.0810536667704582,0.6709657907485962,0.5261669158935547,-0.0955392494797706,0.6229437589645386,0.5354821681976318,-0.0997683554887771,0.8149127960205078,0.6377339363098145,-0.0619167312979698,0.734724760055542,0.5823925137519836,-0.0918904542922973,0.6809477210044861,0.5730623006820679,-0.1014973595738411,0.6413649320602417,0.572628378868103,-0.1026931628584861
2023-08-01 16:27:57.977580,34,247,0.9963083267211914,-0.0088266683742403,0.0750779062509536,-0.0406840033829212,-0.51806640625,0.93408203125,0.18994140625,0.7277321219444275,0.808072030544281,-7.918060873635113e-07,0.6827573776245117,0.6937065124511719,-0.0103525817394256,0.6584106087684631,0.5956302285194397,-0.0285785924643278,0.628680944442749,0.5239945650100708,-0.0505033992230892,0.6203749179840088,0.4631619453430176,-0.071620300412178,0.8093068599700928,0.512113630771637,-0.0112753361463546,0.7416805624961853,0.4436234533786773,-0.047815628349781,0.6872175335884094,0.429891288280487,-0.0775600746273994,0.6441622376441956,0.4326528310775757,-0.0950507968664169,0.832027792930603,0.5458252429962158,-0.0248036179691553,0.7461167573928833,0.4694869518280029,-0.0594066493213176,0.6766172647476196,0.4683127403259277,-0.0838633328676223,0.629217803478241,0.4771673083305359,-0.0981003567576408,0.8346998691558838,0.59026038646698,-0.041703850030899,0.7434927225112915,0.5268279314041138,-0.0777160078287124,0.6716781258583069,0.5257291197776794,-0.0915836915373802,0.6228833794593811,0.5337298512458801,-0.0955634862184524,0.8152108192443848,0.6382611393928528,-0.0592214576900005,0.7369683384895325,0.5845564603805542,-0.0880398377776146,0.6835401058197021,0.5762373208999634,-0.0966004356741905,0.6439136266708374,0.5762234330177307,-0.0972640216350555
2023-08-01 16:27:58.037956,35,248,0.9964855909347534,-0.0082813883200287,0.0716004371643066,-0.0426749624311924,-0.162109375,0.869140625,0.2529296875,0.7352429628372192,0.8149756789207458,-8.655781584820943e-07,0.6793351769447327,0.6876612305641174,0.0134911863133311,0.6534512042999268,0.5880628228187561,0.0016928971745073,0.6214413046836853,0.519209623336792,-0.0217696279287338,0.6058857440948486,0.4528195858001709,-0.0463872402906417,0.7931455373764038,0.5152427554130554,0.0194621831178665,0.7212897539138794,0.4423341155052185,-0.0202233269810676,0.6629084348678589,0.4317935407161712,-0.0534220710396766,0.6155364513397217,0.4387393593788147,-0.0727432295680046,0.8138217329978943,0.5383881330490112,-0.0121765155345201,0.7291264533996582,0.4448673725128174,-0.0539927296340465,0.6565700173377991,0.4478549361228943,-0.0842667669057846,0.608642041683197,0.4666752815246582,-0.1001387387514114,0.8182963132858276,0.5713921785354614,-0.047403872013092,0.73249351978302,0.4904118180274963,-0.089295744895935,0.6578412055969238,0.4966467022895813,-0.1062720492482185,0.6106477975845337,0.5148279070854187,-0.1104654148221015,0.8055816888809204,0.6087485551834106,-0.0817281752824783,0.7294228672981262,0.5450526475906372,-0.114807091653347,0.6734201908111572,0.5381620526313782,-0.1253727525472641,0.6345188617706299,0.5425565242767334,-0.1268981695175171
2023-08-01 16:27:58.103260,36,249,0.9966055750846864,-0.0084905149415135,0.0686315894126892,-0.044664591550827,-0.44775390625,0.93212890625,0.24267578125,0.7342106699943542,0.8189899921417236,-8.57365307638247e-07,0.6804149746894836,0.6883330345153809,0.0188625752925872,0.6545129418373108,0.5918179750442505,0.009494767524302,0.6212399005889893,0.5226334929466248,-0.0127750942483544,0.6007800698280334,0.4574459493160248,-0.0357177555561065,0.7942410111427307,0.5206213593482971,0.0301944743841886,0.7229742407798767,0.4463326930999756,-0.0057163345627486,0.6644868850708008,0.4331008195877075,-0.0386199057102203,0.6178990602493286,0.4395123720169067,-0.0583946742117404,0.8114357590675354,0.5420475006103516,-0.0025479944888502,0.7225525379180908,0.4561646580696106,-0.0385105423629283,0.6550281047821045,0.4579319655895233,-0.0689886733889579,0.6096359491348267,0.4747659564018249,-0.0872751697897911,0.8137196898460388,0.5728835463523865,-0.0387767702341079,0.7265609502792358,0.4942649304866791,-0.0723110735416412,0.6551586985588074,0.4954106211662292,-0.0888213664293289,0.6079365611076355,0.5104100704193115,-0.0956496372818946,0.7980957627296448,0.6091132760047913,-0.0742775723338127,0.7228789329528809,0.5436794757843018,-0.1000476256012916,0.6695578694343567,0.5347815752029419,-0.1092771291732788,0.6306807398796082,0.5391112565994263,-0.1118808612227439
2023-08-01 16:27:58.162252,37,250,0.9972981214523317,-0.009231548756361,0.0593465417623519,-0.0422984547913074,-0.28662109375,0.92822265625,0.12255859375,0.7313191294670105,0.821481466293335,-8.36323067687772e-07,0.6799724102020264,0.6947720646858215,0.0171019062399864,0.656745195388794,0.5921036005020142,0.0105672404170036,0.6236933469772339,0.5217340588569641,-0.008034199476242,0.6015724539756775,0.460265040397644,-0.0273762326687574,0.7907781004905701,0.5233092904090881,0.0314048267900943,0.7195661067962646,0.4496463239192962,-0.0022341874428093,0.6589310765266418,0.4378623366355896,-0.0345783270895481,0.6105523109436035,0.4445115327835083,-0.0543133616447448,0.8109012842178345,0.5427056550979614,0.001132745295763,0.7252317667007446,0.4471613764762878,-0.0313545204699039,0.6559175848960876,0.4436451196670532,-0.0614336617290973,0.6064026951789856,0.4591803550720215,-0.0800367444753646,0.8154000043869019,0.5730310082435608,-0.0326118022203445,0.7284666299819946,0.4869530797004699,-0.0651710331439971,0.6561524271965027,0.4887175858020782,-0.0829726457595825,0.6073092222213745,0.5061923861503601,-0.0903840959072113,0.8005017638206482,0.6086158156394958,-0.0655545517802238,0.7268317341804504,0.5365303754806519,-0.0908363312482833,0.6738597750663757,0.5253297090530396,-0.1006386056542396,0.6338483095169067,0.5290678143501282,-0.1038698107004165
2023-08-01 16:27:58.229873,38,251,0.9981209635734558,-0.010983595624566,0.0485915690660476,-0.0356746166944503,-0.11669921875,0.8955078125,0.283203125,0.7411019206047058,0.8296994566917419,-8.011778618310927e-07,0.6860602498054504,0.7053653597831726,0.0186570715159177,0.6656108498573303,0.6003912687301636,0.0150310732424259,0.6356058120727539,0.525139570236206,-0.0009339829557575,0.6133069396018982,0.460770845413208,-0.0170361939817667,0.7960914373397827,0.5333013534545898,0.0412170886993408,0.7339941263198853,0.4521951675415039,0.0125822341069579,0.6766993999481201,0.4350218772888183,-0.0176664292812347,0.6304230093955994,0.4395670890808105,-0.0365344174206256,0.8126089572906494,0.5482590794563293,0.011629563756287,0.7370079159736633,0.4452472925186157,-0.0161857940256595,0.6678918600082397,0.4396361708641052,-0.0438597127795219,0.6167722940444946,0.4564099907875061,-0.0604337342083454,0.8151353001594543,0.5732850432395935,-0.021731486544013,0.736354410648346,0.4820852279663086,-0.0482678674161434,0.6664887070655823,0.4785213470458984,-0.0636176317930221,0.6182013750076294,0.4921921491622925,-0.0700453221797943,0.7982761859893799,0.6040822267532349,-0.0546813048422336,0.7266241312026978,0.531394362449646,-0.0742768496274948,0.6757445335388184,0.5163158178329468,-0.0818748697638511,0.6371157765388489,0.5156534910202026,-0.0843156576156616
2023-08-01 16:27:58.285119,39,252,0.9986754655838012,-0.0106657911092042,0.0403912328183651,-0.0300359390676021,-0.3544921875,0.9169921875,0.3349609375,0.7440330386161804,0.8373790979385376,-8.631600962871744e-07,0.6844905614852905,0.7094882130622864,0.0286428295075893,0.6646695137023926,0.6032903790473938,0.0292112082242965,0.6368248462677002,0.5297824740409851,0.0141087220981717,0.6113293170928955,0.4647529721260071,-0.0021967438515275,0.7854507565498352,0.5299899578094482,0.0541998110711574,0.727563202381134,0.4494689702987671,0.0258524231612682,0.669561505317688,0.4365295171737671,-0.0054600406438112,0.622477650642395,0.4459187090396881,-0.0249391570687294,0.803598165512085,0.5451787114143372,0.0185208730399608,0.7294446229934692,0.447955846786499,-0.0089894626289606,0.6607911586761475,0.445315808057785,-0.0392005071043968,0.6112048625946045,0.463320791721344,-0.0578159242868423,0.8090449571609497,0.5712473392486572,-0.0207507275044918,0.7334249019622803,0.4818955361843109,-0.04724657908082,0.6639394164085388,0.4817049503326416,-0.0644578784704208,0.6160714030265808,0.497515320777893,-0.072514608502388,0.7963082194328308,0.6045411229133606,-0.0589495338499546,0.7265823483467102,0.5308237075805664,-0.0787692740559578,0.6746237277984619,0.5183233618736267,-0.086563766002655,0.6350468993186951,0.5212387442588806,-0.089370347559452
2023-08-01 16:27:58.350858,40,253,0.9992117285728456,-0.0075881825760006,0.0301976483315229,-0.0246256105601787,-0.349609375,0.90966796875,0.17919921875,0.746583104133606,0.8391367793083191,-8.527870249963598e-07,0.6824566721916199,0.7145853638648987,0.0351845063269138,0.664074182510376,0.6061651110649109,0.0405290871858596,0.6394034028053284,0.5316015481948853,0.0297182742506265,0.6149764060974121,0.4693199396133423,0.017275083810091,0.780863881111145,0.5287625789642334,0.061771735548973,0.7155168056488037,0.4555988311767578,0.0405484661459922,0.6589335203170776,0.4419578611850738,0.0136000122874975,0.6148471236228943,0.4468510746955871,-0.0039678825996816,0.7998524308204651,0.5401186943054199,0.0247409790754318,0.723336398601532,0.4449336528778076,0.005283020902425,0.6549364924430847,0.4423021078109741,-0.0201220605522394,0.6053364276885986,0.4603509306907654,-0.036770649254322,0.8042211532592773,0.5639584064483643,-0.0150326984003186,0.7289484739303589,0.475257396697998,-0.0342095158994197,0.6588481068611145,0.4734419882297516,-0.0479690171778202,0.6103938817977905,0.4862785339355469,-0.0556722693145275,0.7882717251777649,0.5958612561225891,-0.0533616095781326,0.7200775146484375,0.5276376008987427,-0.067502848803997,0.6676626801490784,0.5153439044952393,-0.0725080966949462,0.6269927024841309,0.5163077712059021,-0.0746752768754959
2023-08-01 16:27:58.416261,41,254,0.9994659423828124,-0.0041163777932524,0.0254208836704492,-0.0201137326657772,-0.07080078125,0.9033203125,0.25927734375,0.7473886013031006,0.8399552702903748,-8.509443887305679e-07,0.6819718480110168,0.7162969708442688,0.0376830361783504,0.6629245281219482,0.6086204051971436,0.0460544824600219,0.6372606158256531,0.5354277491569519,0.0375981666147708,0.6128920912742615,0.4744608104228973,0.027380421757698,0.7747340202331543,0.5301748514175415,0.0690059885382652,0.7125579714775085,0.4577802419662475,0.0497442409396171,0.6565654277801514,0.442943811416626,0.0238104928284883,0.6112139225006104,0.4450714886188507,0.0072102220728993,0.7952196002006531,0.5383708477020264,0.0317998602986335,0.7200860381126404,0.4455849826335907,0.0142039163038134,0.6539453864097595,0.4448466300964355,-0.0112095577642321,0.6043585538864136,0.4635486006736755,-0.0273003615438938,0.8014723062515259,0.5590715408325195,-0.0081962076947093,0.7249186038970947,0.4734948277473449,-0.0254416354000568,0.6571536660194397,0.4729692041873932,-0.0392787680029869,0.6076661944389343,0.4865298867225647,-0.0465870983898639,0.7876029014587402,0.5880411863327026,-0.0467061214148998,0.7162629961967468,0.5240299701690674,-0.0582298375666141,0.6657847762107849,0.5127683281898499,-0.0623744502663612,0.6250864863395691,0.5134580135345459,-0.063750572502613
2023-08-01 16:27:58.474231,42,255,0.9995312094688416,-0.000233036771533,0.0255893133580684,-0.0168060939759016,-0.1796875,0.9150390625,0.322265625,0.7529142498970032,0.848737359046936,-9.253496386918414e-07,0.6828039288520813,0.728916347026825,0.0695111826062202,0.6626428365707397,0.6214620471000671,0.0944915041327476,0.6409287452697754,0.54948890209198,0.0942918360233306,0.617624044418335,0.4846834242343902,0.0899227336049079,0.7548134922981262,0.5424009561538696,0.1172052845358848,0.7008913159370422,0.4674549996852875,0.1095869317650795,0.6466542482376099,0.4546923637390136,0.0882139578461647,0.6022859811782837,0.4600063264369964,0.0736193507909774,0.7766401767730713,0.5437468886375427,0.0631086379289627,0.7096921801567078,0.4540766179561615,0.0537127032876014,0.6434859037399292,0.4507995247840881,0.0268596280366182,0.5922592282295227,0.4707576036453247,0.0097222346812486,0.7864407896995544,0.557227373123169,0.007074215915054,0.7197157144546509,0.4695057868957519,-0.0044332104735076,0.6522722840309143,0.46798175573349,-0.0181869994848966,0.6030439138412476,0.4817220270633697,-0.0260638892650604,0.780270516872406,0.5793522596359253,-0.0453207269310951,0.7108471989631653,0.5140238404273987,-0.0519901327788829,0.658268392086029,0.5052589178085327,-0.0530345812439918,0.6186496019363403,0.507585883140564,-0.0530466847121715
2023-08-01 16:27:58.545483,43,256,0.9992944002151488,0.0057970234192907,0.0336234793066978,-0.0157015845179557,-0.33544921875,0.9619140625,0.15771484375,0.7478034496307373,0.8484818935394287,-7.760185667393671e-07,0.6804447174072266,0.7333465218544006,0.0418636240065097,0.6605634689331055,0.6213967204093933,0.0550787821412086,0.6363030672073364,0.5482771992683411,0.0495140887796878,0.6064229011535645,0.4869161248207092,0.0424945279955863,0.7569513320922852,0.5435865521430969,0.0889984294772148,0.7074015736579895,0.4685797989368438,0.0728641003370285,0.6536287069320679,0.452917218208313,0.0476050339639186,0.6066191792488098,0.4563612937927246,0.0315018408000469,0.7778756022453308,0.5459560751914978,0.0493704825639724,0.7120133638381958,0.4575201272964477,0.0336951687932014,0.6507453322410583,0.4496303796768188,0.0075203166343271,0.6010019183158875,0.4629825353622436,-0.0084750950336456,0.787389874458313,0.5613858699798584,0.0055725038982927,0.7200465202331543,0.4730399847030639,-0.0108439438045024,0.6538329124450684,0.4652076661586761,-0.0231407210230827,0.6025549173355103,0.4729715585708618,-0.0286039635539054,0.7811300754547119,0.5868857502937317,-0.0368730835616588,0.7119210958480835,0.5194082856178284,-0.0477296933531761,0.6595845222473145,0.5013272166252136,-0.0506842397153377,0.6174808740615845,0.4936304092407226,-0.0508532226085662
2023-08-01 16:27:58.605452,44,257,0.9990907907485962,0.0099359974265098,0.0386499837040901,-0.0150015754625201,-0.19921875,0.935546875,0.14892578125,0.7479018568992615,0.8541991114616394,-8.20349214336602e-07,0.6825802326202393,0.7431293725967407,0.0326709300279617,0.6618902087211609,0.6321039795875549,0.043242197483778,0.6370017528533936,0.562751293182373,0.038341362029314,0.6097245812416077,0.5068773031234741,0.0322401188313961,0.7614732980728149,0.5559763312339783,0.0711576491594314,0.7035357356071472,0.4808207750320434,0.0536855459213256,0.6473203897476196,0.4692080914974212,0.0291017703711986,0.603615403175354,0.4774049520492553,0.014298828318715,0.779638946056366,0.5598278641700745,0.0389436781406402,0.7047190070152283,0.4705382287502289,0.0234377980232238,0.6394627690315247,0.4684824347496032,-0.0021371957845985,0.5917640328407288,0.4845031499862671,-0.0179164428263902,0.7866041660308838,0.5751891732215881,0.0033115758560597,0.713846743106842,0.4833871722221374,-0.0110191740095615,0.6451706290245056,0.4785415530204773,-0.0238179005682468,0.5954151153564453,0.4900790452957153,-0.0301052834838628,0.7762002944946289,0.5994943976402283,-0.0313009396195411,0.7032108902931213,0.5312744975090027,-0.0393327847123146,0.653434693813324,0.5136774182319641,-0.0416118018329143,0.6160075664520264,0.5075516700744629,-0.0415351018309593
2023-08-01 16:27:58.664264,45,258,0.9989524483680724,0.011438762769103,0.0417132936418056,-0.0149431433528661,-0.201171875,0.93310546875,0.3203125,0.7502661347389221,0.8560788035392761,-8.083318334684009e-07,0.6818941831588745,0.7433285117149353,0.0419159159064292,0.6622442007064819,0.635205864906311,0.0560024715960025,0.6373475193977356,0.564836323261261,0.0517323389649391,0.6060385704040527,0.5091166496276855,0.0457629412412643,0.7605422735214233,0.5639416575431824,0.0885159447789192,0.7064496278762817,0.4864295721054077,0.0742361545562744,0.6497496366500854,0.4714630246162414,0.0496935062110424,0.6016485691070557,0.4754940867424011,0.0341462157666683,0.7784618139266968,0.5652356147766113,0.0505416542291641,0.7050429582595825,0.475659042596817,0.0368816182017326,0.6398048400878906,0.4695195257663727,0.0092362472787499,0.5901659727096558,0.4819296598434448,-0.0084910448640584,0.7852717041969299,0.5789974331855774,0.0090460693463683,0.7136977910995483,0.4853294789791107,-0.0049540526233613,0.6448537707328796,0.4803400635719299,-0.0195728577673435,0.5944127440452576,0.4906827211380005,-0.0272700041532516,0.7768593430519104,0.6021865010261536,-0.0307944249361753,0.7104641199111938,0.526996910572052,-0.0389150641858577,0.6587731838226318,0.5072004795074463,-0.0417733527719974,0.6183481216430664,0.4997941553592682,-0.0425471328198909
2023-08-01 16:27:58.725776,46,259,0.9988288879394532,0.0123162381350994,0.044039137661457,-0.0158004853874444,-0.2998046875,0.927734375,0.26416015625,0.7475106120109558,0.8574696779251099,-7.857137802602665e-07,0.6827512383460999,0.7492477297782898,0.0274516735225915,0.6618392467498779,0.6400094032287598,0.0336546525359153,0.6364930868148804,0.5683643221855164,0.0258261673152446,0.6058377623558044,0.5150467753410339,0.0173021014779806,0.7675312161445618,0.5662632584571838,0.0602995231747627,0.7085081338882446,0.48682302236557,0.0386197008192539,0.6504848003387451,0.473815381526947,0.0122121013700962,0.6024365425109863,0.4808711111545563,-0.0033015762455761,0.7855161428451538,0.5701450705528259,0.0303225051611661,0.7075244188308716,0.4757872819900512,0.0103146908804774,0.6405598521232605,0.472395658493042,-0.0159823205322027,0.5914685130119324,0.4874036908149719,-0.0317682474851608,0.7914122939109802,0.5868618488311768,-0.003014895832166,0.7182301878929138,0.489807665348053,-0.0220192763954401,0.6486436724662781,0.4862112402915954,-0.034939557313919,0.5986071825027466,0.4991327226161957,-0.040009282529354,0.7804164290428162,0.613378643989563,-0.035408079624176,0.7175816297531128,0.5387059450149536,-0.0475225709378719,0.6693183183670044,0.5157710313796997,-0.051178690046072,0.6316494941711426,0.5058746337890625,-0.0512035638093948
2023-08-01 16:27:58.793982,47,260,0.9988270401954652,0.0139987589791417,0.0438799262046813,-0.0149402134120464,-0.30908203125,0.9677734375,0.0654296875,0.7510942816734314,0.8617445826530457,-8.621522624707723e-07,0.6845252513885498,0.7494577765464783,0.0444522760808467,0.6645476818084717,0.6417607069015503,0.0587233193218708,0.6388982534408569,0.5725322961807251,0.0543563067913055,0.6124144792556763,0.5134305953979492,0.0480098724365234,0.7680273652076721,0.5707581639289856,0.0847572833299636,0.7103155255317688,0.488308310508728,0.0685049518942833,0.6521701812744141,0.4740552902221679,0.0439340434968471,0.604938268661499,0.4810584187507629,0.029107853770256,0.784506618976593,0.5737705230712891,0.0451824478805065,0.7096145153045654,0.4768974184989929,0.0297020636498928,0.6407901048660278,0.4732802808284759,0.0022566390689462,0.5908141136169434,0.4915760159492492,-0.0145287811756134,0.7889907360076904,0.5871279239654541,0.0027226821985095,0.7173868417739868,0.4863523244857788,-0.012778858654201,0.6464019417762756,0.483629047870636,-0.0273404773324728,0.5972976684570312,0.4980475306510925,-0.0342515893280506,0.7778856158256531,0.6090326905250549,-0.0375628471374511,0.7108951210975647,0.5299950242042542,-0.0472100265324115,0.6583949327468872,0.5111402273178101,-0.0500656962394714,0.6188535690307617,0.5064420700073242,-0.0500705912709236
2023-08-01 16:27:58.853325,48,261,0.999232053756714,0.0119057176634669,0.0355464629828929,-0.0114050498232245,-0.2236328125,0.92529296875,0.23486328125,0.7487525343894958,0.866136372089386,-8.274785727735434e-07,0.6848694086074829,0.7567156553268433,0.0300930198282003,0.664125919342041,0.6487768888473511,0.0389116890728473,0.636676549911499,0.5792285799980164,0.0333261154592037,0.6093139052391052,0.5242014527320862,0.0269697401672601,0.7712502479553223,0.5782375335693359,0.0641369074583053,0.7124069929122925,0.4950243234634399,0.0460426248610019,0.6542530655860901,0.4840753078460693,0.021720815449953,0.6079519391059875,0.4941168427467346,0.0074817351996898,0.7874081134796143,0.5812448263168335,0.0340147800743579,0.7093729972839355,0.4874580800533294,0.0199125111103057,0.6431161165237427,0.4850011765956878,-0.0043013063259422,0.596016526222229,0.5016096830368042,-0.0199573040008544,0.7920060753822327,0.5960785746574402,0.0007730949437245,0.7168634533882141,0.4984632134437561,-0.0126957092434167,0.6489610075950623,0.4958166778087616,-0.0245844405144453,0.6012188196182251,0.5105292797088623,-0.0306435842067003,0.7791831493377686,0.6199731826782227,-0.0314002335071563,0.7075766324996948,0.5450166463851929,-0.0392101258039474,0.6574891805648804,0.5274467468261719,-0.0407768934965133,0.6198103427886963,0.523938000202179,-0.0401978604495525
2023-08-01 16:27:58.915877,49,262,0.9992660284042358,0.0101943211629986,0.0354475304484367,-0.0103414515033364,-0.2021484375,0.92822265625,0.30322265625,0.747889518737793,0.8614657521247864,-8.227245302805386e-07,0.6835029721260071,0.7564132213592529,0.0245137196034193,0.662335991859436,0.6473038792610168,0.0313048288226127,0.6373065114021301,0.5771022439002991,0.0248858574777841,0.6101405620574951,0.5228261351585388,0.0179131291806697,0.768431544303894,0.5749510526657104,0.0575268976390361,0.7091463208198547,0.4973493218421936,0.0361039564013481,0.6521109342575073,0.4857400953769684,0.0099526802077889,0.6059520244598389,0.494454026222229,-0.0053599309176206,0.7849975824356079,0.5791015625,0.0296122729778289,0.7089776396751404,0.4863839149475097,0.0086498726159334,0.6414572596549988,0.4869578778743744,-0.0185102149844169,0.5926827788352966,0.5060878992080688,-0.0340781398117542,0.7908768057823181,0.5945633053779602,-0.0015910025686025,0.7176997661590576,0.4979292154312134,-0.021330289542675,0.6489753723144531,0.4967851936817169,-0.0359962433576583,0.6010667681694031,0.511985719203949,-0.0416922010481357,0.7805162668228149,0.6192234754562378,-0.0319263562560081,0.7128986120223999,0.5451297163963318,-0.045227974653244,0.6641138195991516,0.5241778492927551,-0.0500905998051166,0.6276483535766602,0.5169658064842224,-0.0504525937139987
2023-08-01 16:27:58.977004,50,263,0.999466836452484,0.0085076801478862,0.0302830934524536,-0.0087489010766148,-0.3173828125,0.9248046875,0.21630859375,0.7461860179901123,0.8601809144020081,-8.086108209681697e-07,0.6817302703857422,0.7523595094680786,0.0251300204545259,0.6602014899253845,0.6449908018112183,0.0316524729132652,0.6344913840293884,0.5758262872695923,0.0250281244516372,0.6092202663421631,0.5213910937309265,0.0177122335880994,0.7708489298820496,0.5769370794296265,0.0566909722983837,0.7101304531097412,0.4985805749893188,0.0357803255319595,0.6530025005340576,0.4841362237930298,0.0099014928564429,0.6058011054992676,0.4900585412979126,-0.0052004694007337,0.7867946624755859,0.581182062625885,0.0289864223450422,0.7086330652236938,0.4866290092468261,0.0096365185454487,0.6409680247306824,0.4855966567993164,-0.0169798769056797,0.5921198129653931,0.503688633441925,-0.0328436009585857,0.7910913228988647,0.5964069962501526,-0.001784696127288,0.7174882292747498,0.4967758059501648,-0.0203508473932743,0.6492661237716675,0.4948689341545105,-0.0350589901208877,0.6014883518218994,0.5114065408706665,-0.0411970950663089,0.7781330943107605,0.6204078793525696,-0.0315317399799823,0.7110382914543152,0.5452890396118164,-0.0440794937312603,0.661994993686676,0.5254233479499817,-0.0487757846713066,0.6244515180587769,0.5217159390449524,-0.0491785928606987
2023-08-01 16:27:59.057834,51,264,0.9995945692062378,0.0069289309903979,0.0267006121575832,-0.0070463023148477,-0.220703125,0.9443359375,0.259765625,0.7459214925765991,0.86015784740448,-8.414714898208331e-07,0.679659903049469,0.7544683814048767,0.0274990200996398,0.6583225727081299,0.6478999257087708,0.0354770943522453,0.6316866874694824,0.580310583114624,0.0300565268844366,0.6049998998641968,0.5290154218673706,0.0236251894384622,0.7690271139144897,0.5771077275276184,0.0576067082583904,0.7068413496017456,0.5004815459251404,0.0387243293225765,0.6492191553115845,0.4903216958045959,0.0142465066164731,0.6027717590332031,0.5003896355628967,-0.0001980904053198,0.7840396761894226,0.5814399719238281,0.0291258431971073,0.703752338886261,0.4884377121925354,0.0124988034367561,0.6363644599914551,0.4893357157707214,-0.0127197438850998,0.5878108143806458,0.5082530379295349,-0.0281336735934019,0.7876096367835999,0.5963243246078491,-0.0020179310813546,0.7115907669067383,0.4988685250282287,-0.018329344689846,0.6441068649291992,0.4972183108329773,-0.0322616025805473,0.5966696739196777,0.5132571458816528,-0.0386111326515674,0.7735130190849304,0.6197013854980469,-0.031991321593523,0.704043984413147,0.544880211353302,-0.0432691909372806,0.6553593277931213,0.5264094471931458,-0.0471803061664104,0.6178004145622253,0.5239266157150269,-0.0474252589046955
2023-08-01 16:27:59.139433,52,265,0.9993757009506226,0.0090163750573992,0.0331125371158123,-0.0083929235115647,-0.2705078125,0.958984375,0.158203125,0.7436552047729492,0.8582187294960022,-7.905825327725324e-07,0.6772345304489136,0.7553617358207703,0.0223491229116916,0.6536994576454163,0.6495630145072937,0.027467343956232,0.6259016394615173,0.5823628306388855,0.0202646255493164,0.5978401899337769,0.5310781002044678,0.0122457509860396,0.7638307809829712,0.5769054889678955,0.0521848499774932,0.7009301781654358,0.5041459202766418,0.0310097131878137,0.644065797328949,0.490996241569519,0.0047768051736056,0.5972999334335327,0.4971722364425659,-0.0108796209096908,0.7787916660308838,0.5812544822692871,0.0260178539901971,0.6995185613632202,0.4912099242210388,0.0070187454111874,0.6325335502624512,0.4910259544849396,-0.0191620960831642,0.5840004682540894,0.5075119733810425,-0.0352217778563499,0.7820770144462585,0.5969247817993164,-0.003175251185894,0.7079173922538757,0.5006973147392273,-0.0219702739268541,0.6406124234199524,0.4993117749691009,-0.0365454778075218,0.593231737613678,0.5154802799224854,-0.042899515479803,0.7676657438278198,0.6214380264282227,-0.0315333530306816,0.7010930776596069,0.5483090281486511,-0.0442296080291271,0.6536712050437927,0.5302521586418152,-0.0486903488636016,0.6170551776885986,0.5279326438903809,-0.0492240488529205
2023-08-01 16:27:59.215452,53,266,0.999312937259674,0.0078003690578043,0.0353943407535553,-0.0077507104724645,-0.27392578125,0.94384765625,0.21533203125,0.7475952506065369,0.8588860630989075,-7.77834657128551e-07,0.6769566535949707,0.7542973756790161,0.0309837758541107,0.6549610495567322,0.6513898372650146,0.0389382317662239,0.6279991269111633,0.5834788680076599,0.0317490473389625,0.599277913570404,0.5284364223480225,0.0234524756669998,0.7583180069923401,0.5769463777542114,0.0694252029061317,0.6991435289382935,0.5068926811218262,0.0510197207331657,0.6431361436843872,0.4935198426246643,0.0252399016171693,0.596822202205658,0.4976032972335815,0.0094383740797638,0.7757464647293091,0.5800085067749023,0.0376798473298549,0.6997614502906799,0.4913669228553772,0.0204375628381967,0.6336256265640259,0.4919774532318115,-0.0064464514143764,0.5858263373374939,0.5094599723815918,-0.0229878220707178,0.7812327742576599,0.5935083031654358,0.0026727011427283,0.7095895409584045,0.4995890855789184,-0.0142390914261341,0.6414255499839783,0.4996298253536224,-0.0286554843187332,0.5941774845123291,0.5164245963096619,-0.0352772250771522,0.769054114818573,0.6145792603492737,-0.0311261266469955,0.7019365429878235,0.5445185899734497,-0.0410446114838123,0.6521333456039429,0.5281133055686951,-0.0442452207207679,0.6145578622817993,0.5259555578231812,-0.0445159375667572
