Timestamp,Index,Frame ID,w,x,y,z,ax,ay,az,x_0,y_0,z_0,x_1,y_1,z_1,x_2,y_2,z_2,x_3,y_3,z_3,x_4,y_4,z_4,x_5,y_5,z_5,x_6,y_6,z_6,x_7,y_7,z_7,x_8,y_8,z_8,x_9,y_9,z_9,x_10,y_10,z_10,x_11,y_11,z_11,x_12,y_12,z_12,x_13,y_13,z_13,x_14,y_14,z_14,x_15,y_15,z_15,x_16,y_16,z_16,x_17,y_17,z_17,x_18,y_18,z_18,x_19,y_19,z_19,x_20,y_20,z_20
2023-08-01 16:27:49.243754,0,110,0.9971818327903748,-0.0176030118018388,-0.0719856321811676,0.0116842100396752,-0.142578125,0.93603515625,0.33203125,0.7439755797386169,0.844737708568573,-6.620562089665327e-07,0.6714174151420593,0.7679196000099182,0.0045896219089627,0.632097065448761,0.667222797870636,0.0021742873359471,0.5949369072914124,0.6017341613769531,-0.0101556908339262,0.5514692068099976,0.554379940032959,-0.0221864599734544,0.6976574659347534,0.5621461868286133,0.0429914146661758,0.6412163972854614,0.4999848008155823,0.0118167651817202,0.5849483013153076,0.4969700574874878,-0.0214614365249872,0.5343236327171326,0.5106447339057922,-0.0414349436759948,0.723146915435791,0.5551207661628723,0.0221123658120632,0.6533652544021606,0.4752030670642853,-0.0086596207693219,0.5897460579872131,0.4864015579223633,-0.0404450632631778,0.5397882461547852,0.511039137840271,-0.0590133108198642,0.742798924446106,0.5661781430244446,-0.0044632917270064,0.6787132620811462,0.4782195091247558,-0.0349661335349082,0.6131405234336853,0.4975809454917907,-0.0539216436445713,0.5646228194236755,0.5305832028388977,-0.0610598064959049,0.7482954859733582,0.5940244793891907,-0.031656052917242,0.6819618344306946,0.5357328057289124,-0.0518252924084663,0.6317058205604553,0.5355578064918518,-0.0603546388447284,0.5935681462287903,0.5463455319404602,-0.063351035118103
2023-08-01 16:27:49.302175,1,111,0.997680366039276,-0.0171153526753187,-0.0653433799743652,0.008434921503067,-0.25732421875,0.9169921875,0.36865234375,0.7427011132240295,0.8455174565315247,-7.014986636022513e-07,0.6687843799591064,0.7634045481681824,0.009397592395544,0.6310544013977051,0.661130964756012,0.0086342319846153,0.5945304036140442,0.5961488485336304,-0.0030757645145058,0.5509931445121765,0.5506036877632141,-0.0150015391409397,0.7045390605926514,0.5586286783218384,0.0472562126815319,0.6476306915283203,0.4965037703514099,0.0172978844493627,0.5892416834831238,0.4925944805145263,-0.0157563276588916,0.5378111600875854,0.5069451332092285,-0.0357778742909431,0.7282134294509888,0.553150475025177,0.0239372216165065,0.6562400460243225,0.4738497734069824,-0.0047514159232378,0.5909296870231628,0.4856904745101928,-0.0360293015837669,0.5406347513198853,0.5120075941085815,-0.0547937788069248,0.7446999549865723,0.5664339065551758,-0.004731701221317,0.6785091757774353,0.4789501130580902,-0.0332965180277824,0.6120045185089111,0.4965547919273376,-0.0517454147338867,0.563590943813324,0.529344379901886,-0.0591644831001758,0.7465157508850098,0.5963268280029297,-0.0337099991738796,0.6798287034034729,0.5365344882011414,-0.0524351596832275,0.6290243268013,0.5334312915802002,-0.0602932125329971,0.590173602104187,0.5419455766677856,-0.063200443983078
2023-08-01 16:27:49.362987,2,112,0.9983089566230774,-0.0161580629646778,-0.0556696206331253,0.0043711252510547,-0.10009765625,0.919921875,0.34326171875,0.7419442534446716,0.8427008986473083,-7.278364932972181e-07,0.6694725155830383,0.7625105977058411,0.0068343849852681,0.631688117980957,0.6602557301521301,0.0046598985791206,0.5949268937110901,0.5935664176940918,-0.0078107034787535,0.5513323545455933,0.5471160411834717,-0.0205494407564401,0.7072030901908875,0.5574546456336975,0.0424380488693714,0.6485275626182556,0.4954771995544433,0.0111116580665111,0.5899549722671509,0.4919958710670471,-0.0229195952415466,0.5378091335296631,0.506626546382904,-0.0435291863977909,0.7303712964057922,0.5519744753837585,0.0202052108943462,0.6555336117744446,0.4722435772418976,-0.0096600009128451,0.5895513296127319,0.4840058386325836,-0.0418281070888042,0.5380515456199646,0.5095361471176147,-0.0612850077450275,0.7459208965301514,0.5649234056472778,-0.0073148282244801,0.6772519946098328,0.4766451120376587,-0.0371176563203334,0.6108577847480774,0.4934808015823364,-0.0565482527017593,0.5613184571266174,0.5253750681877136,-0.0645635202527046,0.7467025518417358,0.5941672921180725,-0.0352246761322021,0.678832471370697,0.5334615111351013,-0.0553538836538791,0.6286272406578064,0.5299767255783081,-0.0640055760741233,0.589148759841919,0.5383945107460022,-0.0673398524522781
2023-08-01 16:27:49.433336,3,113,0.9986142516136168,-0.0151431718841195,-0.0503743588924407,0.0016201633261516,-0.279296875,0.9326171875,0.26904296875,0.7391945123672485,0.8336372375488281,-7.609282306475507e-07,0.6666229963302612,0.7430534362792969,0.0216612853109836,0.6363823413848877,0.6377913951873779,0.026835698634386,0.6069658994674683,0.5694800019264221,0.0183880235999822,0.5700880289077759,0.5211362242698669,0.0092682698741555,0.7210524082183838,0.5356026887893677,0.0627728402614593,0.6589661240577698,0.4809130132198334,0.0398723855614662,0.6023824214935303,0.4755795300006866,0.0102490754798054,0.5529869794845581,0.4856666326522827,-0.0087180938571691,0.7447056174278259,0.5326061844825745,0.0337037518620491,0.6670370101928711,0.462024450302124,0.0125223947688937,0.60292649269104,0.4671500027179718,-0.0166299529373645,0.5507283210754395,0.4866724014282226,-0.0354095250368118,0.7595311403274536,0.546545684337616,-0.0001157480437541,0.6849190592765808,0.4705986976623535,-0.0233136322349309,0.6165893077850342,0.477669358253479,-0.0412842221558094,0.5630055069923401,0.4983444213867187,-0.0500663742423057,0.7579277753829956,0.5763367414474487,-0.0335327237844467,0.687164843082428,0.5189067125320435,-0.0491992607712745,0.6364274024963379,0.5124465227127075,-0.056037500500679,0.595596194267273,0.5177004337310791,-0.0590566657483577
2023-08-01 16:27:49.492223,4,114,0.9988327026367188,-0.0183690227568149,-0.044671282172203,-0.0004623402783181,-0.20361328125,0.892578125,0.353515625,0.7445375323295593,0.8347146511077881,-7.810147053533001e-07,0.6692492365837097,0.7398635745048523,0.0225660502910614,0.6383299827575684,0.6365830302238464,0.0269080307334661,0.605855405330658,0.5681560635566711,0.0174861699342727,0.573340892791748,0.5122115015983582,0.0075750728137791,0.7279545664787292,0.536935031414032,0.0612508989870548,0.6653295159339905,0.4793010354042053,0.0370136089622974,0.6073014140129089,0.473281979560852,0.0070000700652599,0.5575737953186035,0.4832902550697326,-0.0115974014624953,0.7481947541236877,0.5361047983169556,0.032081913203001,0.6681071519851685,0.4641033411026001,0.0108401300385594,0.6033939123153687,0.4697271585464477,-0.0175079330801963,0.5530861020088196,0.4899402260780334,-0.0352523140609264,0.7595208287239075,0.5505701303482056,-0.0016007454833015,0.6817663311958313,0.4729586839675903,-0.0238729938864707,0.612286388874054,0.4799168109893799,-0.0393256582319736,0.5600213408470154,0.5004211664199829,-0.046024814248085,0.755125880241394,0.5795202255249023,-0.0349862091243267,0.6854746341705322,0.5195316076278687,-0.0506989881396293,0.6323281526565552,0.510148823261261,-0.0563676841557025,0.5886151194572449,0.5135366320610046,-0.0576688386499881
2023-08-01 16:27:49.551856,5,115,0.9991570711135864,-0.0206710752099752,-0.0352999754250049,-0.0034256340004503,-0.33837890625,0.92236328125,0.3623046875,0.7466760873794556,0.8325478434562683,-7.230586334117106e-07,0.6697713732719421,0.7353301048278809,0.0216115768998861,0.6387326121330261,0.632124125957489,0.0253109727054834,0.6071269512176514,0.5636267066001892,0.0154315941035747,0.5738768577575684,0.507567286491394,0.0051467879675328,0.7283544540405273,0.5315950512886047,0.0603708513081073,0.6636424660682678,0.4754377901554107,0.0362794175744056,0.606757640838623,0.4685499668121338,0.0061435247771441,0.5575594902038574,0.4748019874095917,-0.0130799170583486,0.7507487535476685,0.530799150466919,0.0310710221529006,0.6712540984153748,0.4573448598384857,0.0081067401915788,0.6071164608001709,0.4610856175422668,-0.0212201997637748,0.5573209524154663,0.4789299964904785,-0.0395780764520168,0.7636592388153076,0.546862006187439,-0.002741260221228,0.6864988207817078,0.4687318205833435,-0.0272768028080463,0.6179601550102234,0.4772400856018066,-0.043666124343872,0.567719042301178,0.4990992546081543,-0.0506160706281662,0.759990930557251,0.5778560638427734,-0.0361891873180866,0.6904554963111877,0.5197461843490601,-0.0538895204663276,0.6380000710487366,0.5118168592453003,-0.060449156910181,0.596729040145874,0.5157097578048706,-0.0622673854231834
2023-08-01 16:27:49.615076,6,116,0.9993487000465392,-0.0218295287340879,-0.0272108875215053,-0.0092327836900949,-0.35302734375,0.92041015625,0.3291015625,0.7484270930290222,0.8278212547302246,-7.946790674395743e-07,0.6681070923805237,0.7244861721992493,0.0367552563548088,0.6386323571205139,0.6264284253120422,0.0452570207417011,0.6078240275382996,0.5601425170898438,0.036126647144556,0.5749995112419128,0.5044131875038147,0.0253276918083429,0.7276474237442017,0.5298224091529846,0.0780687779188156,0.6656924486160278,0.4687833189964294,0.0572904571890831,0.6083005666732788,0.4638028740882873,0.0283688865602016,0.559768795967102,0.4752264618873596,0.0098159862682223,0.7492413520812988,0.5293314456939697,0.0403925254940986,0.6693500876426697,0.4556893706321716,0.0214084982872009,0.604477047920227,0.4618339538574219,-0.0082436604425311,0.5556678771972656,0.4838820695877075,-0.0276736617088317,0.7607644200325012,0.5431728959083557,-0.0011859873775392,0.6818044185638428,0.4665442109107971,-0.0209781527519226,0.6124054193496704,0.4763031303882599,-0.037078883498907,0.5621663928031921,0.4990363717079162,-0.0454700328409671,0.7570644021034241,0.5708807706832886,-0.0414507687091827,0.6850006580352783,0.5126368403434753,-0.0547573678195476,0.63164222240448,0.5079045295715332,-0.0593938268721103,0.5893154740333557,0.5151726007461548,-0.0611590296030044
2023-08-01 16:27:49.679226,7,117,0.9995236992836,-0.019704308360815,-0.0131607893854379,-0.0197702646255493,0.11572265625,0.86767578125,0.34326171875,0.737115204334259,0.8286473751068115,-7.408694386867865e-07,0.6610106229782104,0.7147120833396912,0.0404449738562107,0.6302167773246765,0.6135959625244141,0.0509234964847564,0.595224916934967,0.5485368371009827,0.0419602394104003,0.5600932836532593,0.4879778027534485,0.0310258567333221,0.7217289805412292,0.5203486084938049,0.0892006605863571,0.6606746912002563,0.4694888293743133,0.0710670799016952,0.6073700189590454,0.4567027688026428,0.0425429865717887,0.5602638721466064,0.4546817541122436,0.0224619563668966,0.7449941039085388,0.5211961269378662,0.0478903427720069,0.668789803981781,0.4573274254798889,0.0273841489106416,0.606690526008606,0.4580629467964172,-0.0046296771615743,0.5565911531448364,0.4719518423080444,-0.0259384959936141,0.7596720457077026,0.5347172617912292,0.0022639881353825,0.6801121234893799,0.4707629084587097,-0.0214346051216125,0.6119541525840759,0.4852998852729797,-0.040585670620203,0.5619900226593018,0.5106332302093506,-0.0503334887325763,0.7618592381477356,0.5614641904830933,-0.0417802743613719,0.6866626143455505,0.5135682225227356,-0.0593715757131576,0.6332793235778809,0.5193229913711548,-0.0668470934033393,0.5919130444526672,0.5359993577003479,-0.070203498005867
2023-08-01 16:27:49.737812,8,118,0.9995233416557312,-0.0186043381690979,0.0039904890581965,-0.0243119038641452,-0.40478515625,0.93798828125,0.38232421875,0.7299418449401855,0.81610506772995,-7.331854590120201e-07,0.6594620943069458,0.7057315111160278,0.0224218387156724,0.6274548172950745,0.6067689657211304,0.0252111665904521,0.5907949209213257,0.5423803329467773,0.0138932615518569,0.5588547587394714,0.4809403717517853,0.0020739131141453,0.7318556308746338,0.5078476667404175,0.0601652674376964,0.6642585396766663,0.4614347219467163,0.0352454110980033,0.609546422958374,0.4518440365791321,0.0050882222130894,0.5619392991065979,0.4521685242652893,-0.0146621661260724,0.7547702789306641,0.5120385885238647,0.0297222193330526,0.6701362729072571,0.4520713090896606,0.005285071209073,0.607918381690979,0.453880250453949,-0.0242968276143074,0.5594553351402283,0.466434895992279,-0.0433991476893425,0.7670279741287231,0.5296140909194946,-0.0053801028989255,0.6791874766349792,0.4694504141807556,-0.0331269800662994,0.6141876578330994,0.4835206270217895,-0.0500300712883472,0.5674173831939697,0.5076349973678589,-0.0570067316293716,0.7639445662498474,0.5604815483093262,-0.0399903729557991,0.6850863099098206,0.514950692653656,-0.0618512332439422,0.6343211531639099,0.5191632509231567,-0.0699359700083732,0.5951955318450928,0.5332264304161072,-0.072142980992794
2023-08-01 16:27:49.804445,9,119,0.999316930770874,-0.01596649736166,0.0153445256873965,-0.0295843612402677,-0.24951171875,0.8974609375,0.27880859375,0.7266404628753662,0.8139889240264893,-7.577561405014421e-07,0.660991907119751,0.7046083211898804,0.0210879705846309,0.6317489147186279,0.6059259176254272,0.0231744274497032,0.5987728238105774,0.5425291657447815,0.0120145324617624,0.5679572820663452,0.4868254661560058,-0.0002391524030826,0.7384688258171082,0.5082483291625977,0.054362766444683,0.6707023978233337,0.4601899981498718,0.0287408102303743,0.6158050298690796,0.4474414587020874,-0.0026578924153,0.5677528381347656,0.4469337463378906,-0.0233307015150785,0.7605599761009216,0.5136866569519043,0.0245951320976018,0.6766837239265442,0.4513289630413055,0.0009110249811783,0.6142125129699707,0.4470727741718292,-0.030160391703248,0.5643717050552368,0.4526629149913788,-0.0511726401746273,0.7724911570549011,0.5329537391662598,-0.0094098225235939,0.6857383847236633,0.4719723165035248,-0.0372991375625133,0.6190976500511169,0.4807777404785156,-0.057092148810625,0.5692673921585083,0.4995871484279632,-0.0667206197977066,0.767493724822998,0.5653629899024963,-0.0427312962710857,0.688302755355835,0.5177745819091797,-0.065098226070404,0.6383095979690552,0.5227376818656921,-0.0742166936397552,0.5988852381706238,0.5371401906013489,-0.0775695592164993
2023-08-01 16:27:49.865345,10,120,0.9984292984008788,-0.0130632352083921,0.0411120168864727,-0.0357505828142166,-0.2861328125,0.86474609375,0.326171875,0.7259033918380737,0.8025953769683838,-6.918490385032783e-07,0.6673713326454163,0.6894640326499939,0.0147060677409172,0.635365903377533,0.5947264432907104,0.0096839135512709,0.5997534990310669,0.5311331152915955,-0.0066087809391319,0.5745617151260376,0.4715162217617035,-0.0230284258723258,0.7570160031318665,0.4990506470203399,0.0359306223690509,0.6926905512809753,0.4409176707267761,0.005944212898612,0.6400530338287354,0.4240778088569641,-0.0259654261171817,0.5928221940994263,0.4190991520881653,-0.0461816154420375,0.7792569994926453,0.5138056874275208,0.0085010323673486,0.6963607668876648,0.4452384114265442,-0.0207359343767166,0.6335092782974243,0.4433718621730804,-0.0496885813772678,0.5859264135360718,0.4526937901973724,-0.0678702294826507,0.7888399362564087,0.5413246154785156,-0.0227687526494264,0.7012048363685608,0.4805929660797119,-0.0535914376378059,0.6346903443336487,0.4977575242519378,-0.0686723440885543,0.5885269045829773,0.5222674608230591,-0.0739862397313118,0.7807365655899048,0.579759418964386,-0.0537244565784931,0.7049564719200134,0.529022216796875,-0.0775400921702385,0.6530030965805054,0.5358474850654602,-0.0845609605312347,0.6145138144493103,0.5510852336883545,-0.0854133144021034
2023-08-01 16:27:49.926188,11,121,0.9974750876426696,-0.0126377427950501,0.0567451305687427,-0.0407878793776035,-0.4482421875,0.8896484375,0.287109375,0.7317766547203064,0.8029518723487854,-8.426948170381365e-07,0.6700751781463623,0.6849929094314575,0.0169624369591474,0.6371504664421082,0.5885403156280518,0.0089071905240416,0.6011041402816772,0.5251330137252808,-0.0117682628333568,0.5824105143547058,0.460964173078537,-0.0330793634057045,0.7648873329162598,0.4975526630878448,0.0309453457593917,0.6949978470802307,0.4320882558822632,-0.0076338248327374,0.6371111869812012,0.4272109866142273,-0.0426712557673454,0.5915544629096985,0.4385218918323517,-0.0628188326954841,0.7883157134056091,0.516434907913208,-0.0002034440694842,0.6968876719474792,0.4439350962638855,-0.0381983518600463,0.6261295080184937,0.4562934041023254,-0.0684673264622688,0.581081211566925,0.4813627302646637,-0.0849406942725181,0.7965821027755737,0.5475856065750122,-0.0353801734745502,0.7029857635498047,0.4833193123340606,-0.0729557052254676,0.6292121410369873,0.5041110515594482,-0.0880951732397079,0.5844239592552185,0.5322115421295166,-0.0913126468658447,0.7871748208999634,0.5868074893951416,-0.0696478262543678,0.7062153816223145,0.533828616142273,-0.0971999168395996,0.6523217558860779,0.5415095686912537,-0.1042012870311737,0.6169903874397278,0.5581303238868713,-0.1034173890948295
2023-08-01 16:27:49.986015,12,122,0.9970880746841432,-0.0101656205952167,0.0594826377928257,-0.0466241054236888,-0.283203125,0.88037109375,0.2412109375,0.7304801940917969,0.8019879460334778,-8.963772870629327e-07,0.6687073111534119,0.6859722137451172,-0.0075979079119861,0.6309854984283447,0.5876100063323975,-0.0253231301903724,0.5964253544807434,0.5193584561347961,-0.0471170842647552,0.5883397459983826,0.4634110331535339,-0.0672929435968399,0.7743070125579834,0.4818260967731476,-0.0136707331985235,0.6881769299507141,0.4342974424362182,-0.0497860647737979,0.6287366151809692,0.447042167186737,-0.0761563405394554,0.587227463722229,0.47129026055336,-0.0909646824002265,0.801186203956604,0.5123237371444702,-0.0292723271995782,0.6966155171394348,0.4589923918247223,-0.06434927880764,0.6251676082611084,0.4816656112670898,-0.0868630558252334,0.579695463180542,0.5081155300140381,-0.0997441634535789,0.8090309500694275,0.55633145570755,-0.0476348139345645,0.7044737935066223,0.5094671845436096,-0.0845382809638977,0.6313201785087585,0.5294209122657776,-0.0966348126530647,0.5839732885360718,0.5551704168319702,-0.0994315668940544,0.7947465777397156,0.608934760093689,-0.0661821290850639,0.7073894143104553,0.5675296783447266,-0.096868596971035,0.65178382396698,0.5730940699577332,-0.1051174700260162,0.6115384101867676,0.5853914618492126,-0.1051730960607528
2023-08-01 16:27:50.053020,13,123,0.9961576461791992,-0.006548591889441,0.0681084617972374,-0.0546648502349853,-0.4140625,0.89208984375,0.224609375,0.7307354211807251,0.8003853559494019,-8.943080729295616e-07,0.6689029335975647,0.6866756081581116,-0.0101048070937395,0.6343804001808167,0.5935333371162415,-0.0305459517985582,0.5984074473381042,0.5290993452072144,-0.0546709336340427,0.583915114402771,0.4765202701091766,-0.0778661370277404,0.7792752385139465,0.4809688925743103,-0.0206340085715055,0.6871281266212463,0.439608633518219,-0.0592280961573123,0.6274476051330566,0.4514267444610595,-0.0870265290141105,0.585241973400116,0.4738496541976928,-0.1030645668506622,0.8055213093757629,0.5122221112251282,-0.0366000011563301,0.6968506574630737,0.466132253408432,-0.074645847082138,0.6248520612716675,0.4892374277114868,-0.0979689732193946,0.5785993933677673,0.5137611031532288,-0.1111706048250198,0.811835765838623,0.560604989528656,-0.0553362555801868,0.702424943447113,0.5180134177207947,-0.0946485251188278,0.6283412575721741,0.536243736743927,-0.1073571518063545,0.5804404020309448,0.5580058097839355,-0.1105015128850936,0.7966436147689819,0.6178958415985107,-0.0744378417730331,0.7051079273223877,0.5808461904525757,-0.1076524257659912,0.6479276418685913,0.5825470685958862,-0.1170014441013336,0.6070179343223572,0.5902351140975952,-0.1176213473081588
2023-08-01 16:27:50.112145,14,124,0.9954108595848083,-0.0038832565769553,0.0722108781337738,-0.0626713782548904,-0.37890625,0.8994140625,0.255859375,0.7430828213691711,0.8106656074523926,-8.78028174611245e-07,0.6761004328727722,0.6969590783119202,-0.004890258423984,0.6393287181854248,0.6090619564056396,-0.0270099565386772,0.6014683246612549,0.5502026677131653,-0.0537930428981781,0.5723066926002502,0.501372218132019,-0.0812366157770156,0.7810087203979492,0.4909268319606781,-0.0282062068581581,0.6906805634498596,0.4508946537971496,-0.0717913657426834,0.6320419311523438,0.4555053114891052,-0.1015119552612304,0.5848808884620667,0.4721043109893799,-0.1182405725121498,0.8077020645141602,0.5228760838508606,-0.0497156977653503,0.7003833651542664,0.4816159307956695,-0.0929194539785385,0.6283772587776184,0.5031078457832336,-0.1157740205526351,0.5809160470962524,0.5260782241821289,-0.1282868832349777,0.815030038356781,0.5732659101486206,-0.073590412735939,0.707741916179657,0.535252034664154,-0.11746546626091,0.6340513229370117,0.5518873333930969,-0.1293750703334808,0.5868101716041565,0.5720399022102356,-0.1316403001546859,0.8029819130897522,0.6326589584350586,-0.097260795533657,0.7124188542366028,0.5966748595237732,-0.1339875012636184,0.6541664004325867,0.5965853333473206,-0.1428914666175842,0.6134776473045349,0.6014189124107361,-0.143100619316101
2023-08-01 16:27:50.196880,15,125,0.994674563407898,-0.000230920893955,0.0754178091883659,-0.0702465772628784,-0.384765625,0.8818359375,0.20556640625,0.7426262497901917,0.8094233274459839,-8.074639481492341e-07,0.6771426200866699,0.6992171406745911,-0.0055188634432852,0.6384247541427612,0.6159400343894958,-0.0289076529443264,0.596496045589447,0.5624540448188782,-0.057460717856884,0.5653117299079895,0.5154410600662231,-0.0870215967297554,0.7793745398521423,0.4915236234664917,-0.0246555972844362,0.6909496784210205,0.4492677450180053,-0.0689063742756843,0.6349029541015625,0.4479979276657104,-0.1009869277477264,0.587975800037384,0.460719496011734,-0.1191194728016853,0.8074066638946533,0.5223322510719299,-0.0459287539124488,0.7019184231758118,0.4800727963447571,-0.0905398055911064,0.6295294761657715,0.5031606554985046,-0.1163044646382331,0.5808436274528503,0.5281103849411011,-0.130033791065216,0.8151459097862244,0.572146475315094,-0.0698088929057121,0.7093541622161865,0.5339524745941162,-0.1148649752140045,0.634748101234436,0.553554892539978,-0.1291007995605468,0.586021363735199,0.5759719610214233,-0.1318400651216507,0.802402138710022,0.6312508583068848,-0.0934106335043907,0.7137022614479065,0.5937195420265198,-0.1299356818199157,0.6553378105163574,0.5945758819580078,-0.1392888724803924,0.6136376857757568,0.60093754529953,-0.1393992602825164
2023-08-01 16:27:50.285321,16,126,0.994312584400177,0.0029228513594716,0.0757365003228187,-0.0748191177845001,-0.357421875,0.884765625,0.18896484375,0.744691014289856,0.8162309527397156,-8.760552532294241e-07,0.6822482347488403,0.6883101463317871,-0.006960816681385,0.6525148153305054,0.6040639281272888,-0.0334909036755561,0.6193030476570129,0.5457977056503296,-0.0653563737869262,0.5967923402786255,0.4967762231826782,-0.0983320996165275,0.7938986420631409,0.502759575843811,-0.0364966951310634,0.7070740461349487,0.4653448760509491,-0.0874677076935768,0.6457080245018005,0.4692528247833252,-0.1230905950069427,0.5932784676551819,0.4837731122970581,-0.1435316503047943,0.8210989832878113,0.5409764051437378,-0.0599840767681598,0.7132318019866943,0.5042517185211182,-0.1143873408436775,0.6388882994651794,0.5296645164489746,-0.1453072726726532,0.5877200961112976,0.5534436106681824,-0.1623020768165588,0.829546332359314,0.5961466431617737,-0.0855085626244545,0.7210166454315186,0.5656092762947083,-0.1366232484579086,0.6461933851242065,0.5828797221183777,-0.1520775407552719,0.5963716506958008,0.6012138724327087,-0.1557261049747467,0.8174383640289307,0.6567944288253784,-0.1108494251966476,0.7276052236557007,0.621366560459137,-0.1491985768079757,0.6691159009933472,0.6163605451583862,-0.1587894707918167,0.6292415857315063,0.6140228509902954,-0.1599116027355194
2023-08-01 16:27:50.354071,17,127,0.994135320186615,0.0035383575595915,0.0765163525938987,-0.0763399899005889,-0.40576171875,0.8837890625,0.2099609375,0.7405152916908264,0.8113402724266052,-8.654140515318431e-07,0.6821619272232056,0.6905395984649658,-0.0178972724825143,0.6559773683547974,0.6017888188362122,-0.0433034487068653,0.6258509159088135,0.5402544140815735,-0.0706711262464523,0.6048797369003296,0.4962473511695862,-0.0986850410699844,0.7985977530479431,0.4988006353378296,-0.0378457494080066,0.7152966260910034,0.4640656411647796,-0.0872306749224662,0.65645831823349,0.4666295051574707,-0.1227460354566574,0.6059301495552063,0.4791620969772339,-0.1426654756069183,0.8276246190071106,0.5399428009986877,-0.0524480193853378,0.7164385318756104,0.5106491446495056,-0.1057561114430427,0.6419377326965332,0.5388761758804321,-0.1373006701469421,0.5905632972717285,0.5644674301147461,-0.1534827798604965,0.8359778523445129,0.5993099212646484,-0.0700815543532371,0.7228320240974426,0.5736111998558044,-0.1231170669198036,0.6483850479125977,0.5899637341499329,-0.14329594373703,0.597355306148529,0.6064215898513794,-0.147962674498558,0.8241382837295532,0.6643208861351013,-0.0878524854779243,0.7323561310768127,0.6285150647163391,-0.1279866099357605,0.676760733127594,0.6216916441917419,-0.1407436728477478,0.6368729472160339,0.6170281767845154,-0.1428010314702987
2023-08-01 16:27:50.422193,18,128,0.9941257834434508,0.0042753708548843,0.0758069306612014,-0.0771300569176673,-0.38818359375,0.8916015625,0.23046875,0.7527583837509155,0.8163406848907471,-9.001490184346039e-07,0.6912111639976501,0.6968911290168762,-0.0274451561272144,0.6658591032028198,0.6074785590171814,-0.0579823814332485,0.6406331658363342,0.5472543835639954,-0.088146261870861,0.6215013265609741,0.5022605061531067,-0.1191757395863533,0.8133071064949036,0.5044052004814148,-0.0604529231786727,0.7182390093803406,0.4795631766319275,-0.1151749640703201,0.655734658241272,0.4866076111793518,-0.151075467467308,0.6060203313827515,0.4962600171566009,-0.1712691783905029,0.8395738005638123,0.5506684184074402,-0.0729697868227958,0.7234176397323608,0.5205720067024231,-0.1315679997205734,0.6456104516983032,0.547788143157959,-0.1615257859230041,0.5936546325683594,0.5684506297111511,-0.1768727600574493,0.8436306118965149,0.6125996112823486,-0.0886347442865371,0.7283079028129578,0.5855330228805542,-0.1452448219060897,0.6536746025085449,0.5999923348426819,-0.1632075756788253,0.6048833727836609,0.6129997372627258,-0.1669996529817581,0.8276637196540833,0.6794716119766235,-0.1052571311593055,0.7303270101547241,0.6455811262130737,-0.148458257317543,0.6731804609298706,0.6345698237419128,-0.1617286950349807,0.6345290541648865,0.6239263415336609,-0.1644306480884552
2023-08-01 16:27:50.485212,19,129,0.9940282106399536,0.0038499955553561,0.0767238065600395,-0.0775028765201568,-0.404296875,0.86962890625,0.23486328125,0.7540852427482605,0.8184553980827332,-8.701856017978571e-07,0.6898912787437439,0.6961390972137451,-0.0247870124876499,0.6612330675125122,0.6064817905426025,-0.0541383549571037,0.6323307156562805,0.5463241338729858,-0.0836563035845756,0.6140896081924438,0.5090520977973938,-0.113898642361164,0.8122789263725281,0.5035289525985718,-0.0533076710999012,0.719843864440918,0.4806510806083679,-0.1046317443251609,0.658912181854248,0.4869260787963867,-0.1399531960487365,0.6095295548439026,0.4971618056297302,-0.1602885872125625,0.8387683033943176,0.5486892461776733,-0.0664815455675125,0.7267751693725586,0.522448718547821,-0.1214137077331543,0.6500361561775208,0.5487126111984253,-0.1521645635366439,0.598690390586853,0.5702806115150452,-0.1686136275529861,0.8444153070449829,0.6093831658363342,-0.0824904516339302,0.7325892448425293,0.5878257751464844,-0.1359758824110031,0.6564239859580994,0.6007487177848816,-0.1555094718933105,0.604912281036377,0.6141587495803833,-0.1609608680009842,0.8298958539962769,0.6749674081802368,-0.0994279980659484,0.7349616289138794,0.6449859738349915,-0.1402438879013061,0.6768802404403687,0.6357380151748657,-0.1535422950983047,0.6356973052024841,0.6280208230018616,-0.1566480696201324
2023-08-01 16:27:50.550870,20,130,0.9939796924591064,0.0037157211918383,0.0775375962257385,-0.0773208364844322,-0.39892578125,0.87890625,0.1953125,0.7497735023498535,0.8190322518348694,-8.590695301791129e-07,0.6902689337730408,0.6966411471366882,-0.0286991111934185,0.6608380079269409,0.6047742962837219,-0.0598530434072017,0.6319539546966553,0.543670117855072,-0.0899849459528923,0.623647928237915,0.5121697187423706,-0.1202769950032234,0.8107327222824097,0.5012764930725098,-0.0576208308339118,0.7196415066719055,0.4813591837882995,-0.1071070283651351,0.6590331792831421,0.4893063902854919,-0.1397221237421035,0.6094433665275574,0.500243604183197,-0.158457800745964,0.8393973112106323,0.5486007332801819,-0.0678023621439933,0.7259302139282227,0.5241668224334717,-0.1217587366700172,0.6498712301254272,0.5509123802185059,-0.1506994664669037,0.5978349447250366,0.5730206966400146,-0.1660809218883514,0.8464930057525635,0.6114253997802734,-0.0807436034083366,0.7331686615943909,0.5895604491233826,-0.1340890228748321,0.6572869420051575,0.6037375926971436,-0.1520454734563827,0.6049450039863586,0.6181309223175049,-0.1562667191028595,0.8331345319747925,0.6788150072097778,-0.0947182327508926,0.740007221698761,0.6473134160041809,-0.1355880349874496,0.6832484006881714,0.6382414102554321,-0.1479096859693527,0.6414390206336975,0.6301009058952332,-0.1501180827617645
2023-08-01 16:27:50.609281,21,131,0.9940245747566224,0.004102483857423,0.0775137394666671,-0.0767449885606765,-0.35546875,0.8818359375,0.1787109375,0.7571868896484375,0.822827935218811,-8.99582573765656e-07,0.6926277875900269,0.7008978128433228,-0.0196744427084922,0.6629504561424255,0.613172709941864,-0.0496379509568214,0.6314747333526611,0.5532342791557312,-0.0809946805238723,0.6043365001678467,0.5111051201820374,-0.1135131269693374,0.8129869103431702,0.5053579211235046,-0.0544998832046985,0.7185852527618408,0.4851012527942657,-0.1067365109920501,0.6572274565696716,0.4931738376617431,-0.1413672119379043,0.6084407567977905,0.5021318793296814,-0.1608178913593292,0.8379725217819214,0.5510404706001282,-0.0709787607192993,0.7271081209182739,0.5267964005470276,-0.1268371194601059,0.6494572758674622,0.5530340075492859,-0.1559069901704788,0.5978672504425049,0.5741355419158936,-0.1707871854305267,0.8436756730079651,0.6115733981132507,-0.0896851941943168,0.7322680950164795,0.5919049978256226,-0.1437608897686004,0.6551814675331116,0.6057164072990417,-0.1616334766149521,0.6042367219924927,0.620019793510437,-0.1655527800321579,0.8308857083320618,0.6775898337364197,-0.1087926253676414,0.7371420860290527,0.646902322769165,-0.1486044526100158,0.677847146987915,0.6398174166679382,-0.1596102118492126,0.6364386081695557,0.6351022124290466,-0.1610017716884613
2023-08-01 16:27:50.669806,22,132,0.994094967842102,0.0039899526163935,0.0770140066742897,-0.076342336833477,-0.39892578125,0.8974609375,0.24560546875,0.7508524060249329,0.8222546577453613,-8.946346383709169e-07,0.6912766695022583,0.7004612684249878,-0.0250206422060728,0.6635096669197083,0.6092305183410645,-0.0554485917091369,0.6332589983940125,0.5513127446174622,-0.086375892162323,0.6113325357437134,0.5131245255470276,-0.1181230992078781,0.8125859498977661,0.5093684792518616,-0.0526885949075222,0.7204126715660095,0.4859993457794189,-0.1054715067148208,0.6582900881767273,0.492599606513977,-0.1419340968132019,0.6081045269966125,0.5013335943222046,-0.1630527228116989,0.839775800704956,0.5535452365875244,-0.0660253912210464,0.7259493470191956,0.5277612209320068,-0.1235783994197845,0.6487438678741455,0.5551802515983582,-0.1568434983491897,0.5968407392501831,0.5749818086624146,-0.1748477220535278,0.8470025658607483,0.6122652292251587,-0.0822539553046226,0.7343254089355469,0.5914222598075867,-0.1387456059455871,0.6568449139595032,0.6066569685935974,-0.1604017466306686,0.6044378280639648,0.6198168396949768,-0.1665330231189727,0.8357399702072144,0.675885796546936,-0.099200963973999,0.7422436475753784,0.6449775099754333,-0.1417046636343002,0.6846684813499451,0.6376361846923828,-0.1560828983783722,0.6437622308731079,0.6297492980957031,-0.1597358137369156
2023-08-01 16:27:50.736939,23,133,0.9940112233161926,0.0033674514852464,0.0791126042604446,-0.0753102749586105,-0.443359375,0.880859375,0.23046875,0.7525273561477661,0.8232678174972534,-8.982481745078985e-07,0.691922664642334,0.7007020711898804,-0.0229014530777931,0.664993166923523,0.6104733347892761,-0.0519669167697429,0.6358570456504822,0.550612211227417,-0.0819474309682846,0.616007387638092,0.508895218372345,-0.112835556268692,0.8134763240814209,0.5077905654907227,-0.0498967394232749,0.7195853590965271,0.4869422316551208,-0.1013740301132202,0.6586237549781799,0.4937146604061126,-0.1367354094982147,0.6092873811721802,0.5028811693191528,-0.156877338886261,0.8396735787391663,0.5525987148284912,-0.0640748515725135,0.7268684506416321,0.527667760848999,-0.1199342086911201,0.6489686965942383,0.5535314679145813,-0.1514599323272705,0.5953627228736877,0.5731766223907471,-0.1680301278829574,0.8457162380218506,0.6130648851394653,-0.0810117349028587,0.7331265211105347,0.5915762782096863,-0.135593757033348,0.6558179259300232,0.6067504286766052,-0.1551555544137954,0.6033825278282166,0.6199548840522766,-0.1599854081869125,0.8326058387756348,0.6782972812652588,-0.0986094996333122,0.737722635269165,0.6468332409858704,-0.1396711468696594,0.6797062158584595,0.6388317346572876,-0.1524390131235122,0.6390002369880676,0.6307562589645386,-0.1548117399215698
2023-08-01 16:27:50.796192,24,134,0.9941556453704834,0.0028086917009204,0.0805319249629974,-0.071842074394226,-0.33740234375,0.86376953125,0.18310546875,0.7536596059799194,0.8229236602783203,-8.657533498990233e-07,0.6926504373550415,0.7001339793205261,-0.02762689627707,0.6629048585891724,0.6095711588859558,-0.0584425553679466,0.6302576065063477,0.548835039138794,-0.0888604819774627,0.6119248867034912,0.5155147910118103,-0.1199947670102119,0.81401526927948,0.506690263748169,-0.0547053888440132,0.7215102314949036,0.4870117008686065,-0.1056465655565261,0.6597304940223694,0.4937520921230316,-0.1412700414657592,0.610239565372467,0.5022858381271362,-0.1622522473335266,0.8411347270011902,0.552939772605896,-0.065990924835205,0.728842556476593,0.5289645791053772,-0.1214655637741088,0.6521897912025452,0.5528057217597961,-0.1545177102088928,0.5990922451019287,0.5711403489112854,-0.1729233562946319,0.846971333026886,0.6142415404319763,-0.0799917131662368,0.7343757152557373,0.5942902565002441,-0.1346956193447113,0.6580764651298523,0.6047815084457397,-0.1571860760450363,0.6045363545417786,0.6164315342903137,-0.164530724287033,0.8324487209320068,0.6792937517166138,-0.0948722213506698,0.7372072339057922,0.650091826915741,-0.1364185363054275,0.6793056726455688,0.6402181386947632,-0.1514287739992141,0.6366218328475952,0.6314668655395508,-0.1558754295110702
2023-08-01 16:27:50.854276,25,135,0.9945298433303832,0.0019394112750887,0.0805666893720626,-0.0664492473006248,-0.3271484375,0.8955078125,0.2412109375,0.7510706186294556,0.8194930553436279,-8.951895438258362e-07,0.6910660266876221,0.695986270904541,-0.0225670784711837,0.6648991107940674,0.6073105931282043,-0.0525983273983001,0.6396365165710449,0.5468832850456238,-0.0835595652461052,0.6287370324134827,0.5038562417030334,-0.1151144653558731,0.8160658478736877,0.5116965770721436,-0.0542480796575546,0.7253702878952026,0.4786339402198791,-0.1065979450941085,0.6625328063964844,0.4881147742271423,-0.1416605412960052,0.6152535080909729,0.5008572936058044,-0.1621468663215637,0.8425653576850891,0.5560846328735352,-0.0691514462232589,0.7291402816772461,0.5194042921066284,-0.1255574226379394,0.6539657711982727,0.5431704521179199,-0.1572560220956802,0.6043035984039307,0.5607343912124634,-0.1748870462179184,0.8481846451759338,0.6159562468528748,-0.0866076126694679,0.7344600558280945,0.5834876894950867,-0.1410671323537826,0.6607126593589783,0.5924761295318604,-0.1608051359653473,0.610977828502655,0.6019894480705261,-0.1668317317962646,0.833930253982544,0.6804345846176147,-0.104557104408741,0.7415836453437805,0.6424740552902222,-0.145737275481224,0.6869462132453918,0.6310337781906128,-0.1591497808694839,0.6487330198287964,0.6213621497154236,-0.1627452671527862
2023-08-01 16:27:50.922163,26,136,0.9949626922607422,-0.0016229189932346,0.0811569839715957,-0.0588231049478054,-0.50390625,0.931640625,0.29052734375,0.7403824329376221,0.8135427236557007,-8.225840701925335e-07,0.6903795003890991,0.6990616321563721,-0.0143841803073883,0.6661134362220764,0.6129459738731384,-0.0368126705288887,0.637708842754364,0.5512723922729492,-0.0611395500600338,0.612763524055481,0.5092165470123291,-0.0860837250947952,0.8151023387908936,0.5130743384361267,-0.0319589711725711,0.7319285869598389,0.4747160971164703,-0.0724977254867553,0.6765284538269043,0.4714632630348205,-0.1026962250471115,0.6340411901473999,0.4765008985996246,-0.1208767816424369,0.8415862321853638,0.5554934144020081,-0.0460120663046836,0.737221360206604,0.5135570168495178,-0.0881222859025001,0.6681469678878784,0.5277245044708252,-0.1134433969855308,0.6202172040939331,0.543002724647522,-0.1278031915426254,0.8457514047622681,0.6138907670974731,-0.0624524839222431,0.7386995553970337,0.5744696855545044,-0.1048865020275116,0.6686353087425232,0.5804774165153503,-0.1192002370953559,0.6206132173538208,0.5896950364112854,-0.1227356940507888,0.8288745880126953,0.6773051023483276,-0.0793210119009018,0.7430527806282043,0.6323925852775574,-0.1115803718566894,0.6904394626617432,0.6198638081550598,-0.1203802302479744,0.6520629525184631,0.6118700504302979,-0.1212788000702858
2023-08-01 16:27:50.984881,27,137,0.9960117936134338,-0.0049276337958872,0.072595939040184,-0.0516332685947418,-0.25537109375,0.87548828125,0.1767578125,0.7423102855682373,0.8098893165588379,-8.677931191414245e-07,0.6865150928497314,0.6942209005355835,-0.0182747598737478,0.6634505391120911,0.6022775769233704,-0.0435689464211463,0.6393313407897949,0.5371116995811462,-0.0708288177847862,0.6117825508117676,0.4864594936370849,-0.0993805080652237,0.8083654642105103,0.5070796608924866,-0.0410152152180671,0.7275776863098145,0.4639315605163574,-0.0917102247476577,0.6700620055198669,0.4617112278938293,-0.1275732368230819,0.6205363273620605,0.4680948257446289,-0.1473562568426132,0.8364230990409851,0.5490378141403198,-0.0566035918891429,0.7364204525947571,0.5029354691505432,-0.1097744107246398,0.6592376232147217,0.5184124112129211,-0.1403990387916565,0.6056918501853943,0.5342347025871277,-0.1556612104177475,0.8432250022888184,0.6063218116760254,-0.0753855779767036,0.7422685027122498,0.5664075613021851,-0.1282083839178085,0.665309727191925,0.5705614686012268,-0.1482623666524887,0.6125621199607849,0.5804511308670044,-0.1529470682144165,0.829001247882843,0.6681225299835205,-0.0945018604397773,0.7428539991378784,0.62350994348526,-0.1351038664579391,0.6856409907341003,0.6120613813400269,-0.148361936211586,0.6441513895988464,0.6066843867301941,-0.1507404297590255
2023-08-01 16:27:51.045674,28,138,0.9960336685180664,-0.0069957748055458,0.0743294209241867,-0.0484051927924156,-0.451171875,0.91796875,0.2724609375,0.740859866142273,0.8051542639732361,-7.885682293817808e-07,0.6841207146644592,0.6944155693054199,-0.0138716548681259,0.6562065482139587,0.6061959266662598,-0.0390360541641712,0.6296382546424866,0.5445587635040283,-0.0673805773258209,0.6077343225479126,0.4852387905120849,-0.0964206606149673,0.7994849681854248,0.5057154893875122,-0.0371255129575729,0.7263837456703186,0.4526046812534332,-0.0867202430963516,0.6734800338745117,0.4462368488311767,-0.1217779219150543,0.6252955794334412,0.4534675180912018,-0.1413051933050155,0.8256481289863586,0.5431981086730957,-0.055148284882307,0.7319408059120178,0.4876438975334167,-0.1060518473386764,0.6565175652503967,0.4962263107299804,-0.1342307031154632,0.6043840646743774,0.5079476237297058,-0.148609846830368,0.8323895335197449,0.597701370716095,-0.0764011070132255,0.7385972142219543,0.5469915866851807,-0.1284121870994568,0.6610865592956543,0.5504980087280273,-0.1451172828674316,0.6098055839538574,0.5599751472473145,-0.1479726582765579,0.8188400268554688,0.658196210861206,-0.0976832956075668,0.7389552593231201,0.6051392555236816,-0.1401191651821136,0.6800204515457153,0.592725932598114,-0.1520902663469314,0.6387438178062439,0.589009165763855,-0.15305857360363
2023-08-01 16:27:51.119914,29,139,0.9973416924476624,-0.0098954942077398,0.0611379481852054,-0.0383887439966201,-0.306640625,0.89892578125,0.27294921875,0.7399823665618896,0.8031617403030396,-7.680291105316428e-07,0.6837981939315796,0.6933799386024475,-0.0101247690618038,0.6524908542633057,0.6060089468955994,-0.035107884556055,0.6221237182617188,0.5432398319244385,-0.064675323665142,0.6062360405921936,0.4794625043869018,-0.0943312346935272,0.7982447743415833,0.5044887661933899,-0.0295558422803878,0.725922703742981,0.4480990767478943,-0.0768769010901451,0.6729934811592102,0.4423602223396301,-0.1103747114539146,0.6292905807495117,0.4543021917343139,-0.1293395459651947,0.8222770690917969,0.5399549007415771,-0.0494858957827091,0.7327085733413696,0.4814865887165069,-0.0956514850258827,0.6616482138633728,0.4924160838127136,-0.1204474419355392,0.6158396005630493,0.5072928071022034,-0.1337000578641891,0.8276034593582153,0.5908958315849304,-0.0729470998048782,0.7376288175582886,0.5365575551986694,-0.1202412024140358,0.6628463864326477,0.5410698056221008,-0.1336480528116226,0.6140955686569214,0.5519547462463379,-0.1361053884029388,0.8130730986595154,0.6479465961456299,-0.0965728908777237,0.7359105944633484,0.5968466401100159,-0.1358770579099655,0.6772094368934631,0.5861769318580627,-0.1461269557476043,0.6350716948509216,0.584747314453125,-0.1468402594327926
2023-08-01 16:27:51.185249,30,140,0.998123049736023,-0.0122857363894581,0.0499070324003696,-0.0332980267703533,-0.3076171875,0.90576171875,0.2451171875,0.7384876608848572,0.8036671876907349,-7.549464839939901e-07,0.6813884377479553,0.691023051738739,-0.0115861753001809,0.6484556794166565,0.5996105670928955,-0.0383576489984989,0.6173921823501587,0.5345488786697388,-0.0697237774729728,0.6039478182792664,0.4686314165592193,-0.1009422838687896,0.7925944924354553,0.5033137202262878,-0.0326154306530952,0.7218001484870911,0.4415930509567261,-0.0823006704449653,0.6672153472900391,0.4337104856967926,-0.1159001514315605,0.6215755343437195,0.4443646073341369,-0.13423752784729,0.8167815804481506,0.53916996717453,-0.0528605207800865,0.7279844284057617,0.4732436537742615,-0.1038941890001297,0.654059648513794,0.4850304126739502,-0.1292305588722229,0.6066163778305054,0.5028302669525146,-0.1412481665611267,0.8228026032447815,0.5882812142372131,-0.0768631249666214,0.7340925335884094,0.5283477902412415,-0.1277128010988235,0.6570469737052917,0.533001720905304,-0.1409229636192321,0.6074936389923096,0.547019898891449,-0.1418734937906265,0.8097237944602966,0.642542839050293,-0.1010671183466911,0.7332620024681091,0.5886263251304626,-0.1427403390407562,0.6739519834518433,0.5792739987373352,-0.1536445617675781,0.632308304309845,0.5802175402641296,-0.1539891958236694
2023-08-01 16:27:51.246835,31,141,0.9987769722938538,-0.013539457693696,0.0380100794136524,-0.0285732820630073,-0.33349609375,0.9267578125,0.1962890625,0.730105459690094,0.8031777143478394,-8.012620469344256e-07,0.6755980253219604,0.6978906393051147,-0.0119217475876212,0.6432773470878601,0.6002712845802307,-0.0323334150016307,0.6075004935264587,0.5333173871040344,-0.0563828237354755,0.5944373607635498,0.4722989201545715,-0.0792403444647789,0.7852222323417664,0.5028336644172668,-0.0187777318060398,0.7144708633422852,0.4347231984138489,-0.0604581534862518,0.6548819541931152,0.4303371906280517,-0.0911265090107917,0.6097515821456909,0.4425669014453888,-0.1083050519227981,0.8091500997543335,0.5335595011711121,-0.0335898548364639,0.7189017534255981,0.4574519395828247,-0.0753737986087799,0.645195722579956,0.4650365710258484,-0.1007976457476615,0.5983813405036926,0.4803200364112854,-0.1143288537859916,0.8146161437034607,0.5766834616661072,-0.0520069785416126,0.7243877053260803,0.5096421837806702,-0.0946284085512161,0.6512561440467834,0.5161531567573547,-0.1094502210617065,0.6044282913208008,0.5314946174621582,-0.112542949616909,0.8004609942436218,0.6250227093696594,-0.0707704350352287,0.722646176815033,0.5669071674346924,-0.1047919318079948,0.6682623624801636,0.5597456693649292,-0.1151887327432632,0.6301790475845337,0.5625911355018616,-0.1162272617220878
2023-08-01 16:27:51.309292,32,142,0.9992825388908386,-0.0171426329761743,0.0253998599946498,-0.0222580637782812,-0.2333984375,0.87939453125,0.384765625,0.7292429804801941,0.8026280403137207,-8.450206223642454e-07,0.6736139059066772,0.6974951028823853,-0.0057625430636107,0.6409932374954224,0.596795380115509,-0.0211225263774395,0.6048321723937988,0.528495192527771,-0.0421674996614456,0.5839176177978516,0.4700225591659546,-0.0623812451958656,0.7774268984794617,0.4976158738136291,-0.0016925502568483,0.7061154842376709,0.4308971166610718,-0.0417295098304748,0.6451098918914795,0.4296724498271942,-0.0736849531531333,0.6000981330871582,0.4451226592063904,-0.0915144830942154,0.8019886612892151,0.5237002372741699,-0.018750051036477,0.7118837237358093,0.4466233849525451,-0.0575611926615238,0.6382565498352051,0.4547572731971741,-0.0832942873239517,0.5911967158317566,0.4747619032859802,-0.0966377258300781,0.8091810941696167,0.5630385279655457,-0.0401086248457431,0.7184829115867615,0.4967105984687805,-0.079800084233284,0.6449358463287354,0.5049402713775635,-0.0953103750944137,0.5982749462127686,0.5229006409645081,-0.0986441299319267,0.7972047328948975,0.60850989818573,-0.0617527589201927,0.7179000377655029,0.5518215894699097,-0.092390701174736,0.6637242436408997,0.5474399328231812,-0.1022581830620765,0.6256996989250183,0.5529340505599976,-0.1031823381781578
2023-08-01 16:27:51.366160,33,143,0.9996169209480286,-0.0203404556959867,0.0055002919398248,-0.0179464370012283,-0.18408203125,0.921875,0.21240234375,0.7304883003234863,0.8049644231796265,-8.608049597569334e-07,0.6725562810897827,0.6984841823577881,-0.0011948783649131,0.6399618983268738,0.5993603467941284,-0.0141908982768654,0.6039113998413086,0.5330228805541992,-0.0341165736317634,0.5765062570571899,0.4750909209251404,-0.0539286769926548,0.7670652866363525,0.4972822368144989,0.0079297963529825,0.6915866136550903,0.4419848918914795,-0.0318889282643795,0.6322783827781677,0.4434588551521301,-0.0662778988480568,0.5866498351097107,0.4588536024093628,-0.0860513895750045,0.7926077246665955,0.5168418884277344,-0.0119926035404205,0.7012714743614197,0.442230612039566,-0.0498912408947944,0.6303977966308594,0.4532164931297302,-0.0780249163508415,0.5833836793899536,0.4773805737495422,-0.093223288655281,0.8024620413780212,0.5523129105567932,-0.0363200642168521,0.7135095596313477,0.4879482984542846,-0.075363889336586,0.6405121684074402,0.4984570145606994,-0.0931485518813133,0.5931635499000549,0.5189344882965088,-0.0982839167118072,0.7939371466636658,0.5965391397476196,-0.0607192404568195,0.7171249389648438,0.5420857667922974,-0.0910123363137245,0.6625288724899292,0.5412763357162476,-0.1015636175870895,0.6231456398963928,0.5494363307952881,-0.1033645495772361
2023-08-01 16:27:51.432110,34,144,0.9994794726371764,-0.0238850153982639,-0.0132014984264969,-0.0172061435878276,-0.18408203125,0.9287109375,0.251953125,0.7285693883895874,0.8054269552230835,-8.526487818016903e-07,0.6717738509178162,0.6961060166358948,0.0023950585164129,0.6400988101959229,0.5988969206809998,-0.0108242928981781,0.6026134490966797,0.5342298746109009,-0.0325829274952411,0.5762248635292053,0.4762433171272278,-0.0540626794099807,0.7697752118110657,0.4986713826656341,0.0114307552576065,0.6909540295600891,0.4415821433067322,-0.0314047262072563,0.6297726631164551,0.4436854124069214,-0.0674699917435646,0.5823066234588623,0.460618257522583,-0.0878610387444496,0.7942700386047363,0.5175824761390686,-0.0122300200164318,0.7015582919120789,0.4418216347694397,-0.0530543327331543,0.6302914619445801,0.4527319073677063,-0.0826879367232322,0.5830160975456238,0.4776048064231872,-0.0985113307833671,0.8030315637588501,0.5520907044410706,-0.0404877439141273,0.7125317454338074,0.4853687286376953,-0.0811346396803855,0.638611912727356,0.4978281259536743,-0.0981239229440689,0.5915228724479675,0.5207103490829468,-0.1021383106708526,0.7935544848442078,0.5963775515556335,-0.068885751068592,0.7170395255088806,0.5411843657493591,-0.1003424301743507,0.6611729860305786,0.5383803844451904,-0.1111611947417259,0.6215579509735107,0.5463651418685913,-0.1127392575144767
2023-08-01 16:27:51.492359,35,145,0.9992680549621582,-0.0260407458990812,-0.0224091373383998,-0.0168244391679763,-0.31201171875,0.91259765625,0.3564453125,0.7359583973884583,0.8135600686073303,-9.330560146736388e-07,0.6693918108940125,0.7113459706306458,0.0241565853357315,0.6421567797660828,0.6078219413757324,0.027478914707899,0.6149727702140808,0.5393571257591248,0.0176144484430551,0.5845507979393005,0.4875043332576751,0.0054316278547048,0.7456241846084595,0.5121800899505615,0.0479577742516994,0.6798459887504578,0.4523478746414184,0.0211590602993965,0.6205464601516724,0.4458694458007812,-0.0094693480059504,0.5708379745483398,0.455213725566864,-0.0285149291157722,0.7693943977355957,0.521738588809967,0.0172393321990966,0.6909953355789185,0.4409767091274261,-0.0074880751781165,0.621414840221405,0.4454671740531921,-0.036191452294588,0.5698889493942261,0.4657979309558868,-0.0537072122097015,0.7813059687614441,0.5465861558914185,-0.0167181901633739,0.7049624919891357,0.472141295671463,-0.0423910915851593,0.6364989280700684,0.4807977974414825,-0.0608374029397964,0.5897343754768372,0.501310408115387,-0.0693787187337875,0.7746673822402954,0.581272304058075,-0.0495389774441719,0.6989319920539856,0.5194295048713684,-0.0691966488957405,0.6478754281997681,0.5155710577964783,-0.0774633586406707,0.6115171909332275,0.522707462310791,-0.0804648771882057
2023-08-01 16:27:51.551250,36,146,0.9988282322883606,-0.0273037068545818,-0.0365929268300533,-0.0160518866032362,-0.259765625,0.90380859375,0.27783203125,0.735414981842041,0.8175009489059448,-8.879226243152516e-07,0.669381320476532,0.7130904197692871,0.0234182812273502,0.642281711101532,0.607684850692749,0.0264859069138765,0.6141830682754517,0.5387429594993591,0.016114380210638,0.5834864377975464,0.4870102107524872,0.0039234738796949,0.7424460649490356,0.5117577314376831,0.050149817019701,0.6759195327758789,0.4555993378162384,0.0210134405642747,0.6158262491226196,0.4482893049716949,-0.0115231471136212,0.5642244219779968,0.457999438047409,-0.0313906967639923,0.7671354413032532,0.5187922120094299,0.019236771389842,0.6884272694587708,0.4391175806522369,-0.0077118626795709,0.6197283267974854,0.4441530108451843,-0.0380052626132965,0.567009449005127,0.4670733213424682,-0.0561048351228237,0.7812625765800476,0.5417881011962891,-0.0153671046718955,0.7028348445892334,0.4682013094425201,-0.0424973405897617,0.6344237327575684,0.4749782681465149,-0.0617187283933162,0.5853226184844971,0.4954038262367248,-0.0703214928507804,0.776863694190979,0.5774438977241516,-0.0490161329507827,0.702087938785553,0.5184743404388428,-0.0690216645598411,0.6503287553787231,0.5133984088897705,-0.0774339959025383,0.6104822754859924,0.5208284854888916,-0.0803548470139503
2023-08-01 16:27:51.623184,37,147,0.9984647035598756,-0.0253346804529428,-0.0460408143699169,-0.0175106842070817,-0.2119140625,0.9111328125,0.21240234375,0.7406896948814392,0.8221455812454224,-8.527706540917279e-07,0.6703141331672668,0.7146703004837036,0.0269893556833267,0.6431097388267517,0.6114148497581482,0.0323303677141666,0.6135238409042358,0.5422042012214661,0.0232452843338251,0.581688642501831,0.4889664053916931,0.012100419960916,0.7411444187164307,0.5204507112503052,0.060523685067892,0.6744170784950256,0.4624631404876709,0.0367738306522369,0.6167033314704895,0.450826346874237,0.0065081208012998,0.567326545715332,0.456144630908966,-0.0127270724624395,0.7652981877326965,0.524899423122406,0.0288015715777874,0.6861547231674194,0.4447134733200073,0.0066776406019926,0.6200153231620789,0.4479284286499023,-0.0236838329583406,0.5671929121017456,0.4682684540748596,-0.0429537184536457,0.778414785861969,0.543529212474823,-0.006531162187457,0.7031634449958801,0.4651172757148742,-0.0295799002051353,0.6359566450119019,0.4670353531837463,-0.0493437238037586,0.5841501951217651,0.4850323796272278,-0.0595047809183597,0.7723996043205261,0.5737882852554321,-0.040777564048767,0.6989855170249939,0.5162273645401001,-0.0578669160604476,0.648327112197876,0.5094349384307861,-0.0662398934364318,0.6063579320907593,0.5161240100860596,-0.0700072273612022
2023-08-01 16:27:51.687887,38,148,0.9986124634742736,-0.0214789658784866,-0.0442939884960651,-0.0187037084251642,-0.24951171875,0.91357421875,0.3857421875,0.7525505423545837,0.835342288017273,-9.250530297322256e-07,0.677247941493988,0.7330602407455444,0.0509120263159275,0.6504248976707458,0.6274160146713257,0.0663779079914093,0.6243516206741333,0.5599954724311829,0.0608199797570705,0.5923439264297485,0.5022653341293335,0.0515804104506969,0.737043559551239,0.5343894958496094,0.0928886234760284,0.6767656207084656,0.4723719954490661,0.075008824467659,0.6212109923362732,0.4598605632781982,0.0459206625819206,0.5718076825141907,0.4640923738479614,0.0260951500385999,0.762057900428772,0.5349529385566711,0.0458763055503368,0.6871116757392883,0.4548746049404144,0.0270022470504045,0.6208261251449585,0.4556351900100708,-0.0058865817263722,0.5668178200721741,0.4734237790107727,-0.0276963412761688,0.7759552597999573,0.5487270951271057,-0.00412701908499,0.7044585943222046,0.4649567902088165,-0.0246785394847393,0.6348102688789368,0.4670193195343017,-0.0446823239326477,0.5818299055099487,0.4805347323417663,-0.0564691759645938,0.7732613682746887,0.5746330618858337,-0.0514996089041233,0.6988542079925537,0.5121254920959473,-0.0669659152626991,0.6443115472793579,0.5048404932022095,-0.0740990564227104,0.6018907427787781,0.5062867999076843,-0.0783672109246254
2023-08-01 16:27:51.760165,39,149,0.9984776973724364,-0.0194331556558609,-0.0483737252652645,-0.0180169325321912,-0.21435546875,0.93115234375,0.4189453125,0.7522891163825989,0.8434486389160156,-7.658745175831427e-07,0.6771705150604248,0.7434056997299194,0.0258564464747905,0.6513020992279053,0.6322018504142761,0.032745786011219,0.623538076877594,0.5599071383476257,0.025080282241106,0.5899291038513184,0.5042152404785156,0.0168199334293603,0.7423313856124878,0.5393305420875549,0.0659065693616867,0.6859815716743469,0.4753708243370056,0.0445307046175003,0.6300603747367859,0.4616033434867859,0.0164264794439077,0.580359697341919,0.46393683552742,-0.0019891390111297,0.7647684812545776,0.5387750864028931,0.0341496616601944,0.6914808750152588,0.4610982537269592,0.0143500287085771,0.6291823983192444,0.4575808048248291,-0.0127575136721134,0.5780273675918579,0.4681518375873565,-0.0301232617348432,0.7780987620353699,0.5547282099723816,-0.0021542815957218,0.7048306465148926,0.4724802374839782,-0.0237800348550081,0.6364965438842773,0.472566157579422,-0.0378908962011337,0.5828995704650879,0.4839412868022918,-0.0443068146705627,0.7746322751045227,0.5851970911026001,-0.0380751602351665,0.7033413648605347,0.5209574699401855,-0.0540743321180343,0.6505692005157471,0.5079145431518555,-0.0593063049018383,0.6074703931808472,0.5056229829788208,-0.0608209818601608
2023-08-01 16:27:51.817783,40,150,0.9985315203666688,-0.018244320526719,-0.048070803284645,-0.0170651171356439,-0.2578125,0.89990234375,0.37255859375,0.7545371055603027,0.8471552729606628,-7.489117592740513e-07,0.6791243553161621,0.7487162351608276,0.0214645247906446,0.6524487733840942,0.6386539340019226,0.0269068833440542,0.6251926422119141,0.5653693675994873,0.0188123416155576,0.5920446515083313,0.5104051828384399,0.0103667564690113,0.7422444224357605,0.5485680103302002,0.0615402944386005,0.6866613030433655,0.4824521839618683,0.0391648784279823,0.6305754780769348,0.466939628124237,0.0107186120003461,0.5813651084899902,0.4678143560886383,-0.0075860316865146,0.7651755809783936,0.5475737452507019,0.032609935849905,0.6933410167694092,0.4651937782764435,0.0119695048779249,0.6297003626823425,0.4611785411834717,-0.0154358064755797,0.5790581703186035,0.4714404344558716,-0.0329407081007957,0.7787208557128906,0.5622571706771851,-0.0010703733423724,0.7090035676956177,0.4733324944972992,-0.0238922629505395,0.63962721824646,0.4739158749580383,-0.0392454601824283,0.5868414044380188,0.4877832531929016,-0.046102799475193,0.7741499543190002,0.5911269187927246,-0.0344872698187828,0.7038888335227966,0.52382892370224,-0.051110353320837,0.6507929563522339,0.5112366676330566,-0.0570307746529579,0.6084085702896118,0.5109903812408447,-0.058911494910717
2023-08-01 16:27:51.880815,41,151,0.9988134503364564,-0.0151102654635906,-0.0428948029875755,-0.0174174513667821,-0.26318359375,0.9541015625,0.16748046875,0.7582830786705017,0.8526285886764526,-7.581587624372332e-07,0.681583046913147,0.755194365978241,0.0240910295397043,0.6555449962615967,0.6450307369232178,0.0303858630359172,0.6278578639030457,0.5720876455307007,0.0225907284766435,0.5927872657775879,0.5175766348838806,0.0140568520873785,0.7454977035522461,0.5533008575439453,0.0646508559584617,0.6886496543884277,0.4863675534725189,0.0433463156223297,0.631330668926239,0.4707793593406677,0.01518848631531,0.5813409686088562,0.4720158278942108,-0.0030165638308972,0.7677378058433533,0.5516349077224731,0.0344095639884471,0.694108247756958,0.4688125848770141,0.015405599027872,0.6287766098976135,0.4624396562576294,-0.0117383366450667,0.5763676762580872,0.4701031148433685,-0.0296846330165863,0.7800432443618774,0.565742552280426,-0.0004649898037314,0.7092159390449524,0.4762706160545349,-0.0221499670296907,0.6387714147567749,0.4752593636512756,-0.0376087352633476,0.5845825672149658,0.4876233339309692,-0.0451100580394268,0.7743638753890991,0.5933704972267151,-0.0348520241677761,0.7022663950920105,0.5250047445297241,-0.0505157746374607,0.6477804780006409,0.5128170251846313,-0.0560988113284111,0.6041238307952881,0.5127162933349609,-0.0581495352089405
2023-08-01 16:27:51.942632,42,152,0.9987040162086488,-0.0165279787033796,-0.0455352403223514,-0.0156080592423677,-0.2197265625,0.92041015625,0.3046875,0.7539287805557251,0.863554060459137,-7.741720082776737e-07,0.6821175813674927,0.7677600383758545,0.0203258898109197,0.6564040780067444,0.6536316275596619,0.0260503441095352,0.628925085067749,0.5800004601478577,0.0188585389405488,0.5949939489364624,0.526831328868866,0.0109691713005304,0.7499152421951294,0.5637062191963196,0.0572000443935394,0.6938698887825012,0.4940206706523895,0.0339459218084812,0.6353294253349304,0.4783338010311126,0.0054905535653233,0.5833954811096191,0.4812098443508148,-0.012218196876347,0.7708916664123535,0.5639303922653198,0.0296810641884803,0.6960936784744263,0.4796940982341766,0.0089341234415769,0.6299299001693726,0.4733626842498779,-0.0185965970158576,0.5762826800346375,0.4815678000450134,-0.0361316129565238,0.7822926044464111,0.5801305174827576,-0.0023801820352673,0.7069981694221497,0.4917317628860473,-0.0251265112310647,0.6368582844734192,0.4912067055702209,-0.0409335009753704,0.582040548324585,0.504037618637085,-0.0479824617505073,0.7771337032318115,0.6098893284797668,-0.0340929478406906,0.7047869563102722,0.5413639545440674,-0.0496935062110424,0.6525373458862305,0.5263810753822327,-0.055357489734888,0.610099732875824,0.5239883065223694,-0.0570834204554557
2023-08-01 16:27:52.009096,43,153,0.998538076877594,-0.0171401128172874,-0.0493869930505752,-0.0137468883767724,-0.19189453125,0.9169921875,0.34423828125,0.7569928765296936,0.8656188249588013,-7.572625122520549e-07,0.6813538670539856,0.7700008153915405,0.0181675404310226,0.6547414660453796,0.6586875915527344,0.0231791418045759,0.6273089647293091,0.5848885774612427,0.0152501547709107,0.5927261114120483,0.5313290953636169,0.0068979845382273,0.7434234619140625,0.5696547031402588,0.0604473538696765,0.6906045079231262,0.5018410682678223,0.0372157096862793,0.633244514465332,0.4850555658340454,0.0072612804360687,0.5811304450035095,0.486096441745758,-0.0119090536609292,0.7651769518852234,0.5673078298568726,0.0333658047020435,0.6948887705802917,0.4823935329914093,0.0125920940190553,0.629197895526886,0.4763504564762115,-0.0169481094926595,0.5758293867111206,0.4841585755348205,-0.0362566336989402,0.7781262397766113,0.5806917548179626,0.0012858220143243,0.7109134793281555,0.4901456832885742,-0.0213330332189798,0.6410266757011414,0.4880719482898712,-0.0392622128129005,0.586280107498169,0.5007598400115967,-0.0481786839663982,0.7745276689529419,0.6079168319702148,-0.0307750571519136,0.7078268527984619,0.5376462340354919,-0.046165257692337,0.6546206474304199,0.5222539305686951,-0.0529048629105091,0.6107872724533081,0.5205410718917847,-0.05595513433218
2023-08-01 16:27:52.080132,44,154,0.9985959529876708,-0.0176314190030097,-0.0481565296649932,-0.0132769932970404,-0.16064453125,0.91650390625,0.3701171875,0.7567707300186157,0.8671475648880005,-7.337891929637408e-07,0.6813217401504517,0.7688280940055847,0.023274727165699,0.6543806195259094,0.659251868724823,0.0288587491959333,0.6261686682701111,0.5876166224479675,0.0203413348644971,0.5923370122909546,0.5326263904571533,0.0113335102796554,0.7452473640441895,0.5682011842727661,0.0644163638353347,0.6900148391723633,0.4988825917243957,0.0417673178017139,0.6328178644180298,0.4836204051971435,0.0125253731384873,0.5818789601325989,0.4872437119483948,-0.0059807654470205,0.766900360584259,0.5661817789077759,0.0347104519605636,0.693637490272522,0.4820517897605896,0.0140265952795743,0.6282899975776672,0.4765103757381439,-0.0149082625284791,0.5758607983589172,0.4866145849227905,-0.033778540790081,0.7785906195640564,0.5797513723373413,0.0003206749097444,0.707874059677124,0.4898968935012817,-0.0215709879994392,0.6376270055770874,0.4906497597694397,-0.038320031017065,0.5835559368133545,0.5072731375694275,-0.0465201660990715,0.773811936378479,0.6064732670783997,-0.0336652137339115,0.7054063081741333,0.5385329127311707,-0.0481359176337718,0.6520888805389404,0.5250532031059265,-0.0541077628731727,0.6086344718933105,0.5245013236999512,-0.0566684417426586
2023-08-01 16:27:52.148235,45,155,0.998606503009796,-0.0182655081152915,-0.0475395359098911,-0.0138371419161558,-0.22119140625,0.90966796875,0.35400390625,0.7522227764129639,0.8699395656585693,-7.31454804281384e-07,0.6781521439552307,0.7725393772125244,0.017918923869729,0.6510496735572815,0.6613087058067322,0.0220782682299613,0.6227452754974365,0.5887936353683472,0.01350265648216,0.588574230670929,0.5349510908126831,0.0047713783569633,0.7412978410720825,0.5728083252906799,0.0581007413566112,0.6877061724662781,0.5028823614120483,0.0348646268248558,0.6303642392158508,0.4866240620613098,0.0056150071322917,0.5785582661628723,0.4885160326957702,-0.0130250146612524,0.7624568939208984,0.5702701210975647,0.0315672978758811,0.6897950768470764,0.4848656058311462,0.0103117199614644,0.6247004270553589,0.4793498814105987,-0.0187937337905168,0.5720570087432861,0.487797737121582,-0.0377669744193553,0.7750540375709534,0.5832409858703613,0.0002402788377366,0.7040747404098511,0.4926303029060364,-0.0223815608769655,0.6344591379165649,0.4938519299030304,-0.0398183949291706,0.5803593397140503,0.5102339386940002,-0.0482811890542507,0.7714359164237976,0.6098660230636597,-0.030994463711977,0.7020759582519531,0.5415081977844238,-0.0463765040040016,0.6488285064697266,0.5284885764122009,-0.0531374178826808,0.6055434942245483,0.5292151570320129,-0.0560281500220298
2023-08-01 16:27:52.219840,46,156,0.9986331462860109,-0.0170903764665126,-0.0473458729684352,-0.0140717336907982,-0.24560546875,0.9228515625,0.27099609375,0.7537840604782104,0.8703674674034119,-7.357419349318661e-07,0.6787673830986023,0.7744414806365967,0.0220298562198877,0.6519511938095093,0.6650157570838928,0.0283977761864662,0.6249778270721436,0.5918053984642029,0.0208011344075202,0.5908510088920593,0.5378663539886475,0.0126532949507236,0.7353255748748779,0.5750616192817688,0.064832717180252,0.6834443807601929,0.5045470595359802,0.0420492179691791,0.627577006816864,0.487529993057251,0.013048774562776,0.5771324634552002,0.4886833131313324,-0.0053468011319637,0.7576034665107727,0.5713487267494202,0.0357727669179439,0.6881744861602783,0.4856741428375244,0.0137048084288835,0.6235865354537964,0.4798058867454529,-0.0158588755875825,0.5714505314826965,0.4884150624275207,-0.0344940163195133,0.7718271613121033,0.5830825567245483,0.0018221496138721,0.7036083936691284,0.4934507012367248,-0.0220462102442979,0.6336894035339355,0.4956032037734985,-0.0400196053087711,0.5798467397689819,0.5118997693061829,-0.0482389666140079,0.7710489630699158,0.6087719202041626,-0.0317202694714069,0.7020829319953918,0.542105495929718,-0.0476199798285961,0.6487342119216919,0.5292174220085144,-0.0545368865132331,0.6058948636054993,0.5278376340866089,-0.0573959723114967
2023-08-01 16:27:52.309177,47,157,0.9985908269882202,-0.0172566082328557,-0.0480772443115711,-0.0143889160826802,-0.24560546875,0.951171875,0.26025390625,0.7522441744804382,0.8708205223083496,-7.233116434690601e-07,0.6777194738388062,0.7764079570770264,0.018567681312561,0.6510875821113586,0.6657768487930298,0.0229733306914567,0.6221495866775513,0.591935932636261,0.0148947481065988,0.5862807631492615,0.5373825430870056,0.0067968978546559,0.7433989644050598,0.5736732482910156,0.0593629144132137,0.6882716417312622,0.5034298896789551,0.0362947322428226,0.6303006410598755,0.4890886843204498,0.0077408482320606,0.5789337158203125,0.4920322299003601,-0.0098648006096482,0.7640773057937622,0.5709273219108582,0.0334548279643058,0.6904741525650024,0.4882301986217499,0.0130503783002495,0.6253037452697754,0.4834677875041961,-0.0138975828886032,0.57351154088974,0.4924452304840088,-0.0309580191969871,0.775205135345459,0.5839109420776367,0.0026332144625484,0.7019256353378296,0.4979633390903473,-0.0189715884625911,0.6321132183074951,0.4978069365024566,-0.0338518023490905,0.5783064365386963,0.5116007328033447,-0.0403142422437667,0.7705182433128357,0.6093391180038452,-0.0281202215701341,0.7006524205207825,0.5454095005989075,-0.041483324021101,0.6478460431098938,0.5314004421234131,-0.0462157391011714,0.6051847338676453,0.5288375616073608,-0.047520775347948
2023-08-01 16:27:52.383548,48,158,0.9986530542373656,-0.0172311142086982,-0.0467190816998481,-0.0145779820159077,-0.24169921875,0.92822265625,0.31787109375,0.754909873008728,0.8687611222267151,-7.335365239669045e-07,0.6785815954208374,0.7719563245773315,0.0213555004447698,0.6507940888404846,0.6645728349685669,0.0267330221831798,0.6231119632720947,0.5930231213569641,0.0186491478234529,0.5899269580841064,0.5389826893806458,0.0103335436433553,0.7416935563087463,0.5762729644775391,0.062229286879301,0.6860460042953491,0.5063263773918152,0.0396941117942333,0.6297980546951294,0.4892027378082275,0.0110628996044397,0.5790354013442993,0.4900495409965515,-0.0067890919744968,0.762966513633728,0.5728565454483032,0.0344638600945472,0.6893701553344727,0.4881437420845032,0.0137340649962425,0.624160647392273,0.4822115898132324,-0.0144815882667899,0.5723599791526794,0.4924660325050354,-0.0325579009950161,0.7749166488647461,0.583655595779419,0.0020588592160493,0.7025691270828247,0.4947690963745117,-0.0194498505443334,0.6334966421127319,0.4961589574813843,-0.0356564782559871,0.5815316438674927,0.5131535530090332,-0.0432233028113842,0.7708339691162109,0.6067792773246765,-0.0300772730261087,0.7008994817733765,0.5404880046844482,-0.043400153517723,0.647843599319458,0.5279359221458435,-0.0486036874353885,0.6058716773986816,0.5287595987319946,-0.0505157746374607
2023-08-01 16:27:52.453936,49,159,0.9988059997558594,-0.0171769298613071,-0.0430600941181182,-0.0154041172936558,-0.28515625,0.9189453125,0.36328125,0.7483125329017639,0.8616400361061096,-7.320334134419682e-07,0.6761042475700378,0.7667286396026611,0.0182850621640682,0.6510698199272156,0.6591933965682983,0.0238482616841793,0.6238605976104736,0.5875563025474548,0.0166632942855358,0.5895349979400635,0.5362759232521057,0.0089440075680613,0.7394629120826721,0.5708896517753601,0.0605530329048633,0.6861720681190491,0.5031605362892151,0.0370180048048496,0.6309205889701843,0.4901460707187652,0.0081755043938755,0.5821993947029114,0.4964608550071716,-0.0093794390559196,0.7615275382995605,0.5682059526443481,0.0348874703049659,0.6913949847221375,0.4874441027641296,0.01240049675107,0.6275601387023926,0.4840525984764099,-0.0165778901427984,0.5758187174797058,0.496364414691925,-0.0341273173689842,0.7757421135902405,0.5804563760757446,0.0042868335731327,0.705542266368866,0.4962769150733948,-0.0193198230117559,0.6381925940513611,0.4974381923675537,-0.0364473089575767,0.5856761932373047,0.5133647918701172,-0.0436077043414115,0.7757094502449036,0.6052328944206238,-0.0261501278728246,0.7050020098686218,0.5458500981330872,-0.0410374104976654,0.6545796990394592,0.5338518023490906,-0.0472310408949852,0.6144997477531433,0.5323124527931213,-0.0491831488907337
