Timestamp,Index,Frame ID,w,x,y,z,ax,ay,az,x_0,y_0,z_0,x_1,y_1,z_1,x_2,y_2,z_2,x_3,y_3,z_3,x_4,y_4,z_4,x_5,y_5,z_5,x_6,y_6,z_6,x_7,y_7,z_7,x_8,y_8,z_8,x_9,y_9,z_9,x_10,y_10,z_10,x_11,y_11,z_11,x_12,y_12,z_12,x_13,y_13,z_13,x_14,y_14,z_14,x_15,y_15,z_15,x_16,y_16,z_16,x_17,y_17,z_17,x_18,y_18,z_18,x_19,y_19,z_19,x_20,y_20,z_20
2023-08-01 16:27:52.524913,0,160,0.9989922642707824,-0.0180113986134529,-0.038112536072731,-0.0154080474749207,-0.0888671875,0.8984375,0.37744140625,0.753692090511322,0.8580676913261414,-7.464107625310135e-07,0.6785814166069031,0.7594835758209229,0.0208213161677122,0.6525480151176453,0.6518856287002563,0.0271985381841659,0.6225808262825012,0.5809988975524902,0.0201166030019521,0.5870082974433899,0.529682457447052,0.0125170117244124,0.7437760829925537,0.5662661194801331,0.0645680874586105,0.6869431734085083,0.501746416091919,0.0430172979831695,0.6305909752845764,0.4892534017562866,0.0144859217107295,0.5806105136871338,0.4935882091522217,-0.0034406909253448,0.7653807401657104,0.56434166431427,0.0374019257724285,0.6916187405586243,0.484127402305603,0.0171900168061256,0.6271026134490967,0.4824456572532654,-0.0123306885361671,0.5751479864120483,0.4949252009391784,-0.0309195686131715,0.7788164615631104,0.5770642757415771,0.0055961492471396,0.7045018076896667,0.4932475686073303,-0.0154573312029242,0.6358030438423157,0.494240254163742,-0.0327764302492141,0.583084762096405,0.5088216066360474,-0.040886428207159,0.7761613130569458,0.6026089787483215,-0.0259379390627145,0.7024553418159485,0.5392494797706604,-0.0388102121651172,0.6502088308334351,0.5254523754119873,-0.0443615838885307,0.6092952489852905,0.5235834121704102,-0.0463729314506053
2023-08-01 16:27:52.587859,1,161,0.9991248250007628,-0.0189442448318004,-0.0339620858430862,-0.0154044637456536,-0.26123046875,0.90966796875,0.2548828125,0.7496400475502014,0.8489933013916016,-7.109471766852948e-07,0.6767778992652893,0.7538082003593445,0.0159369278699159,0.6520827412605286,0.6476114392280579,0.020005652680993,0.6233493685722351,0.5766748785972595,0.0122030926868319,0.5871964693069458,0.5261996984481812,0.004052894655615,0.7444722652435303,0.5606669187545776,0.0559211261570453,0.6887344121932983,0.4950559139251709,0.0324187912046909,0.6327837109565735,0.4814582169055938,0.0033758105710148,0.5831642150878906,0.4857007265090942,-0.0146866245195269,0.7662987112998962,0.5590857267379761,0.0316282175481319,0.6948339939117432,0.4802397489547729,0.0102892275899648,0.6311261057853699,0.475260317325592,-0.0181956179440021,0.5794497132301331,0.4844986796379089,-0.0363535583019256,0.7792026996612549,0.5734712481498718,0.0025224685668945,0.7073147296905518,0.4905157089233398,-0.0201270785182714,0.6393951177597046,0.4877215027809143,-0.0369336195290088,0.586430549621582,0.4987612962722778,-0.0447760969400405,0.7754096984863281,0.6006708741188049,-0.0265573915094137,0.7040982246398926,0.5386070013046265,-0.0411798916757106,0.6532606482505798,0.5239138603210449,-0.0473165363073349,0.6131380200386047,0.5201987624168396,-0.0496779568493366
2023-08-01 16:27:52.645064,2,162,0.9991501569747924,-0.0203683357685804,-0.0323332734405994,-0.0154493395239114,-0.03857421875,0.89111328125,0.3203125,0.7502195835113525,0.839285135269165,-7.628794946867856e-07,0.6763510704040527,0.738519549369812,0.0258484873920679,0.6497568488121033,0.6337848901748657,0.0342531204223632,0.620954692363739,0.5647590160369873,0.0282026454806327,0.5889540910720825,0.5125152468681335,0.0206684470176696,0.7362197637557983,0.5425129532814026,0.0691184848546981,0.6762253046035767,0.4836378097534179,0.048993345350027,0.6199544072151184,0.4723694324493408,0.0203546807169914,0.5698511600494385,0.475871205329895,0.001736260135658,0.7598791122436523,0.5418474078178406,0.0386876873672008,0.6853203773498535,0.4661458730697632,0.0193658154457807,0.6197766065597534,0.4653273522853851,-0.0117361862212419,0.5664160251617432,0.4783355891704559,-0.032074112445116,0.7750452160835266,0.5548903942108154,0.0039996244013309,0.702686071395874,0.4750831723213196,-0.0172070898115634,0.6348569989204407,0.4766400456428528,-0.0375660583376884,0.582284152507782,0.492947518825531,-0.0483991876244545,0.7736458778381348,0.5816240310668945,-0.029917748644948,0.7010385990142822,0.521323025226593,-0.0446272827684879,0.6504661440849304,0.5110901594161987,-0.052418302744627,0.6098052263259888,0.5132503509521484,-0.0562915317714214
2023-08-01 16:27:52.709650,3,163,0.9992047548294068,-0.0220572538673877,-0.0281745474785566,-0.0175922270864248,-0.326171875,0.91552734375,0.310546875,0.7521631717681885,0.8338141441345215,-7.888411914791504e-07,0.6743156313896179,0.7281841039657593,0.0306598097085952,0.6472664475440979,0.6257045269012451,0.0384849421679973,0.6168093085289001,0.5583579540252686,0.0309820491820573,0.5874777436256409,0.5035579800605774,0.0221031252294778,0.7466592192649841,0.5335211157798767,0.0686831697821617,0.6821635365486145,0.4759188890457153,0.0489381477236747,0.6247079372406006,0.4678809642791748,0.0209841486066579,0.5744079351425171,0.4729244112968445,0.0024936937261372,0.7676289081573486,0.5349566340446472,0.0350362621247768,0.6862246990203857,0.4583323001861572,0.0162533726543188,0.6210289597511292,0.4597063362598419,-0.0136349685490131,0.5684560537338257,0.4753077626228332,-0.0334582030773162,0.7780916690826416,0.5507670044898987,-0.0020894180051982,0.6993505954742432,0.4692309498786926,-0.0231064837425947,0.6313195824623108,0.4732028841972351,-0.0409485734999179,0.5788506269454956,0.4911745190620422,-0.0502247549593448,0.7716584801673889,0.5804157257080078,-0.0379492491483688,0.6963083148002625,0.5201969146728516,-0.053631454706192,0.6428422331809998,0.5107667446136475,-0.0601879358291626,0.5994375944137573,0.5141355991363525,-0.0627732053399086
2023-08-01 16:27:52.774452,4,164,0.9992079734802246,-0.0228334423154592,-0.0240862853825092,-0.0219520013779401,-0.18408203125,0.91552734375,0.27978515625,0.7499164342880249,0.8318957090377808,-7.836414965822769e-07,0.6732399463653564,0.7226539254188538,0.0306668672710657,0.6476483941078186,0.6204697489738464,0.0377332270145416,0.6184375882148743,0.5523163080215454,0.0290330089628696,0.589275598526001,0.4960208833217621,0.0194206982851028,0.7447456121444702,0.5304783582687378,0.071052461862564,0.6820926666259766,0.4719810485839844,0.0502575002610683,0.6256021857261658,0.4619540274143219,0.0212304256856441,0.5751510262489319,0.4650260806083679,0.0022028745152056,0.7662959694862366,0.531589150428772,0.0373194031417369,0.6863419413566589,0.4570956826210022,0.0185178536921739,0.6230348944664001,0.4594637751579284,-0.0111679695546627,0.5722188353538513,0.4739340543746948,-0.0309188235551118,0.7777714729309082,0.5451058149337769,-0.0002392485330346,0.6989874243736267,0.4662816822528839,-0.0199508965015411,0.6309576034545898,0.4713923633098602,-0.0365256443619728,0.5790126323699951,0.4895210862159729,-0.0452118553221225,0.7719983458518982,0.5716462731361389,-0.0369250811636447,0.6980274319648743,0.5141071677207947,-0.0502455905079841,0.6459192633628845,0.5062503814697266,-0.0555146858096122,0.6038586497306824,0.5110207796096802,-0.0575482212007045
2023-08-01 16:27:52.836879,5,165,0.999133825302124,-0.0249654594808816,-0.0179906766861677,-0.0280112233012914,-0.19189453125,0.9140625,0.35595703125,0.7423039078712463,0.8252294063568115,-7.901340381977207e-07,0.6682798862457275,0.711376428604126,0.0376256369054317,0.6444932818412781,0.6089057922363281,0.0485787540674209,0.61573725938797,0.5420371890068054,0.0420009307563304,0.5883401036262512,0.4816616773605346,0.0338093042373657,0.7415419816970825,0.5232367515563965,0.0798589065670967,0.6835379600524902,0.4660634994506836,0.060933768749237,0.6286885142326355,0.4538652002811432,0.0333535932004451,0.5786964893341064,0.4541213512420654,0.0149986175820231,0.7652857303619385,0.5258048176765442,0.0420197248458862,0.6927844285964966,0.4493425786495209,0.0236605647951364,0.6307685971260071,0.4496704936027527,-0.0058825551532208,0.5799022316932678,0.4648815095424652,-0.0252885650843381,0.7794548869132996,0.5397546291351318,0.0004449239058885,0.7029148936271667,0.4619852006435394,-0.020710501819849,0.6352820992469788,0.4693913757801056,-0.0386849977076053,0.5840897560119629,0.4887450635433197,-0.0480139255523681,0.7768572568893433,0.5661783814430237,-0.0394976250827312,0.6986250877380371,0.5092227458953857,-0.0551835931837558,0.6445993185043335,0.5067645907402039,-0.0616668835282325,0.6028202176094055,0.5159000754356384,-0.0643326491117477
2023-08-01 16:27:52.902774,6,166,0.9990321397781372,-0.0256822556257247,-0.0105969822034239,-0.0341018959879875,-0.27490234375,0.88818359375,0.40185546875,0.7345908880233765,0.8225468397140503,-7.767753800180799e-07,0.6681086421012878,0.705987811088562,0.0306940525770187,0.6449082493782043,0.6014267802238464,0.0376527719199657,0.6153762340545654,0.5329094529151917,0.0284010507166385,0.586953341960907,0.470585823059082,0.0179495252668857,0.7478295564651489,0.5173147320747375,0.0701108947396278,0.6869044303894043,0.4614349007606506,0.0477664433419704,0.6328134536743164,0.4458226263523102,0.0184533614665269,0.5836268663406372,0.4423951506614685,-0.0009914393303915,0.7720865607261658,0.5213723182678223,0.0350638702511787,0.6953864097595215,0.4490541815757751,0.0132012842223048,0.633355975151062,0.4441381692886352,-0.0164434500038623,0.581943154335022,0.4532645344734192,-0.0359679944813251,0.7860979437828064,0.5377443432807922,-0.0042625996284186,0.7046276330947876,0.4651840925216675,-0.0290132369846105,0.6366682648658752,0.4710546731948852,-0.0467426218092441,0.5847325325012207,0.4888538420200348,-0.0554029010236263,0.783557653427124,0.5663274526596069,-0.0425928682088851,0.7062872648239136,0.510726809501648,-0.0615077130496501,0.652876615524292,0.5096498131752014,-0.0690144002437591,0.6098952293395996,0.5201963186264038,-0.0719986855983734
2023-08-01 16:27:52.960218,7,167,0.9987680912017822,-0.0256837513297796,-0.0026062279939651,-0.0423774644732475,-0.23486328125,0.86328125,0.21435546875,0.7346136569976807,0.8205536603927612,-8.238101827373612e-07,0.6684384346008301,0.7057207226753235,0.0360649675130844,0.646003007888794,0.6013809442520142,0.0447855591773986,0.6184604167938232,0.5327789187431335,0.0361608825623989,0.5927860140800476,0.4705308377742767,0.0255806595087051,0.7487621307373047,0.5192978978157043,0.0732454806566238,0.688880980014801,0.4565052986145019,0.0516561083495616,0.6346324682235718,0.440601110458374,0.0233549736440181,0.5867944955825806,0.4395845532417297,0.0050173657946288,0.7729517221450806,0.525044322013855,0.0354293994605541,0.6974590420722961,0.4465065598487854,0.0148139419034123,0.6329618692398071,0.4440875649452209,-0.0144398072734475,0.5812758207321167,0.4580589532852173,-0.0333498418331146,0.7862687706947327,0.5410223603248596,-0.0061407419852912,0.7085039615631104,0.4650874435901642,-0.0295193642377853,0.6399018168449402,0.4711999893188476,-0.0472847409546375,0.5885729789733887,0.4908799231052398,-0.0560008995234966,0.7830165028572083,0.5669440031051636,-0.0462003983557224,0.7069042921066284,0.5112648010253906,-0.0642121955752372,0.6546199321746826,0.5113089084625244,-0.0715594515204429,0.6130632758140564,0.5234498977661133,-0.0743448957800865
2023-08-01 16:27:53.022705,8,168,0.998582661151886,-0.0243690311908721,0.0076040010899305,-0.0467010214924812,-0.26904296875,0.890625,0.35400390625,0.7309580445289612,0.8178879022598267,-8.077904567471705e-07,0.667766809463501,0.7043471336364746,0.033079158514738,0.6449559926986694,0.6003274321556091,0.0392981842160224,0.6171793937683105,0.5316734313964844,0.0287340935319662,0.5917587280273438,0.4675540328025818,0.0163012370467185,0.7488746643066406,0.5156084895133972,0.0681609287858009,0.6913849115371704,0.4521857500076294,0.043664127588272,0.637066662311554,0.4363994598388672,0.013691977597773,0.5892835855484009,0.4368003010749817,-0.0054878154769539,0.7736383080482483,0.522937536239624,0.0306794960051774,0.7006518840789795,0.4440419673919678,0.0074671194888651,0.6376102566719055,0.4387703537940979,-0.0226713232696056,0.5872046947479248,0.4502252638339996,-0.0420912690460681,0.7877247333526611,0.5412821173667908,-0.0108884777873754,0.7107118368148804,0.4671992063522339,-0.0372447036206722,0.6426798701286316,0.472217708826065,-0.0559791177511215,0.5919475555419922,0.4904071688652038,-0.0650307983160018,0.7861587405204773,0.5699409246444702,-0.05104985460639,0.7105264067649841,0.5134926438331604,-0.0723952502012252,0.6581531167030334,0.5142650604248047,-0.0811583250761032,0.6164370775222778,0.526823103427887,-0.084471620619297
2023-08-01 16:27:53.086872,9,169,0.998135268688202,-0.0236494168639183,0.0223469045013189,-0.0516453050076961,-0.44775390625,0.88232421875,0.36669921875,0.7331505417823792,0.8166154026985168,-8.014261538846768e-07,0.6688894033432007,0.6992585062980652,0.0400546640157699,0.6461107134819031,0.5976929068565369,0.0473598800599575,0.6183573007583618,0.5303899049758911,0.0357520952820777,0.5915818810462952,0.4647539258003235,0.0215006154030561,0.7506911158561707,0.5135701894760132,0.0743193551898002,0.69491046667099,0.4504283368587494,0.0491671226918697,0.641185462474823,0.4333231449127197,0.0179191920906305,0.5931029915809631,0.4326814711093902,-0.0026010018773376,0.7759829163551331,0.5218504667282104,0.0309030674397945,0.7059404253959656,0.441961258649826,0.0058585274964571,0.6422204971313477,0.4316447973251343,-0.0270447228103876,0.5905890464782715,0.4395824074745178,-0.0489763095974922,0.7900985479354858,0.5414483547210693,-0.0163246653974056,0.7138291597366333,0.4688327312469482,-0.0443196184933185,0.6453391313552856,0.4746117889881134,-0.0647845566272735,0.5950883030891418,0.4923878014087677,-0.0757316574454307,0.7885130047798157,0.5710228681564331,-0.0616585910320282,0.7141145467758179,0.5147724151611328,-0.0843379721045494,0.6609905958175659,0.5180380344390869,-0.0937671884894371,0.6197176575660706,0.5319714546203613,-0.0983028262853622
2023-08-01 16:27:53.145969,10,170,0.9976806640625,-0.0211797654628753,0.0305416565388441,-0.0570252165198326,-0.27099609375,0.8828125,0.25634765625,0.7276589870452881,0.8133553266525269,-7.192110729192791e-07,0.6740361452102661,0.6900951266288757,0.0075006922706961,0.6455308198928833,0.5900149345397949,-0.0022163486573845,0.6115802526473999,0.5220304131507874,-0.0219514016062021,0.5938898921012878,0.4576860666275024,-0.0406756587326526,0.774296224117279,0.5028008818626404,0.0264287125319242,0.7141431570053101,0.4356942772865295,-0.0095842676237225,0.6581892967224121,0.4210312962532043,-0.0446245819330215,0.6109859347343445,0.4197067022323608,-0.0663586035370826,0.7991224527359009,0.5211994647979736,0.0015248424606397,0.7181759476661682,0.4450724124908447,-0.0321432538330554,0.654273509979248,0.4396626949310303,-0.0624635852873325,0.6092793345451355,0.4452038109302521,-0.0818326696753501,0.8108084797859192,0.5518817901611328,-0.0280305370688438,0.72475665807724,0.4851205050945282,-0.0632230937480926,0.6534560918807983,0.4964150786399841,-0.0791942551732063,0.6050963997840881,0.5173559784889221,-0.0849011093378067,0.8034746646881104,0.5932827591896057,-0.0577263869345188,0.7290900349617004,0.535569965839386,-0.0852707102894783,0.6736170053482056,0.5381415486335754,-0.0937766879796981,0.6326204538345337,0.5505040287971497,-0.095502495765686
2023-08-01 16:27:53.219107,11,171,0.9965876340866088,-0.0179769974201917,0.0462265238165855,-0.0659778863191604,-0.35498046875,0.86572265625,0.25634765625,0.7230063676834106,0.8183554410934448,-8.268711439995968e-07,0.6725830435752869,0.6928374767303467,0.0049745207652449,0.6462735533714294,0.5922505259513855,-0.0051577622070908,0.6136518716812134,0.5216394066810608,-0.023884855210781,0.6003950238227844,0.4604002237319946,-0.042108628898859,0.7857725024223328,0.5073001384735107,0.0192629918456077,0.7196610569953918,0.4439027905464172,-0.0140421306714415,0.6642189025878906,0.4308434128761291,-0.0449854843318462,0.6189634203910828,0.4335183501243591,-0.0634751543402671,0.8103105425834656,0.5297319293022156,-0.0025171746965497,0.7227624654769897,0.4550717175006866,-0.0341133214533329,0.6555232405662537,0.4598416984081268,-0.0610013455152511,0.6089556217193604,0.4774707555770874,-0.0767085552215576,0.8192803263664246,0.5639966726303101,-0.0280725471675395,0.7272830009460449,0.4991979897022247,-0.0612015463411808,0.6557279229164124,0.5130046606063843,-0.0752277001738548,0.6076774597167969,0.5370534062385559,-0.0789121985435485,0.8070293664932251,0.6068770289421082,-0.0537246353924274,0.7287254333496094,0.551024317741394,-0.0793800354003906,0.6743633151054382,0.5547255873680115,-0.0862349942326545,0.6337921023368835,0.5699127912521362,-0.0858194306492805
2023-08-01 16:27:53.288039,12,172,0.9952415227890016,-0.0158279612660408,0.0607872605323791,-0.0744897723197937,-0.3994140625,0.869140625,0.296875,0.734279215335846,0.8252607583999634,-8.194620022550225e-07,0.6830730438232422,0.7045093774795532,-0.0055273519828915,0.6536611914634705,0.6109312772750854,-0.0268010273575782,0.6202861666679382,0.5431963205337524,-0.0542180277407169,0.5992364883422852,0.4910042881965637,-0.0813027396798133,0.8007278442382812,0.5103269815444946,-0.0086540449410676,0.7266354560852051,0.4513936638832092,-0.0511645935475826,0.6695027351379395,0.4436675310134887,-0.0854627788066864,0.623252272605896,0.4515851140022278,-0.1053220927715301,0.8269923329353333,0.5432133674621582,-0.028506577014923,0.7336991429328918,0.4803969264030456,-0.070688746869564,0.6639757752418518,0.4915874004364013,-0.0981487855315208,0.6172637939453125,0.5089176297187805,-0.1128133609890937,0.834403395652771,0.590208888053894,-0.0518454685807228,0.7390006184577942,0.5341852903366089,-0.0932193472981453,0.6660609841346741,0.5470568537712097,-0.1059633046388626,0.6175423264503479,0.5680394768714905,-0.1077880710363388,0.819702684879303,0.6429428458213806,-0.0757033824920654,0.7377479076385498,0.5938210487365723,-0.1071880310773849,0.6811087131500244,0.5926362872123718,-0.1138243079185485,0.6408987045288086,0.6016939878463745,-0.1122349202632904
2023-08-01 16:27:53.345648,13,173,0.994611918926239,-0.0134555799886584,0.0653172805905342,-0.0793703347444534,-0.390625,0.8828125,0.26611328125,0.7319290041923523,0.8235153555870056,-8.612273063590692e-07,0.6803632974624634,0.7028688192367554,-0.0118215885013341,0.6529515981674194,0.6062458157539368,-0.0340221337974071,0.6244983673095703,0.5378898978233337,-0.0593764223158359,0.6018773913383484,0.4901949465274811,-0.084403857588768,0.7979632019996643,0.5012102723121643,-0.0224024038761854,0.7160416841506958,0.456828236579895,-0.0653810128569603,0.6574994921684265,0.4531278014183044,-0.0971075147390365,0.6068205237388611,0.462906002998352,-0.1145409569144249,0.8278815746307373,0.5369306206703186,-0.0379850156605243,0.7289559841156006,0.4895542860031128,-0.0783091410994529,0.6576041579246521,0.5052134394645691,-0.10098697245121,0.6078336238861084,0.526392936706543,-0.1129373088479042,0.8370276689529419,0.5895212888717651,-0.0570182465016841,0.7386366724967957,0.5456520318984985,-0.099177286028862,0.6656375527381897,0.5598341226577759,-0.11015485227108,0.6159006357192993,0.5816555619239807,-0.1110531687736511,0.8251298666000366,0.6505407691001892,-0.0767586976289749,0.7437447309494019,0.6093215346336365,-0.1116412058472633,0.6855798959732056,0.6105533242225647,-0.1186190247535705,0.6417099237442017,0.6199651956558228,-0.1169712468981742
2023-08-01 16:27:53.409260,14,174,0.9938111901283264,-0.0107682542875409,0.0720782130956649,-0.0838340446352958,-0.32568359375,0.86328125,0.17236328125,0.7377598881721497,0.825282096862793,-8.735452752262063e-07,0.6828020215034485,0.7034923434257507,-0.0100601827725768,0.6560141444206238,0.6111870408058167,-0.0340253859758377,0.6276302337646484,0.5461349487304688,-0.0624681524932384,0.5990486145019531,0.4948560297489166,-0.0912713035941124,0.7985048890113831,0.5080413818359375,-0.0283770225942134,0.7182201147079468,0.4613494277000427,-0.07863100618124,0.6605815887451172,0.4600420594215393,-0.1129677444696426,0.6099843382835388,0.4713448584079742,-0.1310901939868927,0.8292691707611084,0.5442419052124023,-0.0485637784004211,0.7296319603919983,0.4971610903739929,-0.099397599697113,0.6543629169464111,0.5161826610565186,-0.1248585507273674,0.6030677556991577,0.5391898155212402,-0.1359921991825103,0.8400850892066956,0.5986983180046082,-0.0724626928567886,0.7402795553207397,0.5570541620254517,-0.1242677122354507,0.6622556447982788,0.5701749324798584,-0.1373229324817657,0.6109715104103088,0.5885363817214966,-0.1366859376430511,0.8304377794265747,0.6606802344322205,-0.0966019332408905,0.74808269739151,0.6190388798713684,-0.1381225436925888,0.6866182088851929,0.6155214309692383,-0.147440493106842,0.6421843767166138,0.6191383004188538,-0.1457757949829101
2023-08-01 16:27:53.475368,15,175,0.9928895831108092,-0.0094378525391221,0.0785082727670669,-0.0889808684587478,-0.41162109375,0.861328125,0.2421875,0.7394285798072815,0.824303925037384,-8.083416673798638e-07,0.6832256317138672,0.7037336230278015,-0.0143372528254985,0.6545811295509338,0.6118173599243164,-0.0418177247047424,0.6269438862800598,0.5479016304016113,-0.0726476088166236,0.6055791974067688,0.5093947649002075,-0.104068674147129,0.8006075024604797,0.5120671391487122,-0.0389454066753387,0.7204024195671082,0.4673124849796295,-0.0940002799034118,0.6621489524841309,0.4630842804908752,-0.1314437538385391,0.6107044816017151,0.4712884128093719,-0.1516639143228531,0.8317450284957886,0.5506382584571838,-0.0588248446583747,0.7336006164550781,0.5037752985954285,-0.1150921732187271,0.6594557762145996,0.5227651596069336,-0.1423165947198867,0.6083475947380066,0.5456052422523499,-0.1539685428142547,0.8427146673202515,0.6073654294013977,-0.0825220346450805,0.7428935170173645,0.5655019879341125,-0.1385916769504547,0.6664089560508728,0.5766957402229309,-0.1525355577468872,0.6148025989532471,0.5938073396682739,-0.1517233103513717,0.8330922722816467,0.6715818643569946,-0.1066628023982048,0.7506652474403381,0.6300973892211914,-0.1504345536231994,0.6908574104309082,0.6237307190895081,-0.1604122817516327,0.6464153528213501,0.6251282691955566,-0.1590268909931183
2023-08-01 16:27:53.531610,16,176,0.9922639727592468,-0.0089807556942105,0.0831314176321029,-0.0917635187506675,-0.48193359375,0.87451171875,0.2822265625,0.7443592548370361,0.8289608359336853,-8.641478075332998e-07,0.6912602782249451,0.7076255083084106,-0.0185758955776691,0.6652289032936096,0.6177942752838135,-0.0461071282625198,0.6359268426895142,0.5527169704437256,-0.0754644945263862,0.6129187941551208,0.5033527612686157,-0.1052855551242828,0.8168714046478271,0.5221819281578064,-0.0458457730710506,0.7343083024024963,0.4809303879737854,-0.0980709344148635,0.6736741065979004,0.4865485727787018,-0.1335842013359069,0.6252222061157227,0.5011100172996521,-0.1536872088909149,0.8463528156280518,0.5658704042434692,-0.0614878945052623,0.7375262975692749,0.5204343199729919,-0.116324745118618,0.6626676321029663,0.5402591228485107,-0.1447826772928238,0.6117074489593506,0.5600860714912415,-0.1587388217449188,0.8533402681350708,0.6272376179695129,-0.0801240727305412,0.7425223588943481,0.5858344435691833,-0.1342364251613617,0.667111873626709,0.5933132767677307,-0.1499899327754974,0.6167435050010681,0.6050381660461426,-0.1519079208374023,0.8380143642425537,0.6918044686317444,-0.0990692302584648,0.7435903549194336,0.6500471830368042,-0.1429198682308197,0.683965265750885,0.6371230483055115,-0.1554731726646423,0.643680989742279,0.6304543614387512,-0.1564204543828964
2023-08-01 16:27:53.594301,17,177,0.992116928100586,-0.0076425406150519,0.0824906453490257,-0.09402497112751,-0.4033203125,0.8681640625,0.18603515625,0.753229558467865,0.8366122841835022,-8.321052291648812e-07,0.6927671432495117,0.71009761095047,-0.0194166228175163,0.6659789085388184,0.6214302182197571,-0.0518780089914798,0.6382853984832764,0.5570495128631592,-0.0862039700150489,0.6128768920898438,0.5113105177879333,-0.121749646961689,0.816758394241333,0.5249840021133423,-0.0601699501276016,0.7324910759925842,0.487894594669342,-0.1167239695787429,0.6719495058059692,0.4901564717292785,-0.1531440466642379,0.6187360286712646,0.4999142587184906,-0.1739409118890762,0.8427122235298157,0.569977879524231,-0.0799058005213737,0.7400692105293274,0.5289235711097717,-0.1396071463823318,0.6628326177597046,0.5477168560028076,-0.1684375554323196,0.6102495789527893,0.5656761527061462,-0.1832888424396515,0.8481441736221313,0.632857620716095,-0.1021807566285133,0.743144154548645,0.5936756134033203,-0.1593405157327652,0.6644521355628967,0.5994700789451599,-0.1749282777309417,0.6121616959571838,0.6103397011756897,-0.1781714856624603,0.8326765298843384,0.7010919451713562,-0.1250407993793487,0.7428721189498901,0.6589248776435852,-0.1715017408132553,0.6793825626373291,0.6466643810272217,-0.1838651150465011,0.6358696818351746,0.6406435370445251,-0.1860006898641586
2023-08-01 16:27:53.659971,18,178,0.9921635389328004,-0.0071305213496088,0.082312174141407,-0.0937302485108375,-0.43359375,0.87646484375,0.19287109375,0.7470492720603943,0.8324166536331177,-8.368184580831439e-07,0.6906169652938843,0.7096160650253296,-0.028090976178646,0.6641327142715454,0.6169399619102478,-0.0592842549085617,0.6346906423568726,0.5522559881210327,-0.0897835940122604,0.6196924448013306,0.517855167388916,-0.1201397478580474,0.8197560906410217,0.5210830569267273,-0.0564801916480064,0.7324663400650024,0.4898861646652221,-0.1081518307328224,0.6702337265014648,0.5002384781837463,-0.1420044004917144,0.6218668818473816,0.5144829154014587,-0.1615119576454162,0.8484137058258057,0.5697711110115051,-0.0674927607178688,0.7366436123847961,0.5350555777549744,-0.1237191259860992,0.6614701151847839,0.5586594343185425,-0.1530178934335708,0.6105465292930603,0.5769796967506409,-0.1681103110313415,0.8544003963470459,0.6339589953422546,-0.0814929977059364,0.7400985956192017,0.6010782718658447,-0.1368153542280197,0.6635674834251404,0.6104347109794617,-0.1544104218482971,0.6112996339797974,0.62099289894104,-0.1580236256122589,0.8385488986968994,0.7009360790252686,-0.0964143499732017,0.7425788044929504,0.6647586226463318,-0.1398447602987289,0.6828692555427551,0.6533706188201904,-0.153275266289711,0.6409175395965576,0.6440826058387756,-0.1557012498378753
2023-08-01 16:27:53.724622,19,179,0.9923225045204164,-0.0076757329516112,0.0817155241966247,-0.0925195440649986,-0.39013671875,0.876953125,0.2451171875,0.7535135746002197,0.8416802883148193,-8.36523156522162e-07,0.6960206627845764,0.716914713382721,-0.0274042654782533,0.6676540374755859,0.6253232359886169,-0.0623709447681903,0.6382421255111694,0.5596238374710083,-0.0972383841872215,0.6160953640937805,0.518768310546875,-0.1323083937168121,0.8240417838096619,0.5286357402801514,-0.0670960769057273,0.7335688471794128,0.4984526634216308,-0.1249766796827316,0.6729574203491211,0.5031890273094177,-0.1609527021646499,0.6223264932632446,0.5109684467315674,-0.1813643872737884,0.8494962453842163,0.5782289505004883,-0.0826569721102714,0.7414277195930481,0.5391384363174438,-0.1464481502771377,0.6630094051361084,0.5590305328369141,-0.1764315664768219,0.6094034910202026,0.5756925940513611,-0.1911413520574569,0.8537083864212036,0.6436892151832581,-0.1011401340365409,0.7461341619491577,0.6084410548210144,-0.1627754122018814,0.6679479479789734,0.6141546964645386,-0.1798885315656662,0.614966869354248,0.6233505010604858,-0.1824947297573089,0.8365310430526733,0.7116255164146423,-0.1205365285277366,0.7446654438972473,0.6735381484031677,-0.1697139143943786,0.6822325587272644,0.6581493616104126,-0.1839614361524582,0.6387984752655029,0.6466493010520935,-0.1863727420568466
2023-08-01 16:27:53.787145,20,180,0.9924858808517456,-0.0082652643322944,0.0811081603169441,-0.0912404060363769,-0.42578125,0.86572265625,0.23779296875,0.752815842628479,0.8417490124702454,-8.446282890872681e-07,0.6984854936599731,0.716694712638855,-0.0277130827307701,0.6709542870521545,0.6192323565483093,-0.0600909925997257,0.6422628164291382,0.5527119636535645,-0.0917807295918464,0.630523681640625,0.5241588354110718,-0.1233199462294578,0.8320800065994263,0.5316399335861206,-0.0616381391882896,0.7443611025810242,0.5010139346122742,-0.1146288961172103,0.6826063394546509,0.506701648235321,-0.1471912860870361,0.6333189010620117,0.5153589844703674,-0.1655188798904419,0.8581365346908569,0.5844190120697021,-0.0738121047616005,0.7469261884689331,0.5465085506439209,-0.1324389278888702,0.669335126876831,0.5652589201927185,-0.1601642370223999,0.6164220571517944,0.5811821222305298,-0.1736705899238586,0.8609476089477539,0.6508566737174988,-0.0887374579906463,0.749210774898529,0.6138915419578552,-0.1461992114782333,0.6720458269119263,0.619766354560852,-0.1618210226297378,0.6193650960922241,0.6289812922477722,-0.1635179668664932,0.8416936993598938,0.7176194190979004,-0.1044887080788612,0.7466868758201599,0.6771222352981567,-0.1498722732067108,0.6863669753074646,0.6623360514640808,-0.1626611053943634,0.6440860629081726,0.6509964466094971,-0.1640203148126602
2023-08-01 16:27:53.848230,21,181,0.992605209350586,-0.0081626176834106,0.0805874168872833,-0.0904100835323333,-0.42724609375,0.873046875,0.2216796875,0.7490209341049194,0.8418048620223999,-8.817995080789842e-07,0.6965312361717224,0.7203328013420105,-0.0305908918380737,0.6709645986557007,0.6273114681243896,-0.0627088770270347,0.6404690146446228,0.5600879788398743,-0.0931341871619224,0.6137027740478516,0.5146896839141846,-0.1230203956365585,0.8280781507492065,0.5284097194671631,-0.0613509342074394,0.7372605204582214,0.5001755952835083,-0.1133674830198288,0.6763760447502136,0.5047390460968018,-0.146575465798378,0.6251770257949829,0.510924220085144,-0.1651868373155594,0.8563038110733032,0.5789726376533508,-0.0714236199855804,0.7453410029411316,0.5428187251091003,-0.1279095858335495,0.6666201949119568,0.5642022490501404,-0.1557777225971222,0.6131476759910583,0.5816171765327454,-0.1696276813745498,0.8605153560638428,0.6444602012634277,-0.0845379829406738,0.7502558827400208,0.6118621826171875,-0.1402103751897812,0.6722840666770935,0.6190089583396912,-0.1569468975067138,0.619026243686676,0.6281449794769287,-0.1597333699464798,0.8428712487220764,0.7129291892051697,-0.0988367050886154,0.7493414282798767,0.6758143901824951,-0.1431687921285629,0.6890560984611511,0.661220371723175,-0.1563616096973419,0.6461912393569946,0.6489011645317078,-0.1582999676465988
2023-08-01 16:27:53.908138,22,182,0.992871880531311,-0.008071138523519,0.0790811628103256,-0.0888066738843917,-0.3720703125,0.86865234375,0.224609375,0.7485167980194092,0.8409308195114136,-9.259111948267672e-07,0.6975990533828735,0.7183907628059387,-0.024063903838396,0.6735257506370544,0.6275365948677063,-0.0526707246899604,0.6434775590896606,0.5611050128936768,-0.0811622813344001,0.6151249408721924,0.5101761817932129,-0.1096473485231399,0.8271814584732056,0.5276833772659302,-0.0490018613636493,0.7385134100914001,0.495664119720459,-0.0987869873642921,0.6770821809768677,0.4971747994422912,-0.1323029547929763,0.6256780028343201,0.5030772089958191,-0.1510271728038787,0.85639488697052,0.5753244161605835,-0.0612554401159286,0.7441607117652893,0.5396283268928528,-0.1134906411170959,0.6661664247512817,0.5603551268577576,-0.1412318050861358,0.6128164529800415,0.5780279040336609,-0.1552850008010864,0.8615500926971436,0.638803243637085,-0.0765550583600997,0.7480198740959167,0.6051811575889587,-0.1285935640335083,0.6713730096817017,0.6129653453826904,-0.1454007774591446,0.6195132732391357,0.6221359968185425,-0.1487050205469131,0.8449020385742188,0.7064813375473022,-0.092659093439579,0.7477865219116211,0.6673054099082947,-0.1342878341674804,0.688349187374115,0.6557274460792542,-0.1464214026927948,0.6469550132751465,0.6466950178146362,-0.1477653533220291
2023-08-01 16:27:53.980767,23,183,0.9932831525802612,-0.0090281190350651,0.0779772475361824,-0.0850093364715576,-0.3916015625,0.880859375,0.25439453125,0.7500023245811462,0.8380144834518433,-9.01714315659774e-07,0.6962771415710449,0.7146768569946289,-0.0227953139692544,0.6723308563232422,0.6250672936439514,-0.0531247407197952,0.6434800624847412,0.5618965029716492,-0.0845630913972854,0.6168719530105591,0.5097812414169312,-0.1166608184576034,0.8261705636978149,0.5282199382781982,-0.0526404231786727,0.7410047650337219,0.4917443692684173,-0.107494905591011,0.679646909236908,0.4967964291572571,-0.1442135572433471,0.6280382871627808,0.506355881690979,-0.1647039353847503,0.8543546795845032,0.5760749578475952,-0.0681124180555343,0.7474446296691895,0.5366060733795166,-0.1258811503648758,0.6684403419494629,0.557952880859375,-0.1566302627325058,0.6151385307312012,0.5754565596580505,-0.1722930967807769,0.859878420829773,0.6389451622962952,-0.0867857187986373,0.7516801357269287,0.6018176078796387,-0.1433699280023574,0.6728096604347229,0.6088546514511108,-0.1623248755931854,0.6194963455200195,0.6181607842445374,-0.1666423827409744,0.8446210622787476,0.705689013004303,-0.1060826778411865,0.7536380887031555,0.6639971137046814,-0.1505269110202789,0.6927836537361145,0.6516084671020508,-0.1639304906129837,0.6501070261001587,0.642072856426239,-0.1662105768918991
2023-08-01 16:27:54.051452,24,184,0.993714153766632,-0.010657399892807,0.0788723602890968,-0.0787249952554702,-0.662109375,0.95166015625,0.2119140625,0.7450287342071533,0.8338912725448608,-8.932256605476141e-07,0.6956647038459778,0.7120106816291809,-0.0247147753834724,0.6754850149154663,0.6216281652450562,-0.0535948872566223,0.6491967439651489,0.5565438270568848,-0.0821538046002388,0.6256142854690552,0.5058912634849548,-0.1110888049006462,0.8270570039749146,0.5262804627418518,-0.0519393570721149,0.7395398616790771,0.4928520321846008,-0.1026247441768646,0.6783236861228943,0.4938616752624511,-0.1367866247892379,0.6259673833847046,0.5011361241340637,-0.1559417843818664,0.8563599586486816,0.5740123391151428,-0.0638012364506721,0.7468907833099365,0.5343708992004395,-0.1174212619662284,0.6703869104385376,0.5523300170898438,-0.1465696692466735,0.6160966157913208,0.5700078010559082,-0.161444291472435,0.8620957136154175,0.6371872425079346,-0.0785087794065475,0.7512924671173096,0.5979024171829224,-0.1315678060054779,0.673622727394104,0.6030431985855103,-0.1492582708597183,0.6198003888130188,0.6122514009475708,-0.1530189514160156,0.8460665941238403,0.704700767993927,-0.093949481844902,0.7540373206138611,0.6620433926582336,-0.1368338465690612,0.6949009895324707,0.6494010090827942,-0.1498284637928009,0.6525020003318787,0.6407604217529297,-0.1517057865858078
2023-08-01 16:27:54.115101,25,185,0.994398295879364,-0.0124795539304614,0.0744097977876663,-0.0740233436226844,-0.27880859375,0.85400390625,0.21484375,0.7479882836341858,0.8372539281845093,-8.63267246131727e-07,0.6939789056777954,0.7129876613616943,-0.0203986689448356,0.6710835695266724,0.6254355907440186,-0.0512103140354156,0.6417022943496704,0.5616690516471863,-0.0836702808737754,0.6111751794815063,0.5093290209770203,-0.1171051561832428,0.8278101682662964,0.5297523736953735,-0.0516472496092319,0.7436622381210327,0.4880580604076385,-0.1051698997616767,0.6834564208984375,0.4898319840431213,-0.1409015953540802,0.6326351761817932,0.4981843829154968,-0.1610197573900222,0.8534873723983765,0.5753302574157715,-0.0684154257178306,0.7486248016357422,0.5315840244293213,-0.125007227063179,0.6708217263221741,0.548760175704956,-0.1538536995649337,0.6177284717559814,0.5653654336929321,-0.1683946996927261,0.8568958640098572,0.6374579071998596,-0.0882166847586631,0.7508271336555481,0.5968912839889526,-0.1435156017541885,0.6724136471748352,0.6024304628372192,-0.1603774130344391,0.620201587677002,0.6117139458656311,-0.163675308227539,0.8401274681091309,0.7046306133270264,-0.1086216792464256,0.7531089186668396,0.6597689986228943,-0.152678832411766,0.6917123794555664,0.6477661728858948,-0.1651601195335388,0.648604691028595,0.6405662894248962,-0.1669836491346359
2023-08-01 16:27:54.179991,26,186,0.9950625896453856,-0.0144354319199919,0.0711189433932304,-0.0677063018083572,-0.38720703125,0.88037109375,0.2548828125,0.7437891960144043,0.8312304615974426,-9.11686584004201e-07,0.6909832954406738,0.7127069234848022,-0.0207171645015478,0.6712930798530579,0.623179018497467,-0.0477149933576583,0.6501742601394653,0.5602447390556335,-0.0758237540721893,0.6317887306213379,0.506220817565918,-0.1047594547271728,0.8233925700187683,0.52667236328125,-0.0462943091988563,0.7395520806312561,0.4869422316551208,-0.0976805537939071,0.6788903474807739,0.4897984564304352,-0.1327447146177292,0.6285082101821899,0.5001552104949951,-0.1521410197019577,0.8525782227516174,0.5719409584999084,-0.0603925511240959,0.7473670244216919,0.5262754559516907,-0.1145377457141876,0.6692259311676025,0.5443124175071716,-0.1436281204223632,0.6156736612319946,0.5629051327705383,-0.1579737812280655,0.8585174679756165,0.6327720284461975,-0.0776818990707397,0.754414439201355,0.590417206287384,-0.1318344324827194,0.675733745098114,0.5954481363296509,-0.1501150280237198,0.6224825382232666,0.6057080030441284,-0.1535369008779525,0.8426995277404785,0.6977895498275757,-0.0953481346368789,0.7571792602539062,0.6524708271026611,-0.1384002119302749,0.6978613138198853,0.6403018832206726,-0.1515491008758545,0.65582275390625,0.6330282092094421,-0.1532317698001861
2023-08-01 16:27:54.236148,27,187,0.9955729246139526,-0.0159508790820837,0.0679677501320838,-0.0629326254129409,-0.38818359375,0.900390625,0.23828125,0.7459763884544373,0.8314144611358643,-7.940894306557311e-07,0.6879216432571411,0.715975821018219,-0.0189201831817626,0.6610968112945557,0.6310136914253235,-0.0487381778657436,0.6329881548881531,0.5744323134422302,-0.0810221135616302,0.6114131212234497,0.5251864194869995,-0.1144915372133255,0.8167427778244019,0.5241809487342834,-0.0445797219872474,0.736018717288971,0.4757704138755798,-0.0962400436401367,0.6780042052268982,0.4743326306343078,-0.132111519575119,0.6285772919654846,0.484216034412384,-0.1524104923009872,0.8418624997138977,0.5651554465293884,-0.0621242374181747,0.7414131760597229,0.5099893808364868,-0.1160774827003479,0.6643104553222656,0.5233567357063293,-0.1461265534162521,0.6132860779762268,0.5385830402374268,-0.1616447418928146,0.846343994140625,0.6235164999961853,-0.0829956158995628,0.7480957508087158,0.571743369102478,-0.1380259841680526,0.6702163219451904,0.57740318775177,-0.1563388705253601,0.6195767521858215,0.5892388820648193,-0.1599972993135452,0.8310685157775879,0.687488853931427,-0.1041853353381156,0.7515415549278259,0.6355294585227966,-0.1490786373615265,0.6931580305099487,0.6258422136306763,-0.1617390513420105,0.6518761515617371,0.6243834495544434,-0.163009837269783
2023-08-01 16:27:54.299264,28,188,0.9962572455406188,-0.0170004181563854,0.0616447366774082,-0.0581586062908172,-0.26904296875,0.873046875,0.24609375,0.7400451898574829,0.8275097012519836,-7.785678803884366e-07,0.6872345805168152,0.7175517678260803,-0.0119971763342618,0.6594825387001038,0.633737325668335,-0.0364709049463272,0.6288000345230103,0.5764449238777161,-0.0647662878036499,0.6038563847541809,0.5284708142280579,-0.0939636602997779,0.8074750304222107,0.5256502032279968,-0.0272940620779991,0.7350580096244812,0.4751492738723755,-0.075561374425888,0.6805307269096375,0.4657131135463714,-0.1116135194897651,0.632175624370575,0.4704391062259674,-0.1320239007472992,0.8356265425682068,0.5615630745887756,-0.0457164831459522,0.7441554069519043,0.5058816075325012,-0.0932301431894302,0.6714490056037903,0.5178999304771423,-0.1195211485028266,0.6212534308433533,0.5351864695549011,-0.1324027478694915,0.8429200649261475,0.6150593757629395,-0.0678516328334808,0.7491572499275208,0.5643607378005981,-0.1168020293116569,0.6741189360618591,0.5739453434944153,-0.1308344900608062,0.624127209186554,0.5893436074256897,-0.1317718178033828,0.829596996307373,0.6761053204536438,-0.0903379768133163,0.751212477684021,0.6278638243675232,-0.1295297592878341,0.6927371025085449,0.6214293241500854,-0.138408213853836,0.6499488353729248,0.6231929659843445,-0.137181356549263
2023-08-01 16:27:54.364833,29,189,0.9965996742248536,-0.0179475434124469,0.0603967644274234,-0.0530957840383052,-0.35498046875,0.89501953125,0.275390625,0.7355199456214905,0.8246556520462036,-7.353649493779812e-07,0.6833488941192627,0.715770959854126,-0.0079288119450211,0.6541411876678467,0.6254242658615112,-0.0291140675544738,0.6210315823554993,0.5645905137062073,-0.0551189705729484,0.5999711751937866,0.5157077312469482,-0.0818131417036056,0.7948200106620789,0.5228602290153503,-0.0153189031407237,0.7281389236450195,0.4673277735710144,-0.0614744275808334,0.6751514077186584,0.4509913921356201,-0.0980696603655815,0.6241052746772766,0.4480456709861755,-0.1188931316137313,0.8230382800102234,0.5566428303718567,-0.0352640263736248,0.7398355007171631,0.4890070855617523,-0.0817867666482925,0.6664193868637085,0.4915228188037872,-0.1098313853144645,0.6120912432670593,0.5030342936515808,-0.123306818306446,0.8306366205215454,0.60622638463974,-0.0590524934232234,0.744550883769989,0.545007586479187,-0.1070829853415489,0.6696442365646362,0.55164635181427,-0.1221571862697601,0.6192348599433899,0.5638026595115662,-0.123032733798027,0.8166409134864807,0.661858320236206,-0.0828708261251449,0.7381272912025452,0.6066361665725708,-0.1199729219079017,0.6800054907798767,0.5969510078430176,-0.1285606324672699,0.6389706134796143,0.5957107543945312,-0.127023234963417
2023-08-01 16:27:54.423025,30,190,0.9970314502716064,-0.0184235386550426,0.0562182962894439,-0.0492780618369579,-0.3115234375,0.88427734375,0.279296875,0.7335153818130493,0.8255741596221924,-7.526933814006043e-07,0.6831812262535095,0.7181462049484253,-0.0074055991135537,0.6542940735816956,0.6255221366882324,-0.0272862110286951,0.6207327246665955,0.5635417699813843,-0.0521226860582828,0.5995447039604187,0.5057260990142822,-0.0768708437681198,0.7940130233764648,0.5222835540771484,-0.0121141457930207,0.7268896698951721,0.4638108909130096,-0.0547823943197727,0.6749860644340515,0.4473457038402557,-0.0885290652513504,0.6278471350669861,0.4463056325912475,-0.107962429523468,0.8210370540618896,0.553481936454773,-0.0309986062347888,0.734301745891571,0.4873803853988647,-0.0735584497451782,0.6619091033935547,0.4909376502037048,-0.0999999418854713,0.6113568544387817,0.502836287021637,-0.1139242872595787,0.8285602331161499,0.5993198156356812,-0.0538124330341815,0.7411857843399048,0.5421428680419922,-0.0984812080860138,0.665890634059906,0.5513498783111572,-0.1127561181783676,0.6162142157554626,0.5671409368515015,-0.1147570312023162,0.8152577877044678,0.6516985297203064,-0.0768908932805061,0.7406876087188721,0.6015518307685852,-0.1135615333914756,0.6833857297897339,0.5987746715545654,-0.1231286451220512,0.6425701379776001,0.6035899519920349,-0.1230064630508422
2023-08-01 16:27:54.482392,31,191,0.997363805770874,-0.0186016932129859,0.0534903891384601,-0.0453667640686035,-0.302734375,0.89013671875,0.29345703125,0.7314014434814453,0.8240024447441101,-7.723913881818589e-07,0.6822783350944519,0.7174497246742249,-0.0081448154523968,0.6530159711837769,0.6238794326782227,-0.0279995631426572,0.6195300817489624,0.5624317526817322,-0.0524596832692623,0.5957465767860413,0.5097901821136475,-0.07691041380167,0.7945767045021057,0.5210891366004944,-0.0136428549885749,0.7253549098968506,0.4606534242630005,-0.0559938549995422,0.6716004610061646,0.4450160264968872,-0.089176706969738,0.6236110329627991,0.4453497529029846,-0.1079548820853233,0.8214741945266724,0.5532525181770325,-0.0314194820821285,0.7339925765991211,0.4867674708366394,-0.0740575641393661,0.6616978049278259,0.4934276044368744,-0.1004622876644134,0.611473560333252,0.5082787275314331,-0.1140129193663597,0.8288050889968872,0.5991356372833252,-0.0528269112110137,0.7415754199028015,0.5422708988189697,-0.0968911722302436,0.6672787666320801,0.5516101121902466,-0.1112136021256446,0.6176290512084961,0.5680432915687561,-0.1130882874131202,0.815266489982605,0.6507567763328552,-0.0745220631361007,0.7414671182632446,0.6013927459716797,-0.1096160933375358,0.6853728294372559,0.5993607640266418,-0.11841881275177,0.6448370218276978,0.604442834854126,-0.1178209856152534
2023-08-01 16:27:54.547657,32,192,0.997854232788086,-0.0191655065864324,0.0468525923788547,-0.0415254645049572,-0.34765625,0.89599609375,0.2685546875,0.7330812215805054,0.8255264163017273,-7.612435979353904e-07,0.6817530393600464,0.7165778279304504,-0.0072935773059725,0.6527403593063354,0.621391236782074,-0.0261655375361442,0.618364155292511,0.5592942833900452,-0.0498958453536033,0.5973759889602661,0.502183735370636,-0.0735413208603859,0.7921832799911499,0.5199769735336304,-0.0110456552356481,0.723592221736908,0.4604345560073852,-0.0525687709450721,0.6696136593818665,0.4446899890899658,-0.0856579765677452,0.6206660866737366,0.4432997703552246,-0.1045289039611816,0.8186447620391846,0.5507341027259827,-0.029323561117053,0.7332656979560852,0.4790382385253906,-0.0705810934305191,0.6595742106437683,0.4786078333854675,-0.0969861298799514,0.606967031955719,0.4883333444595337,-0.1111770793795585,0.8256558179855347,0.5953763723373413,-0.0512973889708519,0.7385545372962952,0.5321914553642273,-0.0939594581723213,0.6631200313568115,0.5419887900352478,-0.1077051684260368,0.6136521100997925,0.5591850876808167,-0.1097730323672294,0.8116284012794495,0.64633709192276,-0.07359629124403,0.7354403138160706,0.5906239748001099,-0.1080508828163147,0.6785922050476074,0.589139461517334,-0.1164811179041862,0.6389727592468262,0.5957407355308533,-0.1158947721123695
2023-08-01 16:27:54.606096,33,193,0.9982935786247252,-0.0194088444113731,0.0394749380648136,-0.0384050123393535,-0.24609375,0.89404296875,0.26806640625,0.7296580076217651,0.824436366558075,-8.086990987976606e-07,0.6788287162780762,0.714618980884552,-0.0004895184538327,0.6518852710723877,0.6142720580101013,-0.0139291835948824,0.616923987865448,0.5461049675941467,-0.034485537558794,0.5963919162750244,0.4836958646774292,-0.055215798318386,0.7879976034164429,0.5232322812080383,0.0075115957297384,0.7146536111831665,0.4645774364471435,-0.0309495199471712,0.6589718461036682,0.4501927495002746,-0.0635789856314659,0.6132361888885498,0.4482291936874389,-0.0824814662337303,0.8128564953804016,0.5468518733978271,-0.0133686428889632,0.7245266437530518,0.4664898514747619,-0.053238071501255,0.6532618403434753,0.4688886404037475,-0.0818830132484436,0.6040819883346558,0.4838913679122925,-0.0964719280600547,0.8206067085266113,0.5842642784118652,-0.0381728671491146,0.730894923210144,0.5123109817504883,-0.0800181925296783,0.6560232639312744,0.5230450630187988,-0.0971248373389244,0.6073591709136963,0.5425688624382019,-0.1000665351748466,0.8090429306030273,0.6280848979949951,-0.0627753287553787,0.731144905090332,0.5671950578689575,-0.095549963414669,0.676941454410553,0.5636543035507202,-0.1060080975294113,0.638281524181366,0.5710585713386536,-0.1064300537109375
2023-08-01 16:27:54.668182,34,194,0.998534083366394,-0.0202048458158969,0.0358882471919059,-0.0351232029497623,-0.3505859375,0.92578125,0.2509765625,0.7343851923942566,0.8226203918457031,-8.089455150184222e-07,0.6765773296356201,0.705798864364624,0.0095990048721432,0.6502790451049805,0.6086548566818237,-0.0020671621896326,0.6177303791046143,0.5419881939888,-0.0248691774904727,0.598180890083313,0.4767935872077942,-0.0487801544368267,0.7790334224700928,0.5222120881080627,0.0209971833974123,0.7097256779670715,0.4655141830444336,-0.0215427912771701,0.6537420153617859,0.4500816464424133,-0.0587863363325595,0.6056698560714722,0.449822723865509,-0.0808059573173523,0.803692102432251,0.5431095361709595,-0.0091156233102083,0.722955584526062,0.4617229104042053,-0.0532078929245471,0.6519718170166016,0.4631721973419189,-0.0853084176778793,0.6028760671615601,0.4810822010040283,-0.1015813648700714,0.812853991985321,0.5776472091674805,-0.0437816269695758,0.7308695316314697,0.5048574209213257,-0.0878253430128097,0.6556876301765442,0.5138819813728333,-0.105132944881916,0.6086890697479248,0.534096360206604,-0.10819873213768,0.8038740754127502,0.619458019733429,-0.0780742540955543,0.7283087968826294,0.5594967603683472,-0.112441286444664,0.6727793216705322,0.5555666089057922,-0.1229883432388305,0.6358795166015625,0.564590573310852,-0.1236649006605148
2023-08-01 16:27:54.733935,35,195,0.9989001750946044,-0.0208301395177841,0.0285771396011114,-0.0307904947549104,-0.220703125,0.90625,0.2216796875,0.7317436933517456,0.8278251886367798,-8.500344961248629e-07,0.6784707307815552,0.7120972871780396,0.0044379048049449,0.651989221572876,0.610400378704071,-0.0065299929119646,0.6171881556510925,0.5410528182983398,-0.0265097822993993,0.5934332609176636,0.4769636392593384,-0.0468506626784801,0.784355640411377,0.5258793234825134,0.0186553411185741,0.7094323635101318,0.4635694324970245,-0.0208720117807388,0.6503408551216125,0.4541034698486328,-0.0570148602128028,0.6034872531890869,0.4625769853591919,-0.0783856734633445,0.8064712285995483,0.5450257062911987,-0.0055705779232084,0.717778742313385,0.4614413678646087,-0.0449278280138969,0.6472164392471313,0.4679272472858429,-0.077209398150444,0.5995116233825684,0.4907103478908539,-0.0950644016265869,0.8136217594146729,0.577984631061554,-0.0341071151196956,0.7268454432487488,0.5017813444137573,-0.073742851614952,0.6531592607498169,0.5104955434799194,-0.0930062234401702,0.606772780418396,0.5322420001029968,-0.0986843630671501,0.8023261427879333,0.6195049285888672,-0.0624423511326313,0.7258235812187195,0.5541206002235413,-0.0936028286814689,0.6718463897705078,0.5507504343986511,-0.1046881452202797,0.6350005269050598,0.5609045624732971,-0.1065253615379333
2023-08-01 16:27:54.795067,36,196,0.9990567564964294,-0.0205071382224559,0.0254567936062812,-0.0285829957574605,-0.20263671875,0.89306640625,0.29833984375,0.7416349053382874,0.8289567232131958,-8.807082281236944e-07,0.6765514016151428,0.7173817157745361,0.0149604203179478,0.6481485366821289,0.6126694679260254,0.0120446207001805,0.6172025799751282,0.5410844087600708,-0.0015913860406726,0.5904723405838013,0.4855698943138122,-0.0164787508547306,0.7720394134521484,0.521910548210144,0.0324475243687629,0.6978570222854614,0.4603590369224548,0.0025980048812925,0.6362309455871582,0.4574424922466278,-0.0278254356235265,0.589790403842926,0.4715425968170166,-0.0463922806084156,0.7915441989898682,0.5368221998214722,0.0058336439542472,0.7063497304916382,0.4536782205104828,-0.0209292266517877,0.6345479488372803,0.4585072994232178,-0.0466149374842643,0.586418092250824,0.4795705676078796,-0.0620040521025657,0.7967613935470581,0.5676699876785278,-0.024276802316308,0.7138281464576721,0.4932941198348999,-0.0530260913074016,0.64350426197052,0.5026301145553589,-0.0685091912746429,0.5999652147293091,0.5230314135551453,-0.0744745582342147,0.7834005951881409,0.6070896983146667,-0.0537662953138351,0.7063646912574768,0.5409715175628662,-0.076691560447216,0.6540725231170654,0.5380584001541138,-0.0840573608875274,0.6196549534797668,0.5474198460578918,-0.0853393822908401
2023-08-01 16:27:54.855676,37,197,0.9994155168533324,-0.0210009161382913,0.0120403729379177,-0.0241381805390119,-0.31787109375,0.91748046875,0.3349609375,0.7437641024589539,0.8347979784011841,-9.395576512361004e-07,0.6746801137924194,0.720822274684906,0.0411204807460308,0.6477967500686646,0.6200640797615051,0.0468938015401363,0.6192649602890015,0.5543380379676819,0.0343562848865985,0.5878674983978271,0.498934805393219,0.0185541976243257,0.7596655488014221,0.5263105630874634,0.0645330399274826,0.6886216402053833,0.4652947187423706,0.0391609817743301,0.6293250322341919,0.4608669877052307,0.0089865615591406,0.5831795334815979,0.4733256995677948,-0.0104014854878187,0.7814793586730957,0.5379278659820557,0.0216803736984729,0.6965217590332031,0.4601629972457886,-0.0018987936200574,0.6276465654373169,0.4619658589363098,-0.0308195091784,0.5783904790878296,0.4820735454559326,-0.0497426874935627,0.7900093197822571,0.5637937188148499,-0.0238545276224613,0.7051786780357361,0.4902562797069549,-0.0486131012439727,0.6372116208076477,0.5005052089691162,-0.0644519180059433,0.5929803252220154,0.5206729769706726,-0.0725811719894409,0.7808446884155273,0.5986573100090027,-0.0673430785536766,0.7028422951698303,0.5362690091133118,-0.0871491208672523,0.6497293710708618,0.5342085957527161,-0.093542993068695,0.6121924519538879,0.5424143671989441,-0.0958822146058082
2023-08-01 16:27:54.916027,38,198,0.9994232058525084,-0.0201960317790508,0.0092030018568038,-0.0257036425173282,-0.24951171875,0.89990234375,0.24365234375,0.7432221174240112,0.8293617963790894,-8.728263765078736e-07,0.6728439331054688,0.7191490530967712,0.0306002628058195,0.6459537744522095,0.6166784167289734,0.0335000194609165,0.6173286437988281,0.5492672324180603,0.0216344092041254,0.5865586996078491,0.4948175549507141,0.0075762416236102,0.7544907331466675,0.5209941267967224,0.0512608736753463,0.6813332438468933,0.4611561000347137,0.0245123133063316,0.621743381023407,0.4560899138450622,-0.0054309754632413,0.5751902461051941,0.4668641984462738,-0.0240355487912893,0.7768813371658325,0.5318639278411865,0.0158809870481491,0.6917836666107178,0.4525647759437561,-0.0079098362475633,0.6206851005554199,0.4575200378894806,-0.034432079643011,0.5702662467956543,0.480383038520813,-0.0512218251824379,0.7849494814872742,0.5573667883872986,-0.0224563330411911,0.702795147895813,0.4816896915435791,-0.0463960394263267,0.6321659088134766,0.4900812804698944,-0.0607424117624759,0.5850790739059448,0.5095891952514648,-0.0675801187753677,0.7742897272109985,0.5935884714126587,-0.05943264067173,0.7004080414772034,0.5325158834457397,-0.0777971670031547,0.6475493311882019,0.5284335613250732,-0.0834508091211319,0.6084100008010864,0.5349658131599426,-0.0849477723240852
2023-08-01 16:27:54.977554,39,199,0.9994462728500366,-0.0198738798499107,0.0061939796432852,-0.0259564872831106,-0.25439453125,0.9013671875,0.34716796875,0.740491509437561,0.8286787271499634,-8.933214985518134e-07,0.6708521842956543,0.7206225991249084,0.0284750089049339,0.6447387337684631,0.6169906854629517,0.0319207049906253,0.6155663728713989,0.5485481023788452,0.0213537197560071,0.5838475227355957,0.4952051937580108,0.0085102021694183,0.7569864988327026,0.5231813192367554,0.0505661405622959,0.6812746524810791,0.4663119912147522,0.0254490505903959,0.6213606595993042,0.4598885774612427,-0.0041751763783395,0.5746371150016785,0.4692429304122925,-0.0229240134358406,0.7779110670089722,0.5322154760360718,0.0176638290286064,0.689882218837738,0.4529830813407898,-0.0042261485941708,0.6198727488517761,0.4563332200050354,-0.0305211171507835,0.568635106086731,0.476542592048645,-0.0476262830197811,0.7845984101295471,0.5570802688598633,-0.0181472934782505,0.6987922787666321,0.4801684916019439,-0.0406365729868412,0.6304650902748108,0.4849517345428467,-0.0556619018316268,0.5830342769622803,0.5000669360160828,-0.0634128376841545,0.7720950841903687,0.5932344198226929,-0.0526835620403289,0.6943669319152832,0.5319535732269287,-0.0702390745282173,0.6432756185531616,0.526670515537262,-0.0762077867984771,0.6042793393135071,0.5319864749908447,-0.078277550637722
2023-08-01 16:27:55.039230,40,200,0.99935781955719,-0.017218492925167,0.0083146411925554,-0.0303043574094772,-0.48779296875,0.89404296875,0.33544921875,0.7485896944999695,0.8409825563430786,-9.105864364755688e-07,0.6744714975357056,0.7336843013763428,0.041351068764925,0.6469319462776184,0.6287062764167786,0.0539885535836219,0.618302583694458,0.5617645978927612,0.0482380762696266,0.5864412188529968,0.5071821808815002,0.0396103598177433,0.7343840599060059,0.5352417826652527,0.0811091810464859,0.6719359159469604,0.4768345057964325,0.0614995397627353,0.6164437532424927,0.4674977660179138,0.0327603556215763,0.5678980350494385,0.4746249318122864,0.0140328211709856,0.7590487003326416,0.5367686748504639,0.0410790182650089,0.6819074749946594,0.4603393077850342,0.0221521630883216,0.6163630485534668,0.4633494913578033,-0.0089607536792755,0.5635915398597717,0.4836545884609222,-0.0289881229400634,0.774796724319458,0.5518845319747925,-0.0022749542258679,0.6997429132461548,0.4778989553451538,-0.0224532820284366,0.6316124200820923,0.4812148511409759,-0.0426110103726387,0.5796326398849487,0.4983716011047363,-0.0538514107465744,0.7740041017532349,0.5786535739898682,-0.0437936186790466,0.6982650756835938,0.5251266956329346,-0.0586196929216384,0.6451407074928284,0.5215908288955688,-0.0663945972919464,0.602914571762085,0.5292513370513916,-0.0704836994409561
2023-08-01 16:27:55.104589,41,201,0.999182403087616,-0.0151437604799866,0.011317322961986,-0.0357352755963802,-0.20068359375,0.88818359375,0.1650390625,0.7524933218955994,0.8434526920318604,-8.516752245668613e-07,0.6759998202323914,0.7337058186531067,0.0580651387572288,0.6516380906105042,0.6316974759101868,0.0762239098548889,0.6262272000312805,0.5647466778755188,0.0715435594320297,0.5954448580741882,0.5055056214332581,0.0635335892438888,0.7415614724159241,0.541155219078064,0.1017504855990409,0.6807699203491211,0.4798948168754577,0.0877828747034072,0.6258130073547363,0.4693241715431213,0.0624467693269252,0.5797526836395264,0.4737524092197418,0.0446407385170459,0.7653167247772217,0.5416505932807922,0.051183920353651,0.6887720823287964,0.4638851881027221,0.0358249954879283,0.6250501871109009,0.4621275067329407,0.0065614907070994,0.5742958188056946,0.478909432888031,-0.01324771810323,0.7767792344093323,0.5558046102523804,-0.0023623800370842,0.6983930468559265,0.4819248914718628,-0.0198818743228912,0.6309987306594849,0.486585795879364,-0.0362458899617195,0.5800223350524902,0.5014192461967468,-0.0460149236023426,0.7727724313735962,0.5825575590133667,-0.053195159882307,0.6978058218955994,0.5271417498588562,-0.0658389776945114,0.6436367034912109,0.519719123840332,-0.0714991390705108,0.5996395349502563,0.5194685459136963,-0.07514239102602
2023-08-01 16:27:55.164317,42,202,0.9992910027503968,-0.014963760972023,0.0048545887693762,-0.0342073962092399,-0.23779296875,0.9267578125,0.32470703125,0.7525606155395508,0.8459652066230774,-8.366724841835094e-07,0.6766335964202881,0.7364503145217896,0.0507347397506237,0.650726854801178,0.6321500539779663,0.0660276785492897,0.6233276724815369,0.5654772520065308,0.060299027711153,0.5917693376541138,0.507116973400116,0.0517144054174423,0.7402858734130859,0.5394083261489868,0.0939085036516189,0.6771981716156006,0.481291800737381,0.0786778032779693,0.6219403147697449,0.4714597463607788,0.0527820959687233,0.5752578377723694,0.4739355444908142,0.0347385220229625,0.7639074325561523,0.5398078560829163,0.0474258959293365,0.685821533203125,0.4639317393302917,0.0316363424062728,0.6210008859634399,0.4632688164710998,0.0032332180999219,0.5695280432701111,0.4793768525123596,-0.0159627143293619,0.7759118676185608,0.5542938709259033,-0.002369686262682,0.6981387138366699,0.4801061153411865,-0.0202725026756525,0.6288566589355469,0.4859864711761474,-0.0359929502010345,0.5771101713180542,0.5015830993652344,-0.0451214648783206,0.7721996903419495,0.5820229649543762,-0.0499952472746372,0.6988112926483154,0.5246238112449646,-0.0630592629313469,0.6439501047134399,0.5190949440002441,-0.068104475736618,0.5999839305877686,0.5216758847236633,-0.0709769651293754
2023-08-01 16:27:55.227890,43,203,0.9993909001350404,-0.0141792334616184,0.0007264306768774,-0.0318792015314102,-0.27734375,0.91259765625,0.34814453125,0.7630999088287354,0.8603197336196899,-9.108197218665736e-07,0.6865336894989014,0.7513739466667175,0.0554598607122898,0.6603217124938965,0.6480834484100342,0.0741097852587699,0.635728120803833,0.5808581709861755,0.0706438794732093,0.6078769564628601,0.5197246074676514,0.0639526322484016,0.7484007477760315,0.5600889921188354,0.0985036715865135,0.6873168349266052,0.4963946342468261,0.0820435360074043,0.6319748163223267,0.4817482233047485,0.055142767727375,0.5852412581443787,0.4842585325241089,0.0366362631320953,0.772079348564148,0.5591986775398254,0.04928620159626,0.6951149106025696,0.4791362881660461,0.0314523912966251,0.6310520172119141,0.4747552573680877,0.0006282934336923,0.5803498029708862,0.4885727763175964,-0.0199801586568355,0.784789502620697,0.5719761252403259,-0.003037272952497,0.7073356509208679,0.4909838438034057,-0.0242877267301082,0.6392476558685303,0.495239794254303,-0.0415939055383205,0.5882324576377869,0.5102688074111938,-0.0510319657623767,0.7830522656440735,0.5983704328536987,-0.0525477714836597,0.7049351334571838,0.5379917025566101,-0.0694325119256973,0.6507344245910645,0.5315926671028137,-0.0759892016649246,0.6088654398918152,0.5329527854919434,-0.0792385339736938
2023-08-01 16:27:55.287894,44,204,0.9994550943374634,-0.0120693361386656,-0.0013571848394349,-0.0306904017925262,-0.19140625,0.9189453125,0.1904296875,0.7630351781845093,0.8668946623802185,-8.026137265915168e-07,0.6854433417320251,0.7572532892227173,0.0451846867799758,0.6601880192756653,0.64968341588974,0.0577257201075553,0.6313325762748718,0.5808846950531006,0.0505474135279655,0.5975266098976135,0.52315354347229,0.0414899177849292,0.7490655183792114,0.5603152513504028,0.0883426442742347,0.6921766996383667,0.4948717653751373,0.0704894885420799,0.6357480883598328,0.4833229780197143,0.0431813560426235,0.5865744948387146,0.487066388130188,0.0245390590280294,0.7711306810379028,0.5603270530700684,0.0445984154939651,0.6964755058288574,0.4816080927848816,0.0277010574936866,0.6330691576004028,0.4785246253013611,-0.0009305634885095,0.5827184319496155,0.4901380538940429,-0.0205906927585601,0.7828928232192993,0.5751767158508301,-0.0029199176933616,0.7092253565788269,0.494886189699173,-0.0216066502034664,0.6400794982910156,0.497264564037323,-0.0360805504024028,0.5870304107666016,0.5096819996833801,-0.0444588474929332,0.7796913385391235,0.6039113402366638,-0.0487663932144641,0.7079967260360718,0.5416464805603027,-0.0619892813265323,0.6533871293067932,0.5325028896331787,-0.0661516115069389,0.6093434691429138,0.5322604179382324,-0.0684166029095649
2023-08-01 16:27:55.351830,45,205,0.9995099306106568,-0.0116438046097755,-0.0036363438703119,-0.0288286935538053,-0.2392578125,0.91943359375,0.26416015625,0.7626644372940063,0.868769109249115,-7.890695314927143e-07,0.6845627427101135,0.7600600719451904,0.0376662090420722,0.659835934638977,0.6519224643707275,0.0471999049186706,0.6298971176147461,0.5826817154884338,0.0391264259815216,0.5946886539459229,0.5264388918876648,0.0294855274260044,0.7541798949241638,0.5608540773391724,0.0779412388801574,0.6937853693962097,0.4945284724235534,0.0582551509141922,0.6365454196929932,0.4832807183265686,0.0303591042757034,0.5874159336090088,0.488444983959198,0.0119400229305028,0.7754284739494324,0.5615451335906982,0.0390548110008239,0.6976054310798645,0.4816584885120392,0.0204066205769777,0.6331235766410828,0.4780048131942749,-0.0082401409745216,0.5811766386032104,0.4894863367080688,-0.0272168722003698,0.7849301695823669,0.5777850151062012,-0.0036439686082303,0.7077364325523376,0.495667815208435,-0.0234937574714422,0.6386234164237976,0.4962904453277588,-0.0379087217152118,0.5849859714508057,0.5077666640281677,-0.045426819473505,0.7775790691375732,0.6076705455780029,-0.0450295098125934,0.7036241888999939,0.5428632497787476,-0.0589707158505916,0.6486566066741943,0.531233012676239,-0.0631176307797432,0.6038080453872681,0.5294803977012634,-0.0645827278494834
2023-08-01 16:27:55.416064,46,206,0.99955153465271,-0.0118355443701148,-0.0037906067445874,-0.0272483453154563,-0.25244140625,0.90576171875,0.38916015625,0.7596438527107239,0.8702766299247742,-7.805375616953825e-07,0.6859654784202576,0.7721471786499023,0.0282109957188367,0.6606621742248535,0.6623495817184448,0.0356527231633663,0.6333310604095459,0.591073751449585,0.0284051764756441,0.6011748909950256,0.5363320708274841,0.0205074697732925,0.7501034736633301,0.5684505105018616,0.065765768289566,0.6946523785591125,0.4985042810440063,0.0448787622153759,0.6362971067428589,0.4870714545249939,0.0178868807852268,0.5868430733680725,0.4943566918373108,0.0012481765588745,0.7707115411758423,0.5686599612236023,0.034003660082817,0.6960791945457458,0.4844209551811218,0.0167135577648878,0.6298342347145081,0.4835119843482971,-0.0083970082923769,0.5794887542724609,0.4978934526443481,-0.0243894569575786,0.7804372906684875,0.5843859314918518,-0.0018510101363062,0.7095575928688049,0.4950796365737915,-0.0203611869364976,0.6391486525535583,0.4955286383628845,-0.0326180011034011,0.5862784385681152,0.5102974772453308,-0.0380440913140773,0.7721955180168152,0.6128698587417603,-0.0370194613933563,0.7019567489624023,0.5449060797691345,-0.049572680145502,0.648547887802124,0.5309136509895325,-0.0525413118302822,0.6060481071472168,0.5297600626945496,-0.0524477437138557
2023-08-01 16:27:55.482954,47,207,0.9995937943458556,-0.0118160070851445,-0.0052253240719437,-0.0254007764160633,-0.2724609375,0.896484375,0.322265625,0.7567580938339233,0.8710419535636902,-7.602406526530103e-07,0.6834700703620911,0.7731605768203735,0.0256676543503999,0.6591994166374207,0.6621017456054688,0.0315746515989303,0.630722165107727,0.5905970335006714,0.0233376119285821,0.5951066017150879,0.5370855331420898,0.0145549019798636,0.7479368448257446,0.5705863237380981,0.0638397634029388,0.6944975852966309,0.499554306268692,0.0419424697756767,0.6360370516777039,0.4889453649520874,0.0144377639517188,0.5870277285575867,0.4971068203449249,-0.0024691785220056,0.769210934638977,0.570275068283081,0.0333751961588859,0.6973720192909241,0.4861460924148559,0.0143577884882688,0.6301631331443787,0.4868249893188476,-0.0118026314303278,0.5801486968994141,0.5015172958374023,-0.0282394438982009,0.7799246311187744,0.5858950614929199,-0.0013071106513962,0.7113385200500488,0.4959017634391784,-0.0208474919199943,0.6396111249923706,0.498790830373764,-0.0337641350924968,0.5868264436721802,0.5147188305854797,-0.0394584499299526,0.7721639275550842,0.6142146587371826,-0.0353906750679016,0.701807975769043,0.5473760962486267,-0.0480142422020435,0.6488215923309326,0.5350500345230103,-0.0512156672775745,0.6079511642456055,0.5335745811462402,-0.0513774156570434
2023-08-01 16:27:55.548010,48,208,0.9996356964111328,-0.0109437434002757,-0.0042413803748786,-0.0243042483925819,-0.2548828125,0.92724609375,0.22119140625,0.7515426874160767,0.871769368648529,-7.599579134875967e-07,0.6829575300216675,0.7765538692474365,0.019145518541336,0.6586855053901672,0.6655704975128174,0.022730927914381,0.6328592896461487,0.5930691361427307,0.013776771724224,0.5986714363098145,0.5395269393920898,0.0044030584394931,0.746185839176178,0.5708123445510864,0.0544692538678646,0.6918324828147888,0.5015629529953003,0.028391620144248,0.634566605091095,0.4910425543785095,-0.0012561882613226,0.5864572525024414,0.4993842542171478,-0.0191518999636173,0.7681461572647095,0.570144534111023,0.0272511392831802,0.6953153014183044,0.4894536435604095,0.0032652311492711,0.6291523575782776,0.4902847409248352,-0.0248098075389862,0.5794013142585754,0.5043472051620483,-0.0416038669645786,0.7804855704307556,0.5870808362960815,-0.0044400305487215,0.71171635389328,0.5007154941558838,-0.0286238733679056,0.6407735347747803,0.5038940906524658,-0.0429331511259079,0.5879737734794617,0.5188852548599243,-0.0482794754207134,0.7763460278511047,0.6181847453117371,-0.0358630903065204,0.709320068359375,0.5559138655662537,-0.0525921732187271,0.6597240567207336,0.542169988155365,-0.0578467585146427,0.62109375,0.5370801687240601,-0.058403193950653
2023-08-01 16:27:55.603953,49,209,0.9996778964996338,-0.0104069542139768,-0.0063213347457349,-0.0222688093781471,-0.21435546875,0.9189453125,0.29248046875,0.7568798065185547,0.8719973564147949,-7.712125125181046e-07,0.6829714775085449,0.772616446018219,0.0301349088549613,0.6582208871841431,0.6651577353477478,0.0388150475919246,0.6311359405517578,0.5934963226318359,0.0323069840669631,0.5983274579048157,0.5389614701271057,0.0249332096427679,0.7482200264930725,0.5750476121902466,0.0712187960743904,0.6930999755859375,0.5060359239578247,0.0519242584705352,0.6363267302513123,0.49381884932518,0.0253871101886034,0.5884392261505127,0.4995242357254028,0.0088454419746994,0.7683026790618896,0.574128270149231,0.039006371051073,0.6961731314659119,0.4926849603652954,0.0225956887006759,0.6306864023208618,0.4906088709831238,-0.0032332118134945,0.5807201862335205,0.5034074783325195,-0.0197131857275962,0.7780064344406128,0.5886459946632385,0.0027464416343718,0.707979679107666,0.5031236410140991,-0.0150275602936744,0.6386399269104004,0.5040717124938965,-0.027967806905508,0.5868802666664124,0.5173311233520508,-0.0339049510657787,0.770906388759613,0.6157680749893188,-0.0326194316148757,0.7014104723930359,0.5499692559242249,-0.0439057610929012,0.6498401165008545,0.5368245244026184,-0.0463284067809581,0.6096088290214539,0.5337559580802917,-0.0460250154137611
2023-08-01 16:27:55.666288,50,210,0.9996982216835022,-0.010455310344696,-0.0075860572978854,-0.020891822874546,-0.197265625,0.90966796875,0.3740234375,0.7530325651168823,0.867735743522644,-7.667475756534259e-07,0.6789672374725342,0.7697031497955322,0.0252410732209682,0.6552249193191528,0.6615223288536072,0.0319105572998523,0.6285439729690552,0.5907281637191772,0.0245259497314691,0.5930704474449158,0.5408437252044678,0.0165307708084583,0.7460014224052429,0.5720502138137817,0.0657611265778541,0.6922063827514648,0.5027572512626648,0.0444579422473907,0.6347883939743042,0.4936084151268005,0.0167065858840942,0.5861830711364746,0.5033790469169617,-0.0003896455164067,0.7661206722259521,0.5715866088867188,0.0361543036997318,0.6938987970352173,0.4889652132987976,0.016989029943943,0.6284686326980591,0.4916056990623474,-0.0103733679279685,0.5798760056495667,0.5086244344711304,-0.0272135883569717,0.7766098380088806,0.5865421295166016,0.0023061803076416,0.7067378163337708,0.5005624294281006,-0.0172400213778018,0.6377895474433899,0.5031037330627441,-0.0317768454551696,0.5874201655387878,0.5186334848403931,-0.0382300242781639,0.7708905935287476,0.6143545508384705,-0.0309461914002895,0.7034064531326294,0.5475894212722778,-0.0432381145656108,0.6516921520233154,0.5339058041572571,-0.0471031218767166,0.6112097501754761,0.5312360525131226,-0.0476702079176902
2023-08-01 16:27:55.724204,51,211,0.9997124075889589,-0.0081459851935505,-0.0045225480571389,-0.022097272798419,-0.271484375,0.9306640625,0.19677734375,0.755070149898529,0.8671180009841919,-7.464257123501739e-07,0.6810030937194824,0.7701990008354187,0.0251654963940382,0.6572613716125488,0.6628246307373047,0.0320245586335659,0.6302202343940735,0.5903517603874207,0.0248508509248495,0.595669150352478,0.5371021032333374,0.0172876678407192,0.7470718026161194,0.5760326385498047,0.0667905136942863,0.6927703619003296,0.5047094225883484,0.0467434376478195,0.6359667778015137,0.4914211630821228,0.0200367793440818,0.5879303216934204,0.4970108568668365,0.0035383698996156,0.7671537399291992,0.5738680362701416,0.0375933274626731,0.6957353949546814,0.4884049892425537,0.0203056428581476,0.6307465434074402,0.4855812788009643,-0.0053200297988951,0.5814683437347412,0.4984592795372009,-0.0215749070048332,0.777138888835907,0.5864338874816895,0.0039635789580643,0.7079654335975647,0.4972382187843323,-0.0140284737572073,0.6390951871871948,0.4975586533546448,-0.0272603537887334,0.5885642766952515,0.512216329574585,-0.0333067514002323,0.7701849937438965,0.6107988357543945,-0.0292010400444269,0.7014965415000916,0.5424031019210815,-0.0402467548847198,0.6488985419273376,0.5282263159751892,-0.0434673130512237,0.6080607175827026,0.5265753269195557,-0.0439891256392002
2023-08-01 16:27:55.793585,52,212,0.9997345209121704,-0.0079878000542521,-0.0048629622906446,-0.0210597328841686,-0.2490234375,0.919921875,0.24609375,0.7550594806671143,0.872555136680603,-7.47883575513697e-07,0.6807422637939453,0.7740086317062378,0.0276710297912359,0.6585636734962463,0.6637651920318604,0.0353399664163589,0.6316810846328735,0.5909784436225891,0.0281977001577615,0.5969173312187195,0.5356175303459167,0.0203828383237123,0.7492591738700867,0.5789090394973755,0.070658341050148,0.6967125535011292,0.50581294298172,0.0503343939781188,0.639305055141449,0.491477370262146,0.0231709983199834,0.5903064608573914,0.4969030320644378,0.0062796170823276,0.7692224383354187,0.5771109461784363,0.0394814535975456,0.6995445489883423,0.4896746873855591,0.02093549631536,0.6339284181594849,0.4872969090938568,-0.0058634793385863,0.5841965675354004,0.5016182065010071,-0.0225228480994701,0.7789589762687683,0.5901089310646057,0.0038121789693832,0.7120033502578735,0.4979183077812195,-0.0154806608334183,0.642344057559967,0.4976254403591156,-0.0293786711990833,0.5909680128097534,0.5123726725578308,-0.0355672240257263,0.7722809314727783,0.6146422028541565,-0.0311864502727985,0.7057897448539734,0.5452079772949219,-0.0434795543551445,0.6528096795082092,0.5298205018043518,-0.0473585426807403,0.6117988228797913,0.5264447331428528,-0.048183511942625
