Timestamp,Index,Frame ID,w,x,y,z,ax,ay,az,x_0,y_0,z_0,x_1,y_1,z_1,x_2,y_2,z_2,x_3,y_3,z_3,x_4,y_4,z_4,x_5,y_5,z_5,x_6,y_6,z_6,x_7,y_7,z_7,x_8,y_8,z_8,x_9,y_9,z_9,x_10,y_10,z_10,x_11,y_11,z_11,x_12,y_12,z_12,x_13,y_13,z_13,x_14,y_14,z_14,x_15,y_15,z_15,x_16,y_16,z_16,x_17,y_17,z_17,x_18,y_18,z_18,x_19,y_19,z_19,x_20,y_20,z_20
2023-08-01 16:28:02.581088,0,318,0.9977413415908812,-0.0151814809069037,0.0590079948306083,-0.0282803792506456,-0.30419921875,0.921875,0.22705078125,0.7253891229629517,0.8628089427947998,-7.479077908101317e-07,0.6562709212303162,0.7575750350952148,0.033620186150074,0.6420646905899048,0.6520046591758728,0.0443927608430385,0.6243194937705994,0.5829268097877502,0.0413278006017208,0.6057193875312805,0.5253010988235474,0.0379412993788719,0.7499208450317383,0.5650448799133301,0.0573971681296825,0.706191897392273,0.481009304523468,0.0423920676112175,0.6555224657058716,0.456806480884552,0.0236134398728609,0.6090995073318481,0.4517599046230316,0.0122775621712207,0.7663971185684204,0.5722299814224243,0.0266438517719507,0.6931974291801453,0.4761518836021423,0.0120953191071748,0.6287487149238586,0.4640116691589355,-0.0059029776602983,0.5790067315101624,0.4721777439117431,-0.0166255459189414,0.7695786952972412,0.5926241874694824,-0.0066112987697124,0.6811625957489014,0.5065062046051025,-0.0211451184004545,0.6164737939834595,0.4987656772136688,-0.0306473188102245,0.568410336971283,0.5052578449249268,-0.0351029895246028,0.7545680999755859,0.6219866275787354,-0.0386546961963176,0.6725248098373413,0.5575057864189148,-0.0466499961912632,0.6210453510284424,0.539461612701416,-0.0498260371387004,0.581394612789154,0.5321078896522522,-0.0510669387876987
2023-08-01 16:28:02.641732,1,319,0.9976556301116944,-0.015843492001295,0.0604712255299091,-0.0278473906219005,-0.35400390625,0.93701171875,0.24462890625,0.7249405384063721,0.8593885898590088,-7.277776035152783e-07,0.6543595194816589,0.7490378618240356,0.0331223644316196,0.6419009566307068,0.6448588371276855,0.0437951795756816,0.6249495148658752,0.5754704475402832,0.0407355353236198,0.608015775680542,0.5173410773277283,0.0373713560402393,0.7510337233543396,0.5632690191268921,0.0577743835747242,0.706329345703125,0.4777675569057464,0.0421587005257606,0.6550912261009216,0.4545857012271881,0.0230678208172321,0.6084061861038208,0.4517389833927154,0.0120766656473279,0.7684760689735413,0.5705783367156982,0.0276082847267389,0.698115348815918,0.4731409549713135,0.013261548243463,0.635222315788269,0.4607024192810058,-0.0043403413146734,0.5858104228973389,0.4696769714355469,-0.0144115453585982,0.7721555829048157,0.5914794206619263,-0.0051662940531969,0.6868814826011658,0.5032064318656921,-0.0194350853562355,0.6231656074523926,0.495174765586853,-0.0279979612678289,0.5750312209129333,0.5020909309387207,-0.031434066593647,0.7569260597229004,0.6214204430580139,-0.0367463529109954,0.6761530637741089,0.5564850568771362,-0.044426217675209,0.625552237033844,0.5377655029296875,-0.0466295704245567,0.586039125919342,0.529321551322937,-0.0467691235244274
2023-08-01 16:28:02.706278,2,320,0.9971835613250732,-0.0176858529448509,0.0666284188628196,-0.0295432768762111,-0.31640625,0.9296875,0.22265625,0.7250393033027649,0.8528212308883667,-7.032664939288225e-07,0.6556904315948486,0.744951605796814,0.0332011021673679,0.6424069404602051,0.6373727917671204,0.0440329872071743,0.6244197487831116,0.5661738514900208,0.0412236228585243,0.6052762269973755,0.5080170035362244,0.0380859561264514,0.7532433867454529,0.5559011101722717,0.057949598878622,0.7082881927490234,0.4726292490959167,0.0434669815003871,0.6546043157577515,0.4499730169773102,0.0254422184079885,0.6085512638092041,0.4471907615661621,0.0148494690656661,0.771220862865448,0.5634483098983765,0.0275129750370979,0.7077019810676575,0.4615529179573059,0.0137055125087499,0.6438769102096558,0.4488837718963623,-0.0024747981224209,0.5944750308990479,0.4593974649906158,-0.0110199591144919,0.7738239765167236,0.5847829580307007,-0.0054777893237769,0.6922076344490051,0.4952476024627685,-0.0194582417607307,0.6274674534797668,0.4841148555278778,-0.0278702154755592,0.5787848234176636,0.4879704713821411,-0.0311220735311508,0.7562179565429688,0.6143963932991028,-0.0371831841766834,0.6773903369903564,0.5482140779495239,-0.0448026359081268,0.6264709234237671,0.5283675789833069,-0.0469314455986022,0.5867136716842651,0.5177707672119141,-0.0470342002809047
2023-08-01 16:28:02.773288,3,321,0.9958925843238832,-0.0208400320261716,0.0801979973912239,-0.0364937707781791,0.05517578125,0.880859375,0.34619140625,0.7230225205421448,0.8502169847488403,-7.31842362711177e-07,0.6560980677604675,0.739886999130249,0.0325580425560474,0.6416462063789368,0.6301468014717102,0.0422316454350948,0.6223264336585999,0.5574157238006592,0.038720104843378,0.6030902862548828,0.4997133910655975,0.0352965667843818,0.7573904991149902,0.5537413358688354,0.053925085812807,0.7122882008552551,0.4619153141975403,0.0391470082104206,0.6588144898414612,0.4398281276226043,0.0215535666793584,0.6120715141296387,0.4390683174133301,0.0115223061293363,0.7735774517059326,0.562633752822876,0.0248149055987596,0.704815149307251,0.4551663398742676,0.0124550880864262,0.6420998573303223,0.4440429806709289,-0.0021353205665946,0.5955045819282532,0.4558436274528503,-0.0106705827638506,0.7745926380157471,0.5834681391716003,-0.0066694132983684,0.690534770488739,0.4889266192913055,-0.0183690041303634,0.627715528011322,0.4814614057540893,-0.0249305590987205,0.5822554230690002,0.4903493821620941,-0.0279472433030605,0.7559853196144104,0.6111586093902588,-0.0370094515383243,0.6781049966812134,0.5422530174255371,-0.0427636951208114,0.6282230019569397,0.5236443877220154,-0.0441081710159778,0.5901071429252625,0.5164976716041565,-0.0443315766751766
2023-08-01 16:28:02.839536,4,322,0.993748128414154,-0.0193225760012865,0.1004051938652992,-0.0448348522186279,-0.2080078125,0.90576171875,0.390625,0.7217454314231873,0.8470040559768677,-7.302368203454535e-07,0.6549314260482788,0.7342809438705444,0.0312330909073352,0.6414286494255066,0.6262649297714233,0.0394932925701141,0.62217116355896,0.5532029867172241,0.034794945269823,0.6024078130722046,0.4952935576438904,0.0299885366111993,0.7591114640235901,0.5510752201080322,0.0514520443975925,0.7116576433181763,0.461153119802475,0.0354099161922931,0.657170295715332,0.4374014139175415,0.0168439224362373,0.6105023622512817,0.4355037212371826,0.0061292685568332,0.7761721014976501,0.5591129064559937,0.022336009889841,0.7089208364486694,0.4479472041130066,0.0081203263252973,0.6454547047615051,0.4350379705429077,-0.0074853189289569,0.5974442362785339,0.446892499923706,-0.0162960682064294,0.7772775292396545,0.5798996090888977,-0.0091093238443136,0.6931489706039429,0.4835058450698852,-0.0222359411418437,0.6285255551338196,0.4719349145889282,-0.0300847832113504,0.580986738204956,0.4781297743320465,-0.0337253287434577,0.7574489712715149,0.6073270440101624,-0.039433903992176,0.6784839630126953,0.5373489260673523,-0.0461471192538738,0.6276651620864868,0.5159105062484741,-0.0485379360616207,0.5882731676101685,0.5063797831535339,-0.0494720973074436
2023-08-01 16:28:02.914178,5,323,0.9898920059204102,-0.0148204835131764,0.1311618089675903,-0.0518728457391262,-0.6552734375,0.93798828125,0.228515625,0.7203385233879089,0.8491091728210449,-7.791683174218633e-07,0.654238760471344,0.7386785745620728,0.0265514440834522,0.6423772573471069,0.6297407746315002,0.0325556322932243,0.6247896552085876,0.5558876991271973,0.026019386947155,0.6046944260597229,0.4976192712783813,0.0194923803210258,0.7565109133720398,0.548849880695343,0.0489510707557201,0.7102608680725098,0.4597632884979248,0.0294831413775682,0.6536765098571777,0.4397057890892029,0.0075628198683261,0.606395959854126,0.4433100819587707,-0.0052217096090316,0.7736331224441528,0.5572810769081116,0.0211672969162464,0.7077527642250061,0.4472687244415283,0.0045031881891191,0.6420935392379761,0.4356227815151214,-0.0143962344154715,0.5937551259994507,0.4503090977668762,-0.0254966001957654,0.7759652137756348,0.5787550210952759,-0.0095756873488426,0.6945728659629822,0.4832345247268677,-0.0248021781444549,0.6285653114318848,0.4721691310405731,-0.0356490425765514,0.5812616944313049,0.4814229905605316,-0.0411720387637615,0.7585862278938293,0.6072574853897095,-0.039620965719223,0.6811549067497253,0.5369666814804077,-0.0480964519083499,0.6301466822624207,0.5181457996368408,-0.0522400476038455,0.591188371181488,0.5138538479804993,-0.0542924180626869
2023-08-01 16:28:02.982417,6,324,0.9881790280342102,-0.0110522871837019,0.1422893702983856,-0.0559806786477565,-0.24072265625,0.900390625,0.14013671875,0.7210176587104797,0.8497039079666138,-7.360426934610587e-07,0.6547067165374756,0.7254545092582703,0.0315405391156673,0.642236590385437,0.6171098351478577,0.0370737463235855,0.6214601993560791,0.5418654084205627,0.0295120365917682,0.5985090732574463,0.4831289947032928,0.021861582994461,0.7664576172828674,0.5482586622238159,0.0492287427186965,0.715530514717102,0.4545102715492248,0.0313651897013187,0.659028947353363,0.4324475526809692,0.0111469188705086,0.6109452247619629,0.4316969513893127,-0.000549120712094,0.7833965420722961,0.5588497519493103,0.0192154105752706,0.7140855193138123,0.4414229989051819,0.0031067540403455,0.6497016549110413,0.4297691583633423,-0.0147183090448379,0.601728618144989,0.4409717917442322,-0.0249060783535242,0.7835766077041626,0.581974983215332,-0.012626570649445,0.6973586678504944,0.4859122335910797,-0.0257151592522859,0.6329472064971924,0.473784476518631,-0.033718179911375,0.586643636226654,0.4764883518218994,-0.0374925583600997,0.7621100544929504,0.6097749471664429,-0.0432070456445217,0.6830219030380249,0.5370116233825684,-0.0482284687459468,0.6324782371520996,0.514950156211853,-0.0487369894981384,0.5937405228614807,0.5038055777549744,-0.0484653301537036
2023-08-01 16:28:03.058380,7,325,0.9823620915412904,-0.0046941041946411,0.1755017638206482,-0.0643570125102996,-0.421875,0.90234375,0.109375,0.7204316258430481,0.840143084526062,-7.53272558995377e-07,0.6670061945915222,0.7027859687805176,0.0179294534027576,0.6492778658866882,0.5955621004104614,0.012627019546926,0.6225217580795288,0.5186303853988647,-0.0036212070845067,0.6022343635559082,0.453090637922287,-0.018857380375266,0.7971854209899902,0.5467694401741028,0.0284474790096282,0.7432845234870911,0.4457267522811889,0.0012397712562233,0.68343186378479,0.427107036113739,-0.0247930418699979,0.6343425512313843,0.4283174872398376,-0.0409162268042564,0.810370683670044,0.5680462121963501,0.0021939522121101,0.7293532490730286,0.448849618434906,-0.0234248489141464,0.6652419567108154,0.444411039352417,-0.0471746996045112,0.6217498779296875,0.4541147351264953,-0.0628099888563156,0.8052559494972229,0.5926114916801453,-0.0266583953052759,0.7137396931648254,0.4893240332603454,-0.0493475198745727,0.6493431925773621,0.4800370931625366,-0.0614940784871578,0.6041415333747864,0.4838955402374267,-0.068081721663475,0.7787627577781677,0.6190028786659241,-0.0548583343625068,0.7017278671264648,0.5405099987983704,-0.0701796561479568,0.6534496545791626,0.5168517827987671,-0.0760581269860267,0.6161916851997375,0.5061386227607727,-0.0788883864879608
2023-08-01 16:28:03.140380,8,326,0.9780377149581908,-0.0023397502955049,0.1956909894943237,-0.0717061161994934,-0.42822265625,0.89404296875,0.044921875,0.7234567999839783,0.8250897526741028,-7.82526171860809e-07,0.6761798858642578,0.6865721940994263,0.0079674152657389,0.6647741198539734,0.5836778879165649,-0.0022610400337725,0.6446567177772522,0.5112715363502502,-0.0190984848886728,0.6307710409164429,0.4530304074287414,-0.0356814414262771,0.8263156414031982,0.5538604259490967,-0.0004810129175893,0.7693182229995728,0.4529660940170288,-0.0307809375226497,0.7082508206367493,0.4339745044708252,-0.0550758354365825,0.662916362285614,0.4330228269100189,-0.0697527378797531,0.8382670879364014,0.5794894099235535,-0.0210594460368156,0.7670879364013672,0.446153461933136,-0.0517199784517288,0.6972118020057678,0.4374862909317016,-0.073113352060318,0.6487693190574646,0.4478439092636108,-0.0856297239661216,0.827821671962738,0.6075846552848816,-0.042924053966999,0.7380333542823792,0.499754399061203,-0.0705514699220657,0.6704508662223816,0.4859198927879333,-0.0830960720777511,0.6240357160568237,0.4839580953121185,-0.0888077169656753,0.7945224046707153,0.6335898041725159,-0.0639474093914032,0.7169923186302185,0.5521054267883301,-0.0829460024833679,0.6685495376586914,0.525587797164917,-0.0904531478881836,0.6327138543128967,0.5074716806411743,-0.0938614979386329
2023-08-01 16:28:03.219382,9,327,0.9762138724327089,-0.0032470386940985,0.2027700543403625,-0.0766830220818519,-0.46044921875,0.8935546875,0.15673828125,0.7260802388191223,0.8208762407302856,-7.762029099467327e-07,0.6769524812698364,0.6843142509460449,0.0005698921158909,0.6650965213775635,0.5791531205177307,-0.0143235763534903,0.6460438370704651,0.507867157459259,-0.034142892807722,0.6333662867546082,0.4526465535163879,-0.0546535924077034,0.8272020816802979,0.5539233088493347,-0.0156993325799703,0.7706368565559387,0.4466041326522827,-0.0528187938034534,0.7075206637382507,0.4224051237106323,-0.0803004577755928,0.657795786857605,0.4237480759620666,-0.0956658795475959,0.8386672735214233,0.5838890075683594,-0.0347858108580112,0.7785110473632812,0.443092942237854,-0.0721509158611297,0.7031046748161316,0.4294005334377289,-0.0943561196327209,0.6504108309745789,0.4425820112228393,-0.1054047644138336,0.8267072439193726,0.6164420247077942,-0.0553629137575626,0.7430999875068665,0.5040042400360107,-0.0889628306031227,0.6723516583442688,0.4887523353099823,-0.1024011150002479,0.6269611716270447,0.4895547032356262,-0.1068343892693519,0.7924487590789795,0.6446052193641663,-0.0752959474921226,0.7145485281944275,0.5587928295135498,-0.0971577540040016,0.6654316782951355,0.5332644581794739,-0.1041211038827896,0.6331404447555542,0.5171033143997192,-0.1062517240643501
2023-08-01 16:28:03.289011,10,328,0.9741159677505492,-0.0016020808834582,0.2110027521848678,-0.0810767784714698,-0.42138671875,0.87646484375,0.13916015625,0.7254140973091125,0.8207324147224426,-8.253952046288759e-07,0.6795879602432251,0.6806442737579346,-0.0021750174928456,0.6689842939376831,0.5732222199440002,-0.0169033873826265,0.6515635251998901,0.4983686208724975,-0.0360633432865142,0.6430917382240295,0.4403277039527893,-0.0557398721575737,0.8307826519012451,0.547482430934906,-0.0175099521875381,0.7710171937942505,0.444371223449707,-0.0562413036823272,0.7066454887390137,0.4189583659172058,-0.0841973349452018,0.6560850143432617,0.4176743328571319,-0.0994534566998481,0.841486394405365,0.5804967880249023,-0.0349885411560535,0.7778227925300598,0.4495362043380737,-0.0732179954648017,0.7009753584861755,0.4344728887081146,-0.0956388041377067,0.647775411605835,0.4430458545684814,-0.1071201637387275,0.8296286463737488,0.6145415902137756,-0.054460983723402,0.7456516623497009,0.5085257291793823,-0.0911196768283844,0.6721892952919006,0.4928537011146545,-0.1062025129795074,0.623923122882843,0.4922001361846924,-0.1111298277974128,0.7968987226486206,0.6456706523895264,-0.0732931494712829,0.7187528014183044,0.5648130774497986,-0.0983055457472801,0.6676127314567566,0.5408272743225098,-0.1069211289286613,0.6322861313819885,0.5250016450881958,-0.1094824373722076
2023-08-01 16:28:03.359476,11,329,0.9716610312461852,0.0012398158432915,0.2194763123989105,-0.0877697467803955,-0.4521484375,0.88720703125,0.109375,0.7236182689666748,0.8269944190979004,-8.396242492381134e-07,0.6787831783294678,0.6834093332290649,-0.0034188567660748,0.672203779220581,0.5766712427139282,-0.0181436855345964,0.6585901379585266,0.5008488893508911,-0.036643948405981,0.6517678499221802,0.4449837207794189,-0.0564610622823238,0.836317777633667,0.5558704137802124,-0.0229450222104787,0.7699347734451294,0.4574967920780182,-0.0612752772867679,0.7068688869476318,0.430582046508789,-0.0889116004109382,0.6563402414321899,0.4249243140220642,-0.1046523451805114,0.8480168581008911,0.5934009552001953,-0.040332842618227,0.7783412933349609,0.4648891091346741,-0.0792608261108398,0.7012766599655151,0.4487023651599884,-0.1028386652469635,0.6473453640937805,0.4513388574123382,-0.1159214228391647,0.8352432250976562,0.6312854290008545,-0.0591241307556629,0.7455074191093445,0.5242471098899841,-0.0979889780282974,0.6694658398628235,0.5051565170288086,-0.1139837801456451,0.6183650493621826,0.4985112249851227,-0.1198173910379409,0.7996680736541748,0.6640620231628418,-0.0770581513643264,0.7178782224655151,0.5802174806594849,-0.1050675809383392,0.6652215719223022,0.5542759895324707,-0.1147655844688415,0.6277217864990234,0.5351657867431641,-0.1180980280041694
2023-08-01 16:28:03.441644,12,330,0.9711447954177856,0.0025045641232281,0.2196727395057678,-0.0928191691637039,-0.3935546875,0.876953125,0.06982421875,0.7226794362068176,0.8229143619537354,-8.104699418254313e-07,0.6771371364593506,0.6838283538818359,-0.0058458591811358,0.6702240705490112,0.5760686993598938,-0.0214686244726181,0.6546120047569275,0.498249739408493,-0.0401709266006946,0.6468391418457031,0.4382189512252807,-0.0596994906663894,0.8363617658615112,0.5555585622787476,-0.0234669167548418,0.7739294767379761,0.459661453962326,-0.0626112669706344,0.7098270654678345,0.4327643513679504,-0.0898228287696838,0.6579261422157288,0.4266266226768493,-0.1047560796141624,0.8472782969474792,0.5922730565071106,-0.0393461324274539,0.7814825177192688,0.4653986394405365,-0.0804589316248893,0.7036754488945007,0.4454556107521057,-0.1036613807082176,0.6485882997512817,0.4467394351959228,-0.1150025278329849,0.8336431980133057,0.6296630501747131,-0.0570926442742347,0.7431287169456482,0.5257292985916138,-0.0988162457942962,0.6672394871711731,0.5055369138717651,-0.1153681948781013,0.6175774335861206,0.4978568255901336,-0.1198906451463699,0.7979780435562134,0.6626636981964111,-0.0739534348249435,0.7153504490852356,0.581116795539856,-0.1034911274909973,0.6631274819374084,0.5540034174919128,-0.1138887926936149,0.6277867555618286,0.5337921977043152,-0.1167253851890564
2023-08-01 16:28:03.518673,13,331,0.9722945094108582,0.0022298835683614,0.2130017727613449,-0.0962735041975975,-0.36279296875,0.87744140625,0.07861328125,0.7244173884391785,0.8333424925804138,-8.472063086628623e-07,0.6859003305435181,0.6899849772453308,-0.004729407839477,0.6846925616264343,0.5862213373184204,-0.0190560724586248,0.6764092445373535,0.5098276734352112,-0.0362071804702281,0.6727091073989868,0.4529152512550354,-0.0545014552772045,0.8498806357383728,0.5705643892288208,-0.02482595667243,0.7782331705093384,0.4708721041679382,-0.061850119382143,0.7174011468887329,0.4391223192214966,-0.0872664377093315,0.6664820313453674,0.4286635518074035,-0.1010512858629226,0.8608316779136658,0.6091508269309998,-0.0408223159611225,0.783537745475769,0.4835792183876037,-0.0796950757503509,0.7054555416107178,0.4634975492954254,-0.1012679114937782,0.6471778154373169,0.4641766548156738,-0.1123952269554138,0.8460826873779297,0.647506058216095,-0.0582254268229007,0.7482476234436035,0.540241539478302,-0.097712367773056,0.6703665852546692,0.5185608863830566,-0.1117101237177848,0.6178240180015564,0.5110990405082703,-0.1155163943767547,0.8087440133094788,0.6798039674758911,-0.0748967304825782,0.7249258756637573,0.5973242521286011,-0.104619488120079,0.6742557883262634,0.5734925270080566,-0.11401978880167,0.6391705870628357,0.557452380657196,-0.116208329796791
2023-08-01 16:28:03.597805,14,332,0.972422182559967,0.0015071674715727,0.2111401110887527,-0.0990588441491127,-0.3916015625,0.85107421875,0.1357421875,0.7268083095550537,0.8374888896942139,-8.452412316728442e-07,0.6848024129867554,0.6918267607688904,-0.0092630209401249,0.6876266002655029,0.5873900055885315,-0.0238181464374065,0.6860794425010681,0.5127296447753906,-0.0404353812336921,0.684620201587677,0.4556671679019928,-0.0578126683831214,0.8548247218132019,0.5718538165092468,-0.0260470565408468,0.7849701046943665,0.4740613102912903,-0.0656715258955955,0.7229627966880798,0.4416016936302185,-0.0929196402430534,0.6696314811706543,0.4302462339401245,-0.1074460446834564,0.8668216466903687,0.6124038696289062,-0.0399463176727294,0.791892409324646,0.4887319207191467,-0.0829700529575347,0.7112282514572144,0.4692088961601257,-0.1059747412800788,0.6528089046478271,0.469083696603775,-0.1164173483848571,0.852744460105896,0.6528759002685547,-0.0560380890965461,0.7525905966758728,0.5486303567886353,-0.1002405807375907,0.6731439232826233,0.5286774039268494,-0.1160787940025329,0.6220095157623291,0.520088255405426,-0.1189918965101242,0.8156735897064209,0.6885952949523926,-0.0715988278388977,0.7309316992759705,0.6047107577323914,-0.103559099137783,0.6788640022277832,0.5766176581382751,-0.1141338869929313,0.6450591087341309,0.5550573468208313,-0.1160910800099372
2023-08-01 16:28:03.686098,15,333,0.9726101756095886,0.0019566104747354,0.2093181610107422,-0.1010519564151763,-0.4794921875,0.88623046875,0.09814453125,0.726696252822876,0.8428827524185181,-8.601807621744229e-07,0.6890650987625122,0.6993250846862793,-0.0162528250366449,0.6918978691101074,0.592751145362854,-0.0349242053925991,0.6883885860443115,0.5165974497795105,-0.0547238662838935,0.6835758090019226,0.4584290385246277,-0.0750668123364448,0.8586881160736084,0.5763700008392334,-0.0333061255514621,0.7826391458511353,0.4821878373622894,-0.0787587314844131,0.7174776196479797,0.4530557096004486,-0.1091048270463943,0.6624197363853455,0.4450086653232574,-0.1249554827809333,0.8735891580581665,0.6188934445381165,-0.0458485521376132,0.7982155084609985,0.4971693158149719,-0.0951217785477638,0.7146090865135193,0.4817031025886535,-0.1200156956911087,0.6548129916191101,0.4867764711380005,-0.1303661912679672,0.8629819750785828,0.6628544926643372,-0.0615024641156196,0.7625784873962402,0.5610074400901794,-0.1107667684555053,0.6804878115653992,0.5408335328102112,-0.1277942806482315,0.6281942129135132,0.5350052118301392,-0.1305699348449707,0.8295952081680298,0.7030813694000244,-0.0773242115974426,0.7434335947036743,0.6245275735855103,-0.1138453781604766,0.6900107860565186,0.6007199287414551,-0.1264279931783676,0.656313419342041,0.5842002630233765,-0.1291061788797378
2023-08-01 16:28:03.763745,16,334,0.9738208651542664,0.0016919815680012,0.2033561617136001,-0.1015698686242103,-0.48828125,0.88134765625,0.1123046875,0.725220799446106,0.8408452272415161,-8.661962738187867e-07,0.6883550882339478,0.7045703530311584,-0.0187454484403133,0.6915038824081421,0.5970351099967957,-0.0369563214480876,0.689397394657135,0.5201772451400757,-0.055706437677145,0.6859573125839233,0.457950234413147,-0.0748369917273521,0.8601702451705933,0.5785406231880188,-0.0318662077188491,0.7831465601921082,0.4864733815193176,-0.0778589844703674,0.7179404497146606,0.4583035707473755,-0.1092084869742393,0.6646203398704529,0.4496107101440429,-0.1253304630517959,0.8747342824935913,0.6228315830230713,-0.0426694527268409,0.797999918460846,0.5025489330291748,-0.0911261588335037,0.7158408164978027,0.4883869290351867,-0.1153440624475479,0.6588968634605408,0.4933552145957947,-0.124851144850254,0.8631696701049805,0.6675692200660706,-0.0572164207696914,0.7632837891578674,0.5666558146476746,-0.1072503253817558,0.6816976070404053,0.5481104850769043,-0.1240187808871269,0.6312562227249146,0.542616605758667,-0.1255985647439956,0.8288580775260925,0.7084973454475403,-0.0719844326376915,0.7439413070678711,0.6278195381164551,-0.1089478582143783,0.6910507678985596,0.6029491424560547,-0.1212881654500961,0.6582349538803101,0.585332453250885,-0.1230036318302154
2023-08-01 16:28:03.841484,17,335,0.9742893576622008,0.0007994440966285,0.2014108151197433,-0.1009620353579521,-0.4912109375,0.88037109375,0.1142578125,0.7270253896713257,0.8461136221885681,-8.687255785844172e-07,0.693152904510498,0.7112956643104553,-0.0191437285393476,0.6960914134979248,0.607404351234436,-0.0390814840793609,0.6893274188041687,0.5296786427497864,-0.0597725287079811,0.6821341514587402,0.466359794139862,-0.0810262188315391,0.8653669953346252,0.5843857526779175,-0.032695110887289,0.7895988821983337,0.4947890639305115,-0.0789068788290023,0.7240031957626343,0.4668906629085541,-0.1111540868878364,0.6701474189758301,0.4588193297386169,-0.1283991336822509,0.8793346285820007,0.6280937194824219,-0.0435266532003879,0.7993298768997192,0.5144811272621155,-0.0929595381021499,0.7154232859611511,0.4986585080623626,-0.1184406131505966,0.6565078496932983,0.5022895932197571,-0.1292954534292221,0.867622435092926,0.6730519533157349,-0.0580145977437496,0.7672020792961121,0.5735701322555542,-0.1084903106093406,0.6844321489334106,0.5538990497589111,-0.1250012964010238,0.632777750492096,0.5497583150863647,-0.1268007010221481,0.8335860967636108,0.7138345837593079,-0.0728261768817901,0.7487085461616516,0.6334712505340576,-0.1110318675637245,0.6939882636070251,0.609148383140564,-0.1234362125396728,0.6603336930274963,0.5947445034980774,-0.125127762556076
2023-08-01 16:28:03.907781,18,336,0.9752360582351683,0.0002625561028253,0.1970368921756744,-0.1004545912146568,-0.4482421875,0.85400390625,0.154296875,0.726264238357544,0.8450008034706116,-9.293681273447874e-07,0.6917174458503723,0.7094995379447937,-0.0208807736635208,0.7012701034545898,0.6022098064422607,-0.0378823950886726,0.7093579173088074,0.5252393484115601,-0.0549599938094615,0.718567430973053,0.4562345743179321,-0.0717749595642089,0.8648650050163269,0.5837560892105103,-0.0322946421802043,0.7887847423553467,0.4929603934288025,-0.0797756910324096,0.7249351143836975,0.4659446477890014,-0.111446738243103,0.6717945337295532,0.4578053057193756,-0.1270155161619186,0.8793352246284485,0.6285308599472046,-0.0413873866200447,0.7965978980064392,0.516578733921051,-0.0913049727678299,0.7138286828994751,0.4999946653842926,-0.1151465699076652,0.6552130579948425,0.5019718408584595,-0.1238947808742523,0.8683541417121887,0.6738970279693604,-0.0547962598502635,0.7664355635643005,0.5746740698814392,-0.1067251786589622,0.6845594644546509,0.5568814873695374,-0.121850736439228,0.633949875831604,0.5534836649894714,-0.1214008852839469,0.834811806678772,0.71576327085495,-0.0686723366379737,0.7482972741127014,0.6339927315711975,-0.10857505351305,0.6941920518875122,0.6100631952285767,-0.1208815947175026,0.6610260605812073,0.5958911180496216,-0.1212149560451507
2023-08-01 16:28:03.982275,19,337,0.9770433306694032,-0.001705719041638,0.1883593946695327,-0.0995192676782608,-0.4072265625,0.861328125,0.1181640625,0.727676510810852,0.8461501002311707,-8.900001375877764e-07,0.6900368928909302,0.7074026465415955,-0.0206196773797273,0.6948139667510986,0.6033147573471069,-0.0403079390525817,0.6946685910224915,0.5297104716300964,-0.0609607882797718,0.6910030245780945,0.4653677940368652,-0.0819987654685974,0.8672667741775513,0.5857586860656738,-0.0318725109100341,0.7911933660507202,0.4925267696380615,-0.0800837129354476,0.7262160181999207,0.4673013687133789,-0.1134389713406562,0.6731017231941223,0.462294340133667,-0.1305028796195984,0.880955696105957,0.6303959488868713,-0.0423061400651931,0.7974399924278259,0.516200840473175,-0.0947524532675743,0.7121161818504333,0.5040473937988281,-0.1205096021294593,0.6547753214836121,0.5105776786804199,-0.1300585716962814,0.8677915334701538,0.6753687262535095,-0.0569654740393161,0.7668183445930481,0.5733099579811096,-0.1109606325626373,0.68235182762146,0.5571179389953613,-0.1274963468313217,0.6318302154541016,0.5571245551109314,-0.1273537576198578,0.8317830562591553,0.7161715626716614,-0.0719305127859115,0.7473549842834473,0.6308780908584595,-0.1116151362657547,0.6932436227798462,0.6048988103866577,-0.1235661804676055,0.660944402217865,0.5914073586463928,-0.1237819418311119
2023-08-01 16:28:04.050896,20,338,0.977971374988556,-0.0033912151120603,0.1836186945438385,-0.0992202386260032,-0.42529296875,0.87451171875,0.15283203125,0.7282904982566833,0.8447701930999756,-9.154883287010308e-07,0.6906935572624207,0.7074810266494751,-0.0206853803247213,0.6951655745506287,0.6000695824623108,-0.0391184836626052,0.6948009729385376,0.5211043953895569,-0.058240994811058,0.6931970715522766,0.452528178691864,-0.077391467988491,0.8648672103881836,0.5806728601455688,-0.031517956405878,0.7915124297142029,0.4884378015995025,-0.0784353092312812,0.7264647483825684,0.4652087390422821,-0.1100721657276153,0.673851728439331,0.4620174169540405,-0.1261928230524063,0.8790864944458008,0.6258829832077026,-0.0413750149309635,0.7959010601043701,0.5134521126747131,-0.0919205993413925,0.7118628621101379,0.4999233484268188,-0.1165039986371994,0.6555176973342896,0.5044410228729248,-0.1258879750967025,0.8671929836273193,0.6724390387535095,-0.0555283725261688,0.766851544380188,0.5730687975883484,-0.1085454747080802,0.6828896403312683,0.5544539093971252,-0.1250082701444625,0.6321632266044617,0.5518314838409424,-0.1253564208745956,0.8322744965553284,0.7148495316505432,-0.0699793621897697,0.7477550506591797,0.6317261457443237,-0.110333926975727,0.6927143335342407,0.6051911115646362,-0.1233241334557533,0.6588405966758728,0.5905265808105469,-0.1243463605642318
2023-08-01 16:28:04.134168,21,339,0.9792026281356812,-0.0049984729848802,0.1773921847343444,-0.0983318760991096,-0.44580078125,0.86572265625,0.15234375,0.727035641670227,0.8482087254524231,-9.117013632931048e-07,0.6892894506454468,0.7111603021621704,-0.0231748800724744,0.6917621493339539,0.6021947860717773,-0.0436039976775646,0.6883983016014099,0.5200939178466797,-0.0642347335815429,0.6833137273788452,0.4498540163040161,-0.0848832428455352,0.8622409105300903,0.5813859701156616,-0.0365943536162376,0.790213406085968,0.4877461791038513,-0.085464246571064,0.726142406463623,0.4636470079421997,-0.1173220723867416,0.6733577251434326,0.4595198035240173,-0.1333095282316208,0.8763737678527832,0.6260147094726562,-0.0458213165402412,0.7926727533340454,0.5115365386009216,-0.0993897765874862,0.7084813714027405,0.4983858168125152,-0.1245354190468788,0.6515269875526428,0.5039092898368835,-0.1336982250213623,0.8655761480331421,0.6727479100227356,-0.059372778981924,0.7640089392662048,0.5720252394676208,-0.1146043688058853,0.680668830871582,0.5562775135040283,-0.1306795924901962,0.6301360726356506,0.5561956763267517,-0.130242645740509,0.8329399824142456,0.7154931426048279,-0.0734736919403076,0.7468301653862,0.6330124735832214,-0.1161967366933822,0.691211998462677,0.6090707182884216,-0.1296139359474182,0.6572201251983643,0.5962350368499756,-0.1303350925445556
2023-08-01 16:28:04.211827,22,340,0.9806791543960572,-0.0060954065993428,0.1710106283426284,-0.0947972387075424,-0.478515625,0.8671875,0.17138671875,0.7243459224700928,0.852287769317627,-9.364670745526382e-07,0.6858943700790405,0.7141299247741699,-0.0196758173406124,0.6871693134307861,0.6061896085739136,-0.0387995950877666,0.6823938488960266,0.5253238677978516,-0.0588736683130264,0.6763604879379272,0.4558306336402893,-0.0789427086710929,0.8593356013298035,0.5773060321807861,-0.0305486284196376,0.7848620414733887,0.4870385527610779,-0.0780428051948547,0.7193713188171387,0.4642172455787658,-0.1103522777557373,0.6656038761138916,0.461258590221405,-0.1267303079366684,0.8751226663589478,0.6218045353889465,-0.0409605726599693,0.7890965342521667,0.5105273127555847,-0.0911240801215171,0.7057514190673828,0.4996172189712524,-0.1162682697176933,0.6497014760971069,0.5069435834884644,-0.1261413991451263,0.865376889705658,0.6691992878913879,-0.0554853342473506,0.7615919709205627,0.5713945031166077,-0.1072996109724044,0.6790809631347656,0.5570027232170105,-0.1232533231377601,0.628718912601471,0.5579231977462769,-0.1236186623573303,0.8329868316650391,0.7134404182434082,-0.0704627037048339,0.7458027601242065,0.6327423453330994,-0.1103053390979766,0.6899134516716003,0.610680103302002,-0.1225397065281868,0.6550189852714539,0.5998784899711609,-0.1229008510708808
2023-08-01 16:28:04.281107,23,341,0.9820036292076112,-0.0080151110887527,0.1656496673822403,-0.0903588384389877,-0.42822265625,0.86767578125,0.18994140625,0.7249879837036133,0.8551931977272034,-9.142514159066196e-07,0.6868163347244263,0.7145403027534485,-0.0155934635549783,0.6840651631355286,0.6068210601806641,-0.0345268361270427,0.6755701303482056,0.5264657139778137,-0.0557619221508502,0.6652618646621704,0.4603977799415588,-0.0770192742347717,0.8547058701515198,0.5715219974517822,-0.0249160360544919,0.7803515791893005,0.4827783107757568,-0.0714164078235626,0.7156530022621155,0.4599438905715942,-0.1040055304765701,0.6630565524101257,0.4574187397956848,-0.1206599101424217,0.8707123398780823,0.6153073310852051,-0.0376426577568054,0.7830106616020203,0.5104154348373413,-0.0856261625885963,0.7020043730735779,0.5001069903373718,-0.1101997345685958,0.6475114822387695,0.5068899989128113,-0.1200572773814201,0.8620609045028687,0.6627914905548096,-0.0543690510094165,0.7594838738441467,0.5699698328971863,-0.1037507653236389,0.6787626147270203,0.5580182671546936,-0.1181937232613563,0.6284783482551575,0.5605114698410034,-0.1179137527942657,0.8313295245170593,0.7084496021270752,-0.0715107098221778,0.7460024356842041,0.629483699798584,-0.1092536076903343,0.6899895668029785,0.6087267398834229,-0.1194656565785408,0.6530128121376038,0.599057137966156,-0.1185104325413703
2023-08-01 16:28:04.355670,24,342,0.9825628995895386,-0.0099576618522405,0.1648979187011718,-0.0853204280138015,-0.4482421875,0.86328125,0.20068359375,0.7235984206199646,0.8526914119720459,-9.693999345472548e-07,0.6882109045982361,0.7100696563720703,-0.0159450713545084,0.6918020248413086,0.5998800992965698,-0.0325379185378551,0.6953395009040833,0.5199311971664429,-0.0509156845510005,0.7024785280227661,0.4527263045310974,-0.068586029112339,0.855903148651123,0.5716715455055237,-0.0264223292469978,0.7814998626708984,0.4816776812076568,-0.0729544535279274,0.7158586382865906,0.4583735167980194,-0.1030521690845489,0.6626549363136292,0.4570766687393188,-0.1173142194747924,0.8716968894004822,0.6160053610801697,-0.0379093401134014,0.7839586734771729,0.5101889371871948,-0.0862038806080818,0.7009996175765991,0.4992926716804504,-0.1091238483786583,0.6448783874511719,0.50607830286026,-0.1176288276910781,0.8640649318695068,0.6625514626502991,-0.0534917898476123,0.762244462966919,0.5701198577880859,-0.1032905057072639,0.6802241206169128,0.5570860505104065,-0.117148719727993,0.6280943751335144,0.5589447617530823,-0.1165159121155738,0.8343009352684021,0.7070350050926208,-0.0694819390773773,0.7496523857116699,0.6300992369651794,-0.1087957769632339,0.6927154660224915,0.6109715700149536,-0.1201769486069679,0.6545519232749939,0.6021631360054016,-0.1197779104113578
2023-08-01 16:28:04.413929,25,343,0.9827256202697754,-0.0105894766747951,0.1655532121658325,-0.0820386335253715,-0.35693359375,0.87939453125,0.15283203125,0.7242863774299622,0.8500314950942993,-9.83378299679316e-07,0.6829626560211182,0.705563485622406,-0.013098775409162,0.6843246221542358,0.5932238101959229,-0.0284163262695074,0.6883848309516907,0.5132797360420227,-0.0456456467509269,0.6968154907226562,0.4472287893295288,-0.0627113059163093,0.8482765555381775,0.5624684691429138,-0.0232787039130926,0.76520174741745,0.4727019369602203,-0.0673019289970398,0.6994431018829346,0.4478156566619873,-0.0977785214781761,0.6454617977142334,0.4410867094993591,-0.1127874776721,0.8638684749603271,0.603247344493866,-0.0358468182384967,0.7735787630081177,0.4988339841365814,-0.0819995701313018,0.6915185451507568,0.4901909232139587,-0.1078724563121795,0.6354905962944031,0.4983590245246887,-0.1192875802516937,0.8558266162872314,0.6475508809089661,-0.0517195276916027,0.7542830109596252,0.5596733689308167,-0.0997997894883155,0.673377275466919,0.5465185046195984,-0.1178426444530487,0.6216888427734375,0.5461013913154602,-0.1206940710544586,0.8260766267776489,0.6908045411109924,-0.0674578621983528,0.742412269115448,0.6160836815834045,-0.1036819070577621,0.6872960329055786,0.5955824255943298,-0.1157934069633483,0.6496622562408447,0.5833777785301208,-0.1169557496905326
2023-08-01 16:28:04.479121,26,344,0.9829489588737488,-0.0118789700791239,0.1664466112852096,-0.0772386416792869,-0.30615234375,0.8740234375,0.2080078125,0.7195932269096375,0.8444696664810181,-9.356231203128118e-07,0.6818283796310425,0.7001301050186157,-0.0066290600225329,0.6845957040786743,0.5911521911621094,-0.019862288609147,0.6877243518829346,0.5139649510383606,-0.0364364273846149,0.6965420246124268,0.4511920511722564,-0.0527042858302593,0.8429566621780396,0.5652679800987244,-0.0165875032544136,0.7672977447509766,0.476609468460083,-0.0582143515348434,0.7036464214324951,0.4520124495029449,-0.086844764649868,0.6496066451072693,0.4455044865608215,-0.1007987484335899,0.8588809967041016,0.6050117611885071,-0.0315412804484367,0.7747100591659546,0.4991589784622192,-0.0744909346103668,0.696133553981781,0.4846624732017517,-0.0995730608701706,0.640103816986084,0.4871610403060913,-0.1110387071967125,0.8521941304206848,0.6468141078948975,-0.0492331646382808,0.7519351243972778,0.5578770041465759,-0.0945202335715293,0.672598659992218,0.5437686443328857,-0.1119414940476417,0.6202132105827332,0.5412337779998779,-0.1149207577109336,0.8233203887939453,0.686527669429779,-0.0662826672196388,0.740122377872467,0.6124588251113892,-0.1005015969276428,0.6849043965339661,0.5923778414726257,-0.1117304563522338,0.6459226012229919,0.5796836614608765,-0.1125558987259864
2023-08-01 16:28:04.539490,27,345,0.9819867014884948,-0.0133939860388636,0.1732846349477768,-0.0741290599107742,-0.392578125,0.873046875,0.1796875,0.7173779010772705,0.8376643657684326,-9.217507113135072e-07,0.683733344078064,0.6944393515586853,-0.0067924908362329,0.6936503052711487,0.584845781326294,-0.0170323234051466,0.7087234258651733,0.5044034719467163,-0.0299400873482227,0.7292401194572449,0.4403623342514038,-0.0421043783426284,0.8399081230163574,0.5625127553939819,-0.0161779168993234,0.7698794603347778,0.4754489064216614,-0.0547201819717884,0.710627555847168,0.4517256617546081,-0.0795124024152755,0.6591552495956421,0.4455191493034363,-0.091160848736763,0.8552347421646118,0.6018242835998535,-0.0298048052936792,0.7746871709823608,0.4968132376670837,-0.0703387260437011,0.6996017694473267,0.4801082015037536,-0.092644028365612,0.6447271108627319,0.4796523749828338,-0.1026342213153839,0.8491381406784058,0.6433010101318359,-0.0462141148746013,0.7519357204437256,0.5536919236183167,-0.0906919240951538,0.6744095087051392,0.5390480160713196,-0.1070017963647842,0.6226508617401123,0.5360492467880249,-0.1095443964004516,0.820982813835144,0.6827619075775146,-0.0619243681430816,0.7387465238571167,0.6090928316116333,-0.0966706424951553,0.6835258603096008,0.5888246297836304,-0.1083238720893859,0.6437522768974304,0.5766006708145142,-0.1096239686012268
2023-08-01 16:28:04.602874,28,346,0.9812839031219482,-0.0140562839806079,0.1784192770719528,-0.0710695460438728,-0.4091796875,0.88330078125,0.19677734375,0.7147460579872131,0.8371662497520447,-7.610735224261589e-07,0.6707024574279785,0.6952294707298279,-0.0005298805772326,0.6695660352706909,0.5904055237770081,-0.0110023515298962,0.6639124155044556,0.5144646763801575,-0.0261140167713165,0.6621199250221252,0.4551781415939331,-0.0422744825482368,0.8278130888938904,0.5614348649978638,-0.0024998146109282,0.7654456496238708,0.4672142267227173,-0.0366885848343372,0.7116521596908569,0.4292768239974975,-0.0646809488534927,0.6649956107139587,0.4090229272842407,-0.0803727209568023,0.8426142334938049,0.5957391858100891,-0.0196326728910207,0.7720610499382019,0.4843523502349853,-0.0567041859030723,0.6991623640060425,0.4585727155208587,-0.0820177793502807,0.6450886726379395,0.4551936984062195,-0.0945935398340225,0.8344902396202087,0.632259726524353,-0.0392367653548717,0.7405187487602234,0.5390526652336121,-0.0785763636231422,0.665324330329895,0.5231167674064636,-0.0965030416846275,0.6171179413795471,0.5215332508087158,-0.1010873094201088,0.8047443628311157,0.6651636362075806,-0.0581185594201087,0.7198033332824707,0.5915045738220215,-0.0862098634243011,0.6673591732978821,0.5722229480743408,-0.0961498469114303,0.6327188611030579,0.5619202852249146,-0.0977190360426902
2023-08-01 16:28:04.668978,29,347,0.9802812933921814,-0.0137525657191872,0.1848111748695373,-0.0685876756906509,-0.4716796875,0.89892578125,0.16162109375,0.7143077254295349,0.8358137011528015,-7.569695412712463e-07,0.6673482656478882,0.6894257068634033,0.0024665386881679,0.6650669574737549,0.5860272645950317,-0.0076012318022549,0.6596108675003052,0.5122118592262268,-0.0227598957717418,0.6613355875015259,0.4550779461860657,-0.0389346219599247,0.8250650763511658,0.5594409704208374,-0.0042147263884544,0.7580586075782776,0.4685870707035064,-0.0358754210174083,0.7023923397064209,0.4341992735862732,-0.0610276944935321,0.6540287137031555,0.4175357818603515,-0.0753525644540786,0.8390485644340515,0.5917189717292786,-0.0223136097192764,0.7680222988128662,0.4789404273033142,-0.0564989484846591,0.696533203125,0.4474514722824096,-0.0810389816761016,0.6426373720169067,0.4371528327465057,-0.094910092651844,0.8297068476676941,0.6268472075462341,-0.0420866832137107,0.7344357371330261,0.5310744047164917,-0.07980927079916,0.6589794158935547,0.5144069790840149,-0.0979365035891532,0.6088355779647827,0.5116596221923828,-0.1041939258575439,0.7975342869758606,0.6580725908279419,-0.0606630705296993,0.715298056602478,0.5844442844390869,-0.0876842439174652,0.6626341342926025,0.5644914507865906,-0.0976525098085403,0.6269569993019104,0.5520373582839966,-0.1005820780992508
2023-08-01 16:28:04.735319,30,348,0.9797130823135376,-0.0135650616139173,0.1886253952980041,-0.0663231387734413,-0.36376953125,0.875,0.15185546875,0.7128220200538635,0.830328106880188,-6.956514084777154e-07,0.6684828400611877,0.6884870529174805,0.0016884402139112,0.66544109582901,0.5860211849212646,-0.0092989979311823,0.6584925055503845,0.5137665271759033,-0.0254934839904308,0.6589232087135315,0.456814706325531,-0.0426906794309616,0.8230730295181274,0.5598703026771545,-0.0045066429302096,0.7608690857887268,0.470585823059082,-0.0379089191555976,0.7097263932228088,0.4310891926288605,-0.0648339092731475,0.6626328825950623,0.4082507193088531,-0.0804160013794899,0.8368457555770874,0.5925644040107727,-0.0234885104000568,0.7693493962287903,0.4790336489677429,-0.0590939559042453,0.7017418146133423,0.4471201300621032,-0.0842705368995666,0.6487825512886047,0.4350560307502746,-0.0980672463774681,0.8283001184463501,0.6277663707733154,-0.0444097109138965,0.7352810502052307,0.5302196741104126,-0.0829401761293411,0.6615979671478271,0.5137506127357483,-0.1003943532705307,0.6120824813842773,0.509446918964386,-0.1058116778731346,0.796439528465271,0.6595309972763062,-0.0643271952867508,0.7129781246185303,0.5821902751922607,-0.0924825519323349,0.6608309149742126,0.5617492198944092,-0.1020736545324325,0.6260205507278442,0.5490515232086182,-0.1042786464095115
2023-08-01 16:28:04.807943,31,349,0.9798864722251892,-0.0133323967456817,0.188632920384407,-0.0637378543615341,-0.34130859375,0.90966796875,0.10986328125,0.7134451270103455,0.827255129814148,-7.331112215069879e-07,0.664277195930481,0.6825987100601196,0.0048392247408628,0.6637721657752991,0.5795575976371765,-0.0038295013364404,0.6598101854324341,0.5061925649642944,-0.0181682351976633,0.658338189125061,0.4484302997589111,-0.0334803014993667,0.8183361291885376,0.5539486408233643,-0.0030406317673623,0.7560792565345764,0.4636161625385284,-0.0351117216050624,0.6982841491699219,0.4334750771522522,-0.0591012239456176,0.650239109992981,0.4218186736106872,-0.0726076513528823,0.831358015537262,0.5839146375656128,-0.023057721555233,0.765497088432312,0.4670721292495727,-0.0579221583902835,0.6933253407478333,0.4369343519210815,-0.0805348455905914,0.6391856670379639,0.4301643371582031,-0.0924145057797432,0.8206195831298828,0.6175862550735474,-0.0448930487036705,0.7280462980270386,0.5197024345397949,-0.0831086561083793,0.6533134579658508,0.5031195878982544,-0.1002890616655349,0.6056437492370605,0.4992982745170593,-0.1056246757507324,0.78681480884552,0.6484363079071045,-0.0653463825583458,0.7027269005775452,0.5730984807014465,-0.0926514044404029,0.6520382165908813,0.5505443811416626,-0.1031807363033294,0.6197060346603394,0.5357376337051392,-0.1065316200256347
2023-08-01 16:28:04.870190,32,350,0.9798097610473632,-0.0143139921128749,0.1897918581962585,-0.0612127371132373,-0.3974609375,0.8828125,0.185546875,0.7125009894371033,0.8268405199050903,-7.012074547674274e-07,0.6647250056266785,0.6840651035308838,0.0054692476987838,0.6640077233314514,0.5802007913589478,-0.0021083750762045,0.6590666174888611,0.5067201852798462,-0.0152486851438879,0.65894615650177,0.4492369890213012,-0.0290926340967416,0.8176048994064331,0.5531730651855469,-0.0008258324232883,0.7550888061523438,0.4642853140830993,-0.0296634901314973,0.6986822485923767,0.4332451224327087,-0.0514580197632312,0.6511483788490295,0.4202649593353271,-0.0637314990162849,0.8304550647735596,0.5823118090629578,-0.0200467854738235,0.766629159450531,0.4642387926578522,-0.0510122813284397,0.69759601354599,0.4332509636878967,-0.0730806440114975,0.6440427899360657,0.4246031045913696,-0.0852680131793022,0.8203184604644775,0.6152525544166565,-0.0407154001295566,0.7259344458580017,0.516047477722168,-0.0755358636379242,0.6525084972381592,0.4994494616985321,-0.0930161103606224,0.6036635637283325,0.4946845769882202,-0.0993094444274902,0.7863563895225525,0.6448239088058472,-0.0599468238651752,0.7023319602012634,0.5682697296142578,-0.0845204815268516,0.6523883938789368,0.546366274356842,-0.094513863325119,0.618800699710846,0.5309510827064514,-0.098066009581089
2023-08-01 16:28:04.932302,33,351,0.9801459312438964,-0.0152477910742163,0.1888578534126281,-0.0584307238459587,-0.41455078125,0.87744140625,0.20458984375,0.7164024710655212,0.8278337717056274,-7.044292260616203e-07,0.6658584475517273,0.6832387447357178,0.0070813251659274,0.6638962030410767,0.5788810849189758,-0.0002476793597452,0.6599327921867371,0.5043312311172485,-0.0135922897607088,0.6611940264701843,0.4466390907764435,-0.0276024490594863,0.815757155418396,0.5523872971534729,-0.0012850955827161,0.7574647068977356,0.4598374366760254,-0.030488483607769,0.7004153728485107,0.4274516701698303,-0.0516431406140327,0.6520100235939026,0.4152414202690124,-0.0633037462830543,0.8280981183052063,0.581411600112915,-0.021604835987091,0.7672629952430725,0.4590494632720947,-0.0528526976704597,0.6972956657409668,0.4271844327449798,-0.073749765753746,0.6438358426094055,0.4208738505840301,-0.0849753320217132,0.817293107509613,0.614149272441864,-0.043341614305973,0.7263702154159546,0.5128728151321411,-0.0773980990052223,0.6530647873878479,0.4955550134181976,-0.0935031399130821,0.6050347685813904,0.492208331823349,-0.0990943163633346,0.7834736108779907,0.6438008546829224,-0.0636268556118011,0.7022103667259216,0.5660091638565063,-0.0874880626797676,0.6528726816177368,0.5421620607376099,-0.0968781188130378,0.6201615333557129,0.5260998010635376,-0.1001591309905052
2023-08-01 16:28:04.987971,34,352,0.981659173965454,-0.0165774803608655,0.1816859096288681,-0.0553231872618198,-0.3447265625,0.87939453125,0.23193359375,0.7170219421386719,0.8281136751174927,-7.112394087016582e-07,0.6665774583816528,0.6820558905601501,0.0114992577582597,0.6616964340209961,0.5797576904296875,0.0039464686997234,0.6548529863357544,0.5055860280990601,-0.0108797186985611,0.6550769805908203,0.4465723633766174,-0.0262318048626184,0.8099466562271118,0.5487655401229858,0.0010614641942083,0.7545260787010193,0.4568119049072265,-0.0290458910167217,0.6951853036880493,0.4287369847297668,-0.0504085905849933,0.6463823318481445,0.4203371405601501,-0.0622610747814178,0.8227978944778442,0.5766494870185852,-0.0228573158383369,0.7646289467811584,0.4543250799179077,-0.055349726229906,0.6940643787384033,0.4241793751716614,-0.0757523700594902,0.6411241292953491,0.42045658826828,-0.0864994451403617,0.8127691149711609,0.6097940802574158,-0.0480192154645919,0.7228241562843323,0.5104478597640991,-0.0820543318986892,0.6495898962020874,0.4919781684875488,-0.096935287117958,0.6017330884933472,0.4880104064941406,-0.1019801124930381,0.7808505296707153,0.6409170031547546,-0.0715044736862182,0.6998197436332703,0.563668429851532,-0.0947938561439514,0.6498410701751709,0.5391429662704468,-0.1031014397740364,0.6165353655815125,0.5226722359657288,-0.1058128029108047
2023-08-01 16:28:05.048785,35,353,0.9825701117515564,-0.0175475645810365,0.1772700697183609,-0.0531353987753391,-0.35107421875,0.8935546875,0.16015625,0.71378093957901,0.8272162079811096,-7.019204986136174e-07,0.661262571811676,0.6878768801689148,0.0076880976557731,0.6551716327667236,0.5801399350166321,0.0016790413064882,0.6481030583381653,0.5018261075019836,-0.0103132473304867,0.6444469690322876,0.4426906704902649,-0.022630488499999,0.8011500239372253,0.5470753908157349,0.0016781485173851,0.7462137937545776,0.4524732232093811,-0.0267948564141988,0.687747061252594,0.4225289225578308,-0.0481839142739772,0.6388849020004272,0.4117770195007324,-0.0598626285791397,0.8136277794837952,0.5727527737617493,-0.0179225951433181,0.7528051137924194,0.4449362158775329,-0.047209870070219,0.6843295693397522,0.4151525497436523,-0.0669951364398002,0.6317760944366455,0.4085806608200073,-0.0774993300437927,0.8034614324569702,0.6044029593467712,-0.0390760079026222,0.7105603218078613,0.5027908682823181,-0.0704177170991897,0.6388869285583496,0.4857552051544189,-0.0854219645261764,0.590484082698822,0.480492502450943,-0.0904683545231819,0.7709588408470154,0.634104311466217,-0.0589440688490867,0.6912109851837158,0.5554537773132324,-0.0797818154096603,0.6455997824668884,0.5300602316856384,-0.088103674352169,0.6138758063316345,0.5104150176048279,-0.0911313742399215
2023-08-01 16:28:05.107829,36,354,0.984634280204773,-0.0190882757306098,0.1661793291568756,-0.050154011696577,-0.32421875,0.90771484375,0.21337890625,0.7153531312942505,0.8293541669845581,-6.879913598822895e-07,0.6605343818664551,0.6881017088890076,0.0103064831346273,0.6537559032440186,0.5805500149726868,0.0047279214486479,0.6456221342086792,0.5030736327171326,-0.007503577042371,0.6424209475517273,0.4436672925949096,-0.0202290266752243,0.8002150058746338,0.5484901666641235,0.0023230214137583,0.7462021708488464,0.4526506066322326,-0.0257808919996023,0.687455415725708,0.4229210317134857,-0.0467700995504856,0.6394128203392029,0.4144880175590515,-0.0583632960915565,0.8120629787445068,0.5733930468559265,-0.0187829472124576,0.753415048122406,0.4433438777923584,-0.0468606874346733,0.6849585771560669,0.4150347709655761,-0.0653620660305023,0.6332240700721741,0.4128177762031555,-0.0752373486757278,0.8011444211006165,0.6050918102264404,-0.0411879234015941,0.7102351188659668,0.500680685043335,-0.071595013141632,0.6383183002471924,0.4840286672115326,-0.0852371454238891,0.5902227163314819,0.4805255532264709,-0.0896985903382301,0.7675167918205261,0.6351958513259888,-0.0620647333562374,0.6891372203826904,0.5525342226028442,-0.0819580852985382,0.6415956616401672,0.5261216759681702,-0.0889447331428527,0.6082230806350708,0.5067723989486694,-0.0912233144044876
2023-08-01 16:28:05.171757,37,355,0.9860400557518004,-0.0195734351873397,0.1582800596952438,-0.0478470437228679,-0.32373046875,0.8935546875,0.203125,0.7141047716140747,0.8306198120117188,-7.025871013865981e-07,0.6590085625648499,0.6934549808502197,0.0126069523394107,0.6503607034683228,0.5852992534637451,0.0100157866254448,0.6417115926742554,0.5069724917411804,2.459431379975285e-05,0.6357608437538147,0.4448678195476532,-0.0100593175739049,0.7886903285980225,0.5428382158279419,0.0126795666292309,0.7409577965736389,0.451021671295166,-0.0109398495405912,0.686798095703125,0.4209815859794616,-0.0304012615233659,0.6411288380622864,0.4081799685955047,-0.0416729189455509,0.8010467290878296,0.5680586695671082,-0.0081192469224333,0.7394851446151733,0.4482154250144958,-0.0307975802570581,0.6745907068252563,0.4195817112922668,-0.0483057871460914,0.6252631545066833,0.4130657613277435,-0.0589844211935997,0.7926620841026306,0.6004882454872131,-0.0306908246129751,0.7010568976402283,0.5021331310272217,-0.0562616139650344,0.6325069069862366,0.4852570593357086,-0.0692305639386177,0.5856376886367798,0.4814950227737427,-0.0747480168938636,0.7634907960891724,0.6331639289855957,-0.052008144557476,0.6841171383857727,0.5534801483154297,-0.0694906190037727,0.6387090086936951,0.5270143151283264,-0.0767050981521606,0.6067639589309692,0.508510410785675,-0.0798421576619148
2023-08-01 16:28:05.242276,38,356,0.9871876239776612,-0.0202426295727491,0.1519294381141662,-0.0443641729652881,-0.3330078125,0.89892578125,0.21240234375,0.7179376482963562,0.8334013223648071,-6.960490850360657e-07,0.6549965143203735,0.7005307674407959,0.0131241185590624,0.6460224390029907,0.5928360223770142,0.0094880377873778,0.6357306241989136,0.5165416598320007,-0.0014100148109719,0.6283836960792542,0.4572136998176574,-0.0126654803752899,0.789359450340271,0.5482124090194702,0.0099119395017623,0.7349958419799805,0.4543627202510834,-0.0155747812241315,0.676288366317749,0.427869975566864,-0.0366881191730499,0.6284474730491638,0.422375738620758,-0.0488967336714267,0.8028162121772766,0.5704407691955566,-0.0120495902374386,0.741100013256073,0.444896250963211,-0.0370218604803085,0.6724048852920532,0.4207668006420135,-0.054751418530941,0.62080317735672,0.4209612011909485,-0.0645358264446258,0.7942522168159485,0.6018421053886414,-0.0354659184813499,0.7043287754058838,0.5004462003707886,-0.0612916946411132,0.6344153881072998,0.4867171943187713,-0.0724432095885276,0.5873366594314575,0.4844025671482086,-0.0765421241521835,0.7618212699890137,0.6335205435752869,-0.0576459877192974,0.6832528114318848,0.5538721084594727,-0.0744686871767044,0.6352116465568542,0.5305793285369873,-0.0795381590723991,0.6013827323913574,0.5121206045150757,-0.08121258020401
2023-08-01 16:28:05.295875,39,357,0.9890131950378418,-0.0223310906440019,0.1405628323554992,-0.0399546064436435,-0.26953125,0.8974609375,0.28466796875,0.7159166932106018,0.8370856046676636,-7.034379905235255e-07,0.6557483673095703,0.7068081498146057,0.014151245355606,0.6464968919754028,0.5965858101844788,0.011901369318366,0.6355311870574951,0.5191662907600403,0.0019532688893377,0.6272169947624207,0.4588266313076019,-0.0079939533025026,0.7837112545967102,0.5461786389350891,0.0133526772260665,0.734065592288971,0.4515199959278106,-0.0107491631060838,0.6773980855941772,0.4255992770195007,-0.0307565722614526,0.6311420798301697,0.4207301735877991,-0.0422243885695934,0.7973107099533081,0.5675382018089294,-0.0088739562779665,0.7366911172866821,0.4438432455062866,-0.0319925285875797,0.6694118976593018,0.419903039932251,-0.0489819310605526,0.6187073588371277,0.4197216629981994,-0.0585226416587829,0.7900782227516174,0.5986227989196777,-0.0327762253582477,0.7003116011619568,0.4998123049736023,-0.0569915063679218,0.6312189102172852,0.4864744842052459,-0.0682487711310386,0.5841875076293945,0.4851613342761993,-0.072801686823368,0.7598739266395569,0.630922257900238,-0.0555230155587196,0.6805778741836548,0.5513864159584045,-0.0713013485074043,0.6323204040527344,0.5278031826019287,-0.0765856355428695,0.5978879928588867,0.5105048418045044,-0.0786809548735618
2023-08-01 16:28:05.361265,40,358,0.9891159534454346,-0.0229260008782148,0.1402388960123062,-0.0381721332669258,-0.3203125,0.91357421875,0.15576171875,0.718392550945282,0.8387676477432251,-6.883649348310428e-07,0.6542851328849792,0.7052737474441528,0.0143064865842461,0.6411234736442566,0.5972422361373901,0.0115611338987946,0.6254293322563171,0.521336555480957,0.00085647177184,0.6127487421035767,0.4610843062400818,-0.0098755825310945,0.7799808979034424,0.5436153411865234,0.0158119592815637,0.7271147966384888,0.4517264366149902,-0.00803336314857,0.6701512336730957,0.4279471933841705,-0.0296653565019369,0.6228983998298645,0.423719048500061,-0.0425765700638294,0.7942837476730347,0.5637646913528442,-0.0066344370134174,0.7301195859909058,0.4433790445327759,-0.0287740882486104,0.6635494828224182,0.4205833971500397,-0.047077752649784,0.6124996542930603,0.420343816280365,-0.0583555772900581,0.7880204916000366,0.5950182676315308,-0.0308981612324714,0.6970329284667969,0.4982157051563263,-0.0535786151885986,0.628263533115387,0.4834116697311401,-0.0655837580561637,0.579756498336792,0.4809693396091461,-0.071534976363182,0.7581591606140137,0.6286051869392395,-0.0542157478630542,0.6791728734970093,0.5515837669372559,-0.068990059196949,0.6306572556495667,0.5263554453849792,-0.0745035335421562,0.5948213338851929,0.5076829791069031,-0.0773181095719337
2023-08-01 16:28:05.430498,41,359,0.990563988685608,-0.0219267699867486,0.1305696219205856,-0.0354076251387596,-0.31591796875,0.91064453125,0.24951171875,0.7200849056243896,0.8452606797218323,-7.025423656159546e-07,0.651362419128418,0.713996410369873,0.0204520095139741,0.6336807608604431,0.6066759824752808,0.0206322222948074,0.6111915111541748,0.5313472151756287,0.0109949866309762,0.5916690230369568,0.4695213735103607,0.0011119990376755,0.7697499990463257,0.5427281260490417,0.0285255406051874,0.7160428166389465,0.4533253610134125,0.0076552438549697,0.6582731604576111,0.4317722916603088,-0.012976324185729,0.6112309694290161,0.4297071695327759,-0.0254728198051452,0.7842783331871033,0.5598214864730835,0.0031936129089444,0.7171361446380615,0.4417231380939483,-0.0158103965222835,0.6501080393791199,0.4229337573051452,-0.0333864912390708,0.5993708372116089,0.4279446303844452,-0.044320274144411,0.7793471217155457,0.5899497270584106,-0.0241541229188442,0.6870605945587158,0.4977535009384155,-0.0429996885359287,0.6183855533599854,0.4852236211299896,-0.054254874587059,0.5696650743484497,0.4855604469776153,-0.0603714473545551,0.7521204352378845,0.6243050694465637,-0.0504901707172393,0.6723247170448303,0.552111029624939,-0.0622510239481925,0.6238704919815063,0.5279459953308105,-0.0672946721315383,0.5876367688179016,0.5099307894706726,-0.0702999234199523
2023-08-01 16:28:05.521965,42,360,0.9913197159767152,-0.0219873264431953,0.1246391162276268,-0.0355921126902103,-0.34326171875,0.92138671875,0.20458984375,0.7244076132774353,0.8514969348907471,-7.100308039298397e-07,0.6535063982009888,0.724174976348877,0.025999566540122,0.6322872042655945,0.618117094039917,0.0267822723835706,0.6047619581222534,0.5435172319412231,0.0160208940505981,0.5779722929000854,0.4841334223747253,0.0045769470743834,0.7658891081809998,0.5442935228347778,0.0357572436332702,0.705246090888977,0.4561067521572113,0.0162395723164081,0.6473530530929565,0.4365163147449493,-0.004337950143963,0.6010341644287109,0.4372988939285278,-0.0168920010328292,0.7809670567512512,0.5584949254989624,0.0071372846141457,0.7070804238319397,0.4410677552223205,-0.0083929086104035,0.6405377984046936,0.4273820519447326,-0.0245898682624101,0.5904933214187622,0.436723530292511,-0.0353346243500709,0.7761005163192749,0.5872613191604614,-0.0233628414571285,0.6814218759536743,0.4939062297344208,-0.0378145053982734,0.6123819947242737,0.4815525412559509,-0.0467001684010028,0.5623869299888611,0.4832590520381927,-0.0525705069303512,0.7470341920852661,0.6211094856262207,-0.0528575405478477,0.666157066822052,0.551207423210144,-0.0612626001238822,0.6175121068954468,0.5272873044013977,-0.0646948143839836,0.5802193284034729,0.5099886059761047,-0.067396268248558
2023-08-01 16:28:05.608511,43,361,0.992177188396454,-0.0222178939729928,0.1176049038767814,-0.035494789481163,-0.3271484375,0.91748046875,0.18115234375,0.7308971285820007,0.8638168573379517,-7.066259399834962e-07,0.6566449403762817,0.7362716794013977,0.0299631059169769,0.6328009366989136,0.6288754940032959,0.0321741104125976,0.6004496216773987,0.5527885556221008,0.0213871672749519,0.5699701309204102,0.4908625781536102,0.0099543565884232,0.7617735862731934,0.5479769706726074,0.0453057177364826,0.6982845067977905,0.4627880752086639,0.0283138081431388,0.6401920318603516,0.4448745548725128,0.0078005609102547,0.5937414765357971,0.4450749456882477,-0.0053632794879376,0.7773241400718689,0.5580289363861084,0.0142257707193493,0.7018722891807556,0.4415283203125,0.0010962090454995,0.6371853947639465,0.4288542568683624,-0.0155576365068554,0.5882742404937744,0.4389399290084839,-0.0271364357322454,0.7747946977615356,0.5847463607788086,-0.0187319219112396,0.6798166632652283,0.4892279207706451,-0.0304006524384021,0.6126178503036499,0.4793606400489807,-0.0385231897234916,0.5638002753257751,0.4847927391529083,-0.0445937402546405,0.7480661869049072,0.6189039349555969,-0.0507326610386371,0.6633966565132141,0.5489313006401062,-0.0569228306412696,0.6121324300765991,0.5259928703308105,-0.0593264028429985,0.5725302696228027,0.5114952325820923,-0.0618166960775852
2023-08-01 16:28:05.678034,44,362,0.9923779368400574,-0.0224741548299789,0.1158175244927406,-0.0355968736112117,-0.33740234375,0.92041015625,0.21533203125,0.7307094931602478,0.8610153794288635,-6.711948117299471e-07,0.6567746996879578,0.7360547780990601,0.024481838569045,0.6330851316452026,0.6274819374084473,0.025009823963046,0.603166401386261,0.5507612228393555,0.0142753161489963,0.5716121196746826,0.4905364215373993,0.0032658914569765,0.7613340020179749,0.548029899597168,0.0375576466321945,0.6979489922523499,0.4634659588336944,0.0196517445147037,0.6410291790962219,0.4462552666664123,-0.000129646185087,0.5960774421691895,0.445369005203247,-0.0127228619530797,0.7767236828804016,0.5586575269699097,0.0103431856259703,0.6999678611755371,0.4441682696342468,-0.0051373383030295,0.6355708241462708,0.4319729804992676,-0.0217746142297983,0.5864217281341553,0.4397580921649933,-0.032780185341835,0.7736040353775024,0.585490345954895,-0.0187809020280838,0.6780709624290466,0.4924287796020508,-0.0330096781253814,0.6115604639053345,0.4793894290924072,-0.0418604612350463,0.5624797344207764,0.4798837900161743,-0.0477144010365009,0.7462374567985535,0.6201880574226379,-0.0470515824854373,0.6623316407203674,0.554505467414856,-0.0549191832542419,0.6110156774520874,0.5320819616317749,-0.05797054246068,0.570964515209198,0.5161241292953491,-0.0605236142873764
2023-08-01 16:28:05.748963,45,363,0.9925656318664552,-0.0227741803973913,0.1143000200390815,-0.0350733436644077,-0.298828125,0.89892578125,0.279296875,0.7310439944267273,0.8600309491157532,-6.520518809338682e-07,0.6572574377059937,0.7361789345741272,0.0246083904057741,0.6327956914901733,0.6273449063301086,0.0248937029391527,0.6020547151565552,0.5515903830528259,0.0139298047870397,0.5691804885864258,0.492811918258667,0.0027238242328166,0.7617111206054688,0.5470991134643555,0.0372029803693294,0.6978609561920166,0.4645022749900818,0.0193201620131731,0.6418585181236267,0.447603166103363,-0.0003169685951434,0.5972837209701538,0.4465049505233764,-0.012780332006514,0.7771602869033813,0.557662844657898,0.0095488084480166,0.7016234397888184,0.4428196549415588,-0.006156806834042,0.6384345889091492,0.4312840700149536,-0.0223565474152565,0.5898115038871765,0.4396097362041473,-0.032578982412815,0.7739882469177246,0.5850454568862915,-0.0199445430189371,0.678241491317749,0.4932517409324646,-0.0343346036970615,0.6123036742210388,0.4799380004405975,-0.0425629578530788,0.5637385249137878,0.4790513217449188,-0.0476119481027126,0.7459893226623535,0.6203933954238892,-0.0485600270330905,0.6610546708106995,0.5547657608985901,-0.0563263073563575,0.6096555590629578,0.5322326421737671,-0.0587876550853252,0.5699373483657837,0.515659749507904,-0.0606948472559452
2023-08-01 16:28:05.817892,46,364,0.992647111415863,-0.022509766742587,0.1138631552457809,-0.0343535356223583,-0.31982421875,0.9111328125,0.24365234375,0.7301018834114075,0.8615739941596985,-6.798086360504385e-07,0.6567239165306091,0.7369369864463806,0.0241311509162187,0.6313000917434692,0.6288251876831055,0.023993756622076,0.5991731286048889,0.5539952516555786,0.0123097067698836,0.5672565698623657,0.494374543428421,0.0001151140022557,0.7589675188064575,0.5451827049255371,0.0381160452961921,0.6936895251274109,0.4650926887989044,0.0190285593271255,0.6356682777404785,0.4492187798023224,-0.0024246259126812,0.5904157161712646,0.4506362080574035,-0.0163715649396181,0.7756030559539795,0.5560516715049744,0.0098547637462615,0.6994602084159851,0.4448608756065368,-0.007170723285526,0.6343651413917542,0.4334434270858764,-0.0257078558206558,0.5849564075469971,0.4425056576728821,-0.037883423268795,0.7743512392044067,0.584526538848877,-0.0204023197293281,0.6797077655792236,0.4932444393634796,-0.0361138097941875,0.6118887066841125,0.4810137748718261,-0.0459176823496818,0.562367856502533,0.4827685356140136,-0.052169494330883,0.7487841844558716,0.6218178868293762,-0.0498554073274135,0.6647191047668457,0.5569086074829102,-0.0597397089004516,0.6129738092422485,0.5353099703788757,-0.0635124072432518,0.5731037259101868,0.5210659503936768,-0.0661668628454208
2023-08-01 16:28:05.887150,47,365,0.9928088784217834,-0.0222855452448129,0.1128910109400749,-0.0330090783536434,-0.27490234375,0.92041015625,0.18896484375,0.7322972416877747,0.8614073991775513,-6.985177378737717e-07,0.6568673849105835,0.7363576889038086,0.0259118471294641,0.6320724487304688,0.630272388458252,0.0269742514938116,0.6035715937614441,0.554323673248291,0.0160670410841703,0.5760334730148315,0.4936503469944,0.0047811917029321,0.7590116262435913,0.543558657169342,0.0417138151824474,0.6947104930877686,0.4656131863594055,0.0229080580174922,0.637688398361206,0.4489604830741882,0.0012880547437816,0.5912643671035767,0.4486755728721618,-0.0125519260764122,0.7754449844360352,0.5542275309562683,0.0129859959706664,0.6961854100227356,0.4472062587738037,-0.0029008351266384,0.6307366490364075,0.4374539256095886,-0.0208596400916576,0.5809589624404907,0.4473256468772888,-0.0327850580215454,0.774608314037323,0.5815780758857727,-0.0179626159369945,0.67824387550354,0.4930357933044433,-0.0328726284205913,0.6105862855911255,0.4828941822052002,-0.0425569526851177,0.5610116720199585,0.4868251085281372,-0.0487958006560802,0.7503805160522461,0.6180695295333862,-0.048086367547512,0.6644063591957092,0.5550315380096436,-0.0572752356529235,0.6115578413009644,0.535067081451416,-0.0610167644917964,0.5704302191734314,0.5225598216056824,-0.0636060610413551
2023-08-01 16:28:05.948816,48,366,0.9926213026046752,-0.022213065996766,0.1147330328822135,-0.0323409028351306,-0.32080078125,0.92724609375,0.21142578125,0.7321670055389404,0.8592182397842407,-7.035026783341891e-07,0.6564397215843201,0.7356387376785278,0.026385111734271,0.6330060362815857,0.6293653249740601,0.0276735853403806,0.6048524975776672,0.5547492504119873,0.0169430151581764,0.5761361718177795,0.4963914752006531,0.0054728440009057,0.7574668526649475,0.5420774817466736,0.0404267832636833,0.6917296648025513,0.4629149436950683,0.0216438844799995,0.6348124742507935,0.4478769302368164,-0.0001140261956606,0.5895040035247803,0.4491688013076782,-0.013939119875431,0.7741972208023071,0.5523350834846497,0.0117127913981676,0.6942358016967773,0.4438115358352661,-0.004650181159377,0.6295201778411865,0.4367738962173462,-0.0232802908867597,0.5804716348648071,0.4504020512104034,-0.035449456423521,0.7734852433204651,0.5798181295394897,-0.0188134126365184,0.6778243780136108,0.4910812973976135,-0.0333832651376724,0.611305832862854,0.4824458956718445,-0.0433472953736782,0.5627871751785278,0.4882774651050567,-0.049700878560543,0.748969316482544,0.6162437796592712,-0.0483697690069675,0.6621153950691223,0.5527141094207764,-0.0565041154623031,0.6097583770751953,0.5331141948699951,-0.0599931553006172,0.5692620277404785,0.5213973522186279,-0.0625962316989898
2023-08-01 16:28:06.011568,49,367,0.9925495386123656,-0.0229202006012201,0.1155894547700882,-0.0309701338410377,-0.294921875,0.91064453125,0.28857421875,0.7314403653144836,0.8604695796966553,-7.267282171596889e-07,0.6547477841377258,0.7354247570037842,0.0274212248623371,0.6311198472976685,0.6287916898727417,0.0295103024691343,0.603215754032135,0.5543243885040283,0.0194493513554334,0.5742798447608948,0.4961106777191162,0.008730080910027,0.7580701112747192,0.5429592132568359,0.0426676794886589,0.6896872520446777,0.4634484946727752,0.024987569078803,0.6321919560432434,0.4484084546566009,0.0039387405849993,0.5858072638511658,0.4488322138786316,-0.0095358500257134,0.7746055126190186,0.552619457244873,0.0137801868841052,0.6898165345191956,0.4466865956783294,-0.0001535805786261,0.6244668960571289,0.4396043419837951,-0.0171937420964241,0.5747473239898682,0.4522622227668762,-0.0289334822446107,0.7731891870498657,0.5789335370063782,-0.0171031951904296,0.673778235912323,0.4907903671264648,-0.0294631235301494,0.6075677275657654,0.4820324778556824,-0.0379143618047237,0.5590253472328186,0.4870417714118957,-0.0439853146672248,0.7477375268936157,0.6145903468132019,-0.0471935421228408,0.6601645946502686,0.5530545115470886,-0.05443612113595,0.608216404914856,0.5334842205047607,-0.0574123300611972,0.5676897764205933,0.5209654569625854,-0.0598791390657424
2023-08-01 16:28:06.073782,50,368,0.9924509525299072,-0.0246443953365087,0.1164340078830719,-0.0296113546937704,-0.26318359375,0.9111328125,0.2275390625,0.7292684316635132,0.853805661201477,-6.958457561268006e-07,0.6560457348823547,0.733521580696106,0.0227712001651525,0.6316535472869873,0.6269606351852417,0.0218668580055236,0.6012975573539734,0.552627682685852,0.0098565453663468,0.5700637102127075,0.4944721460342407,-0.0027549150399863,0.7560898661613464,0.5373942255973816,0.0344582796096801,0.6886441707611084,0.4605394005775451,0.0135535765439271,0.6297026872634888,0.4487266540527344,-0.0091295856982469,0.5850688815116882,0.4534762799739837,-0.0235045608133077,0.7727397084236145,0.5486212968826294,0.0071598831564188,0.6925799250602722,0.4406806230545044,-0.0114070987328886,0.6271295547485352,0.4354714751243591,-0.0303508006036281,0.5787696838378906,0.4502498507499695,-0.0424951650202274,0.7715666890144348,0.577869713306427,-0.0219681113958358,0.6742024421691895,0.4913744330406189,-0.0385759845376014,0.6072012782096863,0.4851465225219726,-0.048102892935276,0.5594921708106995,0.4913219213485718,-0.0537511184811592,0.7469181418418884,0.6164277791976929,-0.0502806976437568,0.6611132025718689,0.5531740784645081,-0.0600898787379264,0.6094756722450256,0.5348863005638123,-0.06349878013134,0.5699930787086487,0.5232834219932556,-0.0657441988587379
2023-08-01 16:28:06.137093,51,369,0.9919443130493164,-0.0253211744129657,0.1206511184573173,-0.0291306897997856,-0.31787109375,0.9248046875,0.19091796875,0.7311767935752869,0.8570691347122192,-7.165796773733746e-07,0.6536582708358765,0.7348800897598267,0.0259335692971944,0.6297798752784729,0.6275129318237305,0.0272050462663173,0.6010563373565674,0.5517568588256836,0.0167928598821163,0.5703744888305664,0.4943476617336273,0.0057433480396866,0.7567823529243469,0.5398982763290405,0.0390164777636528,0.6889238953590393,0.4587002694606781,0.0214895159006118,0.6316394805908203,0.443671703338623,0.0013149954611435,0.5862129330635071,0.4450122416019439,-0.0114891091361641,0.7733972668647766,0.5503464341163635,0.0110682258382439,0.6896700263023376,0.44241663813591,-0.0029740142636001,0.6231299042701721,0.4354457259178161,-0.0191078577190637,0.5730523467063904,0.449190229177475,-0.0300212111324071,0.7713881731033325,0.5778048038482666,-0.0187227576971054,0.672609269618988,0.4883124828338623,-0.0313769020140171,0.605521023273468,0.4794970750808716,-0.0396125242114067,0.5569503903388977,0.4850359559059143,-0.0453118756413459,0.7443875074386597,0.6140557527542114,-0.0476812981069088,0.6573687791824341,0.5503161549568176,-0.055037721991539,0.6054824590682983,0.5305243730545044,-0.0580058619379997,0.5654610395431519,0.5186091065406799,-0.0603259168565273
2023-08-01 16:28:06.193572,52,370,0.99141526222229,-0.0263418089598417,0.1247906386852264,-0.0287945475429296,-0.30859375,0.91552734375,0.25634765625,0.7248345017433167,0.8478955626487732,-6.901361757627456e-07,0.6489474773406982,0.7240049242973328,0.0303409919142723,0.6277745962142944,0.6185010075569153,0.0337667539715766,0.6023629903793335,0.5441707372665405,0.0248782467097044,0.5776483416557312,0.485609769821167,0.0152030559256672,0.7513740658760071,0.5342357754707336,0.0420256741344928,0.6853676438331604,0.4526922702789306,0.0249450728297233,0.626322329044342,0.4375986456871032,0.0057440944947302,0.5810419917106628,0.4388754963874817,-0.0062627182342112,0.7680726051330566,0.5429873466491699,0.0120634250342845,0.6878049373626709,0.4305891692638397,-0.00381182692945,0.620880126953125,0.4254518449306488,-0.0204147119075059,0.5714346766471863,0.4411685466766357,-0.0304923579096794,0.7664880156517029,0.568751871585846,-0.0191542115062475,0.663449764251709,0.481232613325119,-0.0332821533083915,0.5938881039619446,0.4770731329917907,-0.0419738180935382,0.5448622703552246,0.4840204119682312,-0.0472608767449855,0.7414455413818359,0.6029723882675171,-0.0489621199667453,0.6513715982437134,0.540617048740387,-0.0560444220900535,0.5976037979125977,0.5242717266082764,-0.0585397481918334,0.5572157502174377,0.5132929682731628,-0.0605134926736354
