Timestamp,Index,Frame ID,w,x,y,z,ax,ay,az,x_0,y_0,z_0,x_1,y_1,z_1,x_2,y_2,z_2,x_3,y_3,z_3,x_4,y_4,z_4,x_5,y_5,z_5,x_6,y_6,z_6,x_7,y_7,z_7,x_8,y_8,z_8,x_9,y_9,z_9,x_10,y_10,z_10,x_11,y_11,z_11,x_12,y_12,z_12,x_13,y_13,z_13,x_14,y_14,z_14,x_15,y_15,z_15,x_16,y_16,z_16,x_17,y_17,z_17,x_18,y_18,z_18,x_19,y_19,z_19,x_20,y_20,z_20
2023-08-01 15:56:01.556397,0,517,0.6923646330833435,0.5959362983703613,-0.1292296797037124,0.3857339918613434,-0.10498046875,0.91064453125,0.37548828125,0.5120862126350403,0.7430781126022339,4.4004323740409756e-07,0.4512437880039215,0.6811209321022034,-0.0199317075312137,0.4072839319705963,0.5856825113296509,-0.0280661769211292,0.3780441284179687,0.5190279483795166,-0.0364315509796142,0.3445921242237091,0.4738195836544037,-0.0451209656894207,0.4882263839244842,0.4334419369697571,-0.0026558393146842,0.4859621226787567,0.331787109375,-0.0158094298094511,0.4848520159721374,0.2675873339176178,-0.0316334627568721,0.4863517880439758,0.2114061117172241,-0.0451113991439342,0.5370557904243469,0.4307361543178558,-0.0105483252555131,0.5568952560424805,0.3147158026695251,-0.0181689672172069,0.5690323114395142,0.242011621594429,-0.0307835526764392,0.5784103274345398,0.1821725964546203,-0.0422297082841396,0.5786867141723633,0.4546359181404114,-0.0235198698937892,0.6126886606216431,0.3566293120384216,-0.0353775545954704,0.6310750842094421,0.292002260684967,-0.048623438924551,0.6437461376190186,0.2335698306560516,-0.0602408610284328,0.6112359762191772,0.4987189471721649,-0.0394513271749019,0.6550460457801819,0.4352011084556579,-0.0517591126263141,0.6832593083381653,0.3902715742588043,-0.0583928972482681,0.7074532508850098,0.3456000089645386,-0.0644583851099014
2023-08-01 15:56:01.616405,1,518,0.6938837766647339,0.5922523736953735,-0.1302169412374496,0.3883373737335205,0.15380859375,0.9091796875,0.29638671875,0.5134658217430115,0.7417454719543457,4.40269047885522e-07,0.4510559141635895,0.6794514060020447,-0.0197968799620866,0.4063444137573242,0.5853515863418579,-0.0284042377024889,0.3769195675849914,0.5189313292503357,-0.0372572056949138,0.3445931077003479,0.471894234418869,-0.0463320277631282,0.4883831739425659,0.4321796298027038,-0.003051342908293,0.4867030680179596,0.3303906917572021,-0.0161172561347484,0.4860199987888336,0.2670023441314697,-0.0319058150053024,0.4882282018661499,0.2109635472297668,-0.0454704016447067,0.5366700291633606,0.429723858833313,-0.0111650172621011,0.5556459426879883,0.314240038394928,-0.0190677177160978,0.5676488876342773,0.2416410446166992,-0.0319821909070014,0.5773534178733826,0.1813722848892212,-0.0437799505889415,0.5776805877685547,0.4536845684051513,-0.0243089348077774,0.6113865971565247,0.3550199270248413,-0.0366983152925968,0.6300051808357239,0.2916922271251678,-0.0501851588487625,0.6432398557662964,0.23398457467556,-0.0619939416646957,0.6099858283996582,0.4975006878376007,-0.0403599962592124,0.6538284420967102,0.4336067736148834,-0.0535441786050796,0.6822940111160278,0.3888151049613952,-0.0607807002961635,0.7071460485458374,0.3439275026321411,-0.0672173425555229
2023-08-01 15:56:01.674924,2,519,0.6941847205162048,0.59139484167099,-0.1312145590782165,0.3887704014778137,-0.1640625,0.9296875,0.48779296875,0.5126773715019226,0.7392730712890625,4.220434561830189e-07,0.4502768516540527,0.6780304908752441,-0.0193528681993484,0.4047971367835998,0.5839861631393433,-0.0279335565865039,0.3747446537017822,0.5175979137420654,-0.0367751568555831,0.3418760299682617,0.4718623459339142,-0.0461837649345397,0.4874308407306671,0.4341568052768707,-0.0044862790964543,0.4850212633609772,0.3320800065994262,-0.0181606449186801,0.4839484691619873,0.2682654857635498,-0.0343327522277832,0.4858425855636596,0.2118503451347351,-0.0482167676091194,0.5350680947303772,0.4307750463485718,-0.0130585171282291,0.5527036190032959,0.3141754865646362,-0.0221371185034513,0.5634183883666992,0.2404737770557403,-0.0360308550298213,0.5719283223152161,0.178796499967575,-0.0485326573252677,0.5758535265922546,0.4535583257675171,-0.0264348965138196,0.6087498664855957,0.3531250953674316,-0.0399921908974647,0.6272250413894653,0.2875294685363769,-0.0546615086495876,0.6404427289962769,0.2278849184513092,-0.0673108249902725,0.6078751683235168,0.4961566030979156,-0.042522870004177,0.6506535410881042,0.4308666586875915,-0.0569120422005653,0.6787912845611572,0.3847206830978393,-0.0650154799222946,0.7032473683357239,0.33880215883255,-0.0721350237727165
2023-08-01 15:56:01.722735,3,520,0.6911327838897705,0.5920615196228027,-0.1245270743966102,0.3953372836112976,-0.11279296875,0.921875,0.35205078125,0.5114718079566956,0.7376728057861328,4.082769464730518e-07,0.4488417506217956,0.6751380562782288,-0.019992358982563,0.4036966860294342,0.581398606300354,-0.0298493411391973,0.3741741180419922,0.5138386487960815,-0.0400366634130477,0.343156099319458,0.4659609198570251,-0.0506411530077457,0.4875542521476745,0.4339043498039245,-0.005735183134675,0.4847310185432434,0.3322291672229767,-0.020721448585391,0.4828298687934875,0.2689796090126037,-0.0379491783678531,0.4840993285179138,0.2116825580596923,-0.0526159889996051,0.5344396233558655,0.4297719895839691,-0.014941906556487,0.5497614145278931,0.3125210404396057,-0.0259668957442045,0.5584794282913208,0.236884132027626,-0.0410245060920715,0.565176248550415,0.1726775765419006,-0.0542314574122428,0.5743482112884521,0.4518749415874481,-0.0289679132401943,0.6066550612449646,0.3508093357086181,-0.0436066798865795,0.6235449314117432,0.2836103141307831,-0.0581913106143474,0.6346648335456848,0.2218470573425293,-0.0706799402832984,0.6057132482528687,0.4939783215522766,-0.0458376519382,0.6477782130241394,0.425923615694046,-0.0606138743460178,0.6740473508834839,0.3758682012557983,-0.0686160624027252,0.6959862112998962,0.3252734243869781,-0.0756761133670806
2023-08-01 15:56:01.770091,4,521,0.6875720024108887,0.5960615873336792,-0.1297247558832168,0.3938613533973694,0.00390625,0.9443359375,0.3564453125,0.5131714344024658,0.7386928200721741,3.588994275105506e-07,0.4519320726394653,0.6753097772598267,-0.0207208357751369,0.40675950050354,0.5820605754852295,-0.0311537142843008,0.3761600852012634,0.5151390433311462,-0.0421405620872974,0.345890462398529,0.4639551639556885,-0.0535789653658866,0.4884077906608581,0.438446581363678,-0.0046756830997765,0.4839594066143036,0.3386650085449219,-0.0221616476774215,0.4808107614517212,0.2754685878753662,-0.041745875030756,0.4805372357368469,0.2182738780975341,-0.0576287992298603,0.5341055393218994,0.4325878322124481,-0.0134872049093246,0.5471423864364624,0.31624436378479,-0.0265084858983755,0.5542715191841125,0.2406298965215683,-0.0431738123297691,0.5590739846229553,0.1766386330127716,-0.0572042502462863,0.5729885101318359,0.4518357217311859,-0.0274308640509843,0.6033390760421753,0.3534958362579345,-0.0425744354724884,0.6178615093231201,0.2857593894004822,-0.0573446452617645,0.6261204481124878,0.2244705855846405,-0.0697079896926879,0.603788435459137,0.4910591840744018,-0.0444168411195278,0.6427257061004639,0.4234567284584045,-0.0580857880413532,0.6654737591743469,0.3728232085704803,-0.0652405321598053,0.6827669739723206,0.322782814502716,-0.0717708468437194
2023-08-01 15:56:01.816511,5,522,0.6843846440315247,0.5982671976089478,-0.1272951662540435,0.3968500196933746,-0.05859375,0.93017578125,0.3486328125,0.5117461085319519,0.7447834014892578,-7.715610905734138e-08,0.4539198279380798,0.6758365631103516,-0.0084862112998962,0.413369357585907,0.5770053863525391,-0.0101579455658793,0.3895185589790344,0.5058298110961914,-0.0158838834613561,0.3657441735267639,0.449944794178009,-0.0214702431112527,0.4967040419578552,0.4528300762176513,0.0255857910960912,0.4944441020488739,0.3713172972202301,0.013918905518949,0.4834338128566742,0.3229956030845642,-0.0053154369816184,0.4687376916408539,0.2767648696899414,-0.0213994681835174,0.5366197228431702,0.4464417397975921,0.0143002476543188,0.5447969436645508,0.3479771614074707,0.0062680239789187,0.5376690626144409,0.2843156158924103,-0.010147956199944,0.5250152349472046,0.2291827201843261,-0.0247287526726722,0.5712063908576965,0.4601268470287323,-0.0026463340036571,0.5885501503944397,0.3688976764678955,-0.0120907891541719,0.581734836101532,0.3091118931770324,-0.02382418140769,0.5662856101989746,0.2575653195381164,-0.0340770110487937,0.6020815372467041,0.4911142587661743,-0.022483330219984,0.6212589740753174,0.4172438085079193,-0.0315177142620086,0.616261899471283,0.3630508780479431,-0.0374026857316494,0.6005042791366577,0.31468665599823,-0.0430026277899742
2023-08-01 15:56:01.869006,6,523,0.6784486174583435,0.6028134822845459,-0.1323842853307724,0.3984943926334381,0.0615234375,0.92041015625,0.33837890625,0.5093829035758972,0.7376088500022888,-6.304659905254084e-08,0.4531623125076294,0.669477105140686,-0.0085216909646987,0.4144219160079956,0.5724591016769409,-0.0119800632819533,0.3914055824279785,0.5002303123474121,-0.0188720729202032,0.3669107556343078,0.4442561268806457,-0.0255963876843452,0.5000964999198914,0.4534520804882049,0.0194698274135589,0.4948345124721527,0.3749838471412658,0.008083738386631,0.4817291796207428,0.3306114673614502,-0.0101577946916222,0.4650260210037231,0.288304328918457,-0.0255313981324434,0.5396822094917297,0.4481067061424255,0.0088702291250228,0.5479887127876282,0.3520911335945129,0.0012142573250457,0.538779616355896,0.2948001623153686,-0.0136046456173062,0.521806001663208,0.2464921176433563,-0.0269377082586288,0.5734720826148987,0.4633540213108063,-0.0066887037828564,0.5922986268997192,0.3727923631668091,-0.0155990896746516,0.5850561261177063,0.3175534605979919,-0.0264904256910085,0.5663160681724548,0.2711989283561706,-0.0363862514495849,0.6025106906890869,0.4962372183799743,-0.0247619245201349,0.6246465444564819,0.4248861670494079,-0.0339502245187759,0.6197298169136047,0.3752973079681396,-0.0399675816297531,0.6014715433120728,0.3319992423057556,-0.0456735007464885
2023-08-01 15:56:01.924917,7,524,0.6761566400527954,0.6043891906738281,-0.1326517611742019,0.3999118506908417,-0.0634765625,0.93408203125,0.3486328125,0.5089144110679626,0.7293123602867126,-1.2584094122303213e-07,0.4534641206264496,0.6641197800636292,-0.0068574557080864,0.4152015745639801,0.5714372396469116,-0.0087769562378525,0.394375741481781,0.5008217692375183,-0.014821090735495,0.3729243278503418,0.4437671601772308,-0.0203230809420347,0.5000241994857788,0.4596332907676697,0.0251597706228494,0.4982582330703735,0.382919043302536,0.0131566319614648,0.4849786460399627,0.3423014283180237,-0.0057606231421232,0.4661259651184082,0.3073415756225586,-0.0205161906778812,0.5378738045692444,0.4531925916671753,0.0151085453107953,0.546022891998291,0.3589686453342438,0.0075633395463228,0.5367637872695923,0.3064739108085632,-0.0072619440034031,0.5178821086883545,0.2686918377876282,-0.0197412073612213,0.5717545747756958,0.4651519656181335,-0.000241515765083,0.5876140594482422,0.3757691979408264,-0.0081080682575702,0.5776941776275635,0.3238700628280639,-0.0184206254780292,0.5550334453582764,0.2855961918830871,-0.0272126551717519,0.6026948690414429,0.4945507049560547,-0.0181380361318588,0.6215675473213196,0.4265976548194885,-0.0260365735739469,0.614359974861145,0.3805918097496032,-0.0318032912909984,0.5929890275001526,0.3441749215126037,-0.0368039384484291
2023-08-01 15:56:01.973710,8,525,0.6730899214744568,0.6072564125061035,-0.1368950307369232,0.39931121468544,0.091796875,0.95166015625,0.3515625,0.5097426772117615,0.7269561290740967,-1.730484484596673e-07,0.4533687233924866,0.6626360416412354,-0.0062536518089473,0.4149540662765503,0.5727719664573669,-0.0075106937438249,0.3948302865028381,0.5031471252441406,-0.0131214568391442,0.3763090968132019,0.4454842209815979,-0.0172284841537475,0.499887079000473,0.4659598171710968,0.0292372331023216,0.4975739121437073,0.387972354888916,0.014561085961759,0.4805450439453125,0.3531743884086609,-0.0058246157132089,0.4578997492790222,0.3318276405334472,-0.0192070063203573,0.5353192687034607,0.4583321809768677,0.0206355452537536,0.5416810512542725,0.3656230568885803,0.01152556668967,0.5302155017852783,0.319378912448883,-0.0033662191126495,0.5081997513771057,0.2983693480491638,-0.0136911887675523,0.5687649250030518,0.4677789211273193,0.006270358338952,0.5799484252929688,0.3789562880992889,-0.0018509463407099,0.5678722858428955,0.3326320648193359,-0.0105794398114085,0.5436340570449829,0.3102176487445831,-0.0159810427576303,0.6022181510925293,0.4928610622882843,-0.0107222646474838,0.6191560626029968,0.4233514964580536,-0.0178435947746038,0.6096057891845703,0.3792282044887543,-0.0226375237107276,0.5857319235801697,0.3523394465446472,-0.0251626223325729
2023-08-01 15:56:02.024629,9,526,0.6733192801475525,0.6055818200111389,-0.1360034346580505,0.4017647206783294,-0.068359375,0.91357421875,0.400390625,0.5064783692359924,0.7229069471359253,-1.5026365929315946e-07,0.4534343779087066,0.6602494120597839,-0.0070437924005091,0.4148814678192138,0.5696898698806763,-0.0083253178745508,0.3946605324745178,0.5006929636001587,-0.0136938579380512,0.3779749870300293,0.4429337680339813,-0.0167224425822496,0.4992159903049469,0.4630390703678131,0.0283573511987924,0.4973620176315307,0.3861459791660309,0.011746578849852,0.4803115129470825,0.3546827733516693,-0.0090850470587611,0.4572259783744812,0.3440558612346649,-0.0211461801081895,0.5348573923110962,0.4556367993354797,0.0207582563161849,0.5444851517677307,0.365858256816864,0.0112011469900608,0.5329868793487549,0.3226639330387115,-0.0015730032464489,0.5099591612815857,0.3146678209304809,-0.0089458907023072,0.5680311918258667,0.4664607644081116,0.0070850956253707,0.5819982886314392,0.3816401958465576,-0.001073412480764,0.5696645379066467,0.3397513031959533,-0.0064655626192688,0.545132577419281,0.3297528028488159,-0.008175023831427,0.6003963351249695,0.4934292435646057,-0.0094009963795542,0.618462085723877,0.4269610047340393,-0.0165996626019477,0.6084080338478088,0.3843401968479156,-0.0198121443390846,0.584398627281189,0.3637410402297973,-0.0198061559349298
2023-08-01 15:56:02.081715,10,527,0.6717591285705566,0.6081889271736145,-0.141425609588623,0.398553192615509,-0.0654296875,0.9375,0.3349609375,0.5074341893196106,0.7184861302375793,-2.973123116589705e-07,0.450113296508789,0.6535338163375854,-0.0086008049547672,0.413858026266098,0.5684706568717957,-0.0097158662974834,0.397822618484497,0.4937322735786438,-0.0166561659425497,0.3934141397476196,0.4286942481994629,-0.0201536584645509,0.4938644766807556,0.4772526919841766,0.0405014045536518,0.491791695356369,0.403063952922821,0.0222053807228803,0.4754873216152191,0.3928648233413696,-0.0005935632507316,0.4615803062915802,0.4129980802536011,-0.0123596582561731,0.5266759991645813,0.4670377075672149,0.0339107625186443,0.5322252511978149,0.3702391982078552,0.0202620401978492,0.5148383378982544,0.3517477512359619,0.0009384799050167,0.4949541985988617,0.380877673625946,-0.008527367375791,0.5595431327819824,0.4721227586269378,0.0204612109810113,0.5722843408584595,0.3809795081615448,0.0108853373676538,0.5518863797187805,0.3561365604400635,0.0004567169817164,0.5276972055435181,0.3770509362220764,-0.0029075229540467,0.5945106744766235,0.4915279746055603,0.0039712321013212,0.607943594455719,0.419424295425415,-0.0015503652393817,0.5881072878837585,0.3897765576839447,-0.005554181523621,0.5591757893562317,0.398768275976181,-0.0054990677163004
2023-08-01 15:56:02.141329,11,528,0.6703439354896545,0.6102034449577332,-0.1432356685400009,0.3972079753875732,0.05419921875,0.9189453125,0.32080078125,0.5092653632164001,0.7064785361289978,-2.943511958619638e-07,0.4489746689796448,0.647989809513092,-0.0128225786611437,0.4116885662078857,0.5644110441207886,-0.0166763365268707,0.3993917107582092,0.4862450063228607,-0.0256525110453367,0.4051239490509033,0.4248413443565368,-0.0308628547936677,0.4852359294891357,0.4736372530460357,0.031926404684782,0.4869439601898193,0.4014986753463745,0.0090441200882196,0.4735870957374573,0.4011885225772857,-0.0138732017949223,0.4661913514137268,0.4353715777397156,-0.0248962361365556,0.5201267004013062,0.4621054828166961,0.0267027840018272,0.52796471118927,0.3629857301712036,0.0057148728519678,0.5117558240890503,0.3624006509780884,-0.0129780741408467,0.5000907778739929,0.4082268178462982,-0.0193373057991266,0.5543134808540344,0.4659190475940704,0.0145733123645186,0.5680720806121826,0.3713554143905639,-0.0019498876063153,0.5470835566520691,0.3683146834373474,-0.0107400752604007,0.5309139490127563,0.4086353778839111,-0.0103703523054718,0.5909523963928223,0.4860004782676697,-0.0005429591983556,0.6029273867607117,0.4124083817005157,-0.0095208398997783,0.5820160508155823,0.3949516713619232,-0.012581268325448,0.5592219233512878,0.4166370034217834,-0.0106160696595907
2023-08-01 15:56:02.189114,12,529,0.6697234511375427,0.6110114455223083,-0.1463391929864883,0.3958792984485626,0.0322265625,0.92041015625,0.31494140625,0.5135921835899353,0.7061252593994141,-3.417124503357627e-07,0.4495960474014282,0.6506882309913635,-0.015419727191329,0.4122318625450134,0.5660883188247681,-0.0195629764348268,0.4054651260375976,0.4830566346645355,-0.0285236965864896,0.4211098253726959,0.4211504161357879,-0.0332834348082542,0.4851357936859131,0.4717828929424286,0.030486861243844,0.4912371337413788,0.3936683535575866,0.0079429941251873,0.4786860346794128,0.397465169429779,-0.0140159204602241,0.4736028909683227,0.4347799718379974,-0.0246471427381038,0.5192341804504395,0.4642335176467895,0.0261991806328296,0.5311482548713684,0.3672056794166565,0.0041788769885897,0.5127736926078796,0.3777742385864258,-0.0141759114339947,0.5028145909309387,0.4277942478656769,-0.0200269538909196,0.5525976419448853,0.4694148898124695,0.0148735381662845,0.5690955519676208,0.377116322517395,-0.0028606508858501,0.5477412939071655,0.382230132818222,-0.0110290311276912,0.5360145568847656,0.4276472330093384,-0.0101059740409255,0.58875572681427,0.4884194731712341,0.0002961971331387,0.6003103256225586,0.4126535952091217,-0.010587764903903,0.5792375206947327,0.402880311012268,-0.0133316377177834,0.5610109567642212,0.4340421855449676,-0.010738437063992
2023-08-01 15:56:02.248855,13,530,0.6685818433761597,0.6119984984397888,-0.1492320150136947,0.3952035903930664,0.05322265625,0.95654296875,0.3603515625,0.5139995217323303,0.7083312273025513,-3.489895732400328e-07,0.4491003453731537,0.6468451619148254,-0.0129554886370897,0.4128090739250183,0.5646647214889526,-0.0155913596972823,0.4104431271553039,0.4790994524955749,-0.0238311421126127,0.4317843317985534,0.4194886684417724,-0.0281650926917791,0.4837009310722351,0.4762344360351562,0.0395301505923271,0.4923509657382965,0.4009105861186981,0.019636332988739,0.4814843237400055,0.4104915857315063,-0.0017923638224601,0.4787274599075317,0.4474919140338897,-0.013049466535449,0.5172863006591797,0.468767762184143,0.0348715372383594,0.5321769714355469,0.37521493434906,0.0140880169346928,0.5149180889129639,0.3933472335338592,-0.0050616832450032,0.5065980553627014,0.4421091675758362,-0.0120560815557837,0.5501914024353027,0.4736837446689605,0.023018728941679,0.5695124864578247,0.381239116191864,0.0056493720039725,0.5487081408500671,0.3927479088306427,-0.0035530980676412,0.5377822518348694,0.4393603801727295,-0.0037126971874386,0.5861409902572632,0.4924948215484619,0.0081683043390512,0.59849613904953,0.4162733554840088,-0.0018033980159088,0.5774844288825989,0.4129373431205749,-0.0045864740386605,0.5602172613143921,0.4465900659561157,-0.0027532239910215
2023-08-01 15:56:02.295976,14,531,0.6679083108901978,0.612795352935791,-0.1517768949270248,0.3941372632980346,0.08154296875,0.9150390625,0.38818359375,0.5197327733039856,0.7038547992706299,-3.896617783993861e-07,0.4516494870185852,0.6434656977653503,-0.0137669164687395,0.4156873524188995,0.5606279373168945,-0.0177134051918983,0.4199036061763763,0.4764520227909088,-0.027378361672163,0.4511353671550751,0.4221054315567016,-0.0332255251705646,0.4825089573860168,0.4821991622447967,0.0348811894655227,0.4873731434345245,0.4082828462123871,0.0134754329919815,0.469043880701065,0.4287589192390442,-0.007161496207118,0.4641536176204681,0.4722481071949005,-0.0173791032284498,0.5154803991317749,0.4726042747497558,0.0299651026725769,0.5292291045188904,0.3769703805446625,0.0070683979429304,0.5068921446800232,0.4031142294406891,-0.0100052440539002,0.5002892017364502,0.4553990662097931,-0.014266662299633,0.5491148233413696,0.4762291014194488,0.0180479194968938,0.5659128427505493,0.3798699975013733,-0.0021291037555783,0.5429985523223877,0.4022282063961029,-0.0085485121235251,0.5364674925804138,0.4541781544685364,-0.005447459872812,0.585543155670166,0.4928129315376282,0.0032968714367598,0.5957255363464355,0.4142749309539795,-0.0078942524269223,0.5729631185531616,0.4203062057495117,-0.0080904895439744,0.5593756437301636,0.4602733552455902,-0.0036408400628715
2023-08-01 15:56:02.342247,15,532,0.6677778363227844,0.6129594445228577,-0.1530479043722152,0.3936112821102142,-0.0068359375,0.92919921875,0.341796875,0.520726203918457,0.7144957780838013,-5.597899530584982e-07,0.4553201794624328,0.6454182863235474,-0.0041484655812382,0.4232410192489624,0.5560781359672546,-0.0071782805025577,0.4423981308937073,0.4852302372455597,-0.01845034211874,0.4898808300495147,0.4591969847679138,-0.0275290478020906,0.480551928281784,0.5000128746032715,0.0306548997759819,0.4805777370929718,0.4148766100406647,0.0059532038867473,0.4644796848297119,0.4632809162139892,-0.0127483075484633,0.465053379535675,0.5128106474876404,-0.0211746729910373,0.511589527130127,0.4962963759899139,0.020320126786828,0.5162150859832764,0.3978309035301208,-0.008532689884305,0.4968489706516266,0.4568214416503906,-0.0226653143763542,0.4974380433559418,0.5129782557487488,-0.0222672745585441,0.546051025390625,0.4978460371494293,0.004712585825473,0.5491710305213928,0.3936028778553009,-0.0200852453708648,0.5309493541717529,0.4536961019039154,-0.0173790119588375,0.5326126217842102,0.5157576203346252,-0.0051903175190091,0.583046555519104,0.5106223225593567,-0.012635682709515,0.5754745602607727,0.4282698035240173,-0.0245504826307296,0.5585830807685852,0.461175799369812,-0.0168803203850984,0.5583615899085999,0.5096770524978638,-0.0054739555343985
2023-08-01 15:56:02.390424,16,533,0.6672495603561401,0.6132064461708069,-0.1540267318487167,0.393740713596344,-0.0068359375,0.9306640625,0.369140625,0.5222794413566589,0.7116124629974365,-5.388869794842321e-07,0.4577022492885589,0.6473208665847778,-0.0034794032108038,0.4229615330696106,0.5602559447288513,-0.0064710844308137,0.4409798383712768,0.4847854971885681,-0.0171301141381263,0.4929471313953399,0.4687930047512054,-0.0258855614811182,0.4785405099391937,0.5087260007858276,0.0297463778406381,0.4720882773399353,0.42654949426651,0.0060080126859247,0.4584212005138397,0.4737603068351745,-0.0125691201537847,0.4618829190731048,0.5220611691474915,-0.02120909281075,0.5109806060791016,0.5044128894805908,0.0198233984410762,0.5089549422264099,0.4077843725681305,-0.0073108267970383,0.4921880960464477,0.4644079804420471,-0.0213015284389257,0.4958282113075256,0.5183130502700806,-0.0214059837162494,0.5466228723526001,0.5045314431190491,0.0049958024173974,0.5451191663742065,0.401006132364273,-0.0191955901682376,0.5275312662124634,0.4599395990371704,-0.0171843152493238,0.5306238532066345,0.5203841924667358,-0.0058248229324817,0.5855776071548462,0.5159291625022888,-0.0113014383241534,0.571125864982605,0.4373530447483063,-0.0231587402522563,0.553857147693634,0.4730562269687652,-0.016056440770626,0.5558176040649414,0.5207315683364868,-0.0053906799294054
2023-08-01 15:56:02.436636,17,534,0.6663888692855835,0.6138702034950256,-0.1559239625930786,0.3934171497821808,0.06396484375,0.927734375,0.345703125,0.522250235080719,0.7120680809020996,-5.640428639708261e-07,0.457508772611618,0.6475062966346741,-0.0029598684050142,0.4237247109413147,0.5576813817024231,-0.0044488497078418,0.4435436129570007,0.485357403755188,-0.013302344828844,0.4944242835044861,0.4770309925079345,-0.0200518183410167,0.4805903434753418,0.5115972757339478,0.0290102884173393,0.4753026664257049,0.4305418729782104,0.004681191407144,0.459275871515274,0.4809269607067108,-0.0123374694958329,0.4634400308132171,0.5259875059127808,-0.0198422726243734,0.5123681426048279,0.5084933042526245,0.0192849952727556,0.5099443197250366,0.4140194356441498,-0.0093859946355223,0.4913618266582489,0.4764987826347351,-0.0209902189671993,0.4980563223361969,0.527233898639679,-0.0183767434209585,0.5472788214683533,0.508605420589447,0.0045527317561209,0.5439841747283936,0.4085758924484253,-0.020457761362195,0.5247024297714233,0.4726213812828064,-0.0160489808768033,0.5308738350868225,0.5283644199371338,-0.0024255400057882,0.5867037177085876,0.519241452217102,-0.0116465101018548,0.5703610181808472,0.4430394172668457,-0.0232453308999538,0.5521580576896667,0.4827970564365387,-0.0149913094937801,0.5573689341545105,0.5268899202346802,-0.0033136757556349
2023-08-01 15:56:02.486624,18,535,0.665344774723053,0.6137744188308716,-0.159420758485794,0.3939319550991058,-0.06005859375,0.93798828125,0.3232421875,0.5229425430297852,0.7152952551841736,-6.02246984726662e-07,0.4580745100975036,0.6508537530899048,-0.0044408473186194,0.4243873953819275,0.5594282746315002,-0.0056604431010782,0.4481215178966522,0.4913051128387451,-0.0132875265553593,0.4974000751972198,0.4923582077026367,-0.0179741214960813,0.4824927747249603,0.5092063546180725,0.0238072760403156,0.4765588641166687,0.4335880279541015,-0.0038345037028193,0.4629766345024109,0.492024302482605,-0.0200742874294519,0.469176173210144,0.5293463468551636,-0.027184234932065,0.5149327516555786,0.5083317160606384,0.0144093064591288,0.5098473429679871,0.4233782589435577,-0.0168518926948308,0.4942251741886139,0.4937385618686676,-0.0242099128663539,0.5040776133537292,0.5298051834106445,-0.0185714196413755,0.5495660305023193,0.5115274786949158,-0.0006614851881749,0.542759120464325,0.4216238856315613,-0.0278371702879667,0.5261399745941162,0.4927471280097961,-0.0185098256915807,0.536357045173645,0.5323423743247986,-0.0019058897159993,0.5893415808677673,0.5246413946151733,-0.0174674205482006,0.5691956877708435,0.4585683643817901,-0.0294259432703256,0.5536882281303406,0.5040829181671143,-0.0190918408334255,0.563439667224884,0.5362781882286072,-0.0062476405873894
2023-08-01 15:56:02.547271,19,536,0.6647634506225586,0.6136951446533203,-0.1619535386562347,0.3940037190914154,0.0634765625,0.93310546875,0.37158203125,0.5196943283081055,0.7127841114997864,-5.8536409142107e-07,0.4567829370498657,0.649860143661499,-0.0046356013044714,0.4250765740871429,0.561156153678894,-0.0057361666113138,0.4486420750617981,0.4945347607135772,-0.0131387477740645,0.4966582059860229,0.4942811727523803,-0.0174617413431406,0.4851078391075134,0.5117603540420532,0.0247240737080574,0.4824683964252472,0.4385667741298675,-0.0025295743253082,0.4653823673725128,0.4942738115787506,-0.0185852069407701,0.4687319993972778,0.5317111611366272,-0.0254822876304388,0.5165138244628906,0.5113734006881714,0.0156416986137628,0.5133031010627747,0.4282236099243164,-0.0150480177253484,0.4944901168346405,0.4950688779354095,-0.0225365478545427,0.503545880317688,0.5301228165626526,-0.017069911584258,0.5504535436630249,0.5156326293945312,0.0007725936593487,0.5455886125564575,0.4270499348640442,-0.0261029489338397,0.525952935218811,0.4935155808925628,-0.0173021685332059,0.5353302955627441,0.5305964946746826,-0.0011105247540399,0.5894663333892822,0.5299442410469055,-0.0158398319035768,0.5704980492591858,0.4638587534427643,-0.0275862868875265,0.5525423884391785,0.5073909759521484,-0.0173482503741979,0.5614488124847412,0.5392369627952576,-0.004589457064867
2023-08-01 15:56:02.608874,20,537,0.6638378500938416,0.6146528124809265,-0.1626727879047393,0.3937749862670898,0.02392578125,0.9384765625,0.34375,0.5211784839630127,0.7170097827911377,-5.85376767503476e-07,0.45920330286026,0.660457193851471,-0.0047999904491007,0.4243042469024658,0.5730360746383667,-0.0062219225801527,0.4466174840927124,0.5085546970367432,-0.0136740934103727,0.4934636354446411,0.5082560777664185,-0.0181639585644006,0.4809409379959106,0.5183663964271545,0.0193591266870498,0.4700563251972198,0.4531646370887756,-0.0079932287335395,0.4610651135444641,0.5097548961639404,-0.0225700605660676,0.4723071455955505,0.5380887985229492,-0.0292613264173269,0.5127893686294556,0.5169380307197571,0.0099024334922432,0.5043282508850098,0.4413148164749145,-0.0218878239393234,0.4915875792503357,0.5096345543861389,-0.0272324588149786,0.504725992679596,0.5369194149971008,-0.020684789866209,0.5463548302650452,0.5198066234588623,-0.0051335440948605,0.535153329372406,0.4408599436283111,-0.0338825248181819,0.5209848880767822,0.5102293491363525,-0.0236067324876785,0.5358384847640991,0.5405641198158264,-0.0067665688693523,0.5847880840301514,0.5317634344100952,-0.021823164075613,0.5610491037368774,0.4732680022716522,-0.035748191177845,0.5472782254219055,0.517315149307251,-0.0259231273084878,0.5609632134437561,0.5441327691078186,-0.0135113773867487
2023-08-01 15:56:02.658768,21,538,0.6632363796234131,0.6143239140510559,-0.1621906608343124,0.3954970240592956,0.0234375,0.92822265625,0.3447265625,0.5222234129905701,0.7146728038787842,-5.657827841787366e-07,0.4581090211868286,0.6624789237976074,-0.0070958104915916,0.4235873818397522,0.570517361164093,-0.0084512187168002,0.4456512928009033,0.5043524503707886,-0.0149162523448467,0.491411030292511,0.5082011818885803,-0.0184222757816314,0.4818903803825378,0.5208375453948975,0.0187080428004264,0.4720852971076965,0.4564257264137268,-0.0079796100035309,0.4584912955760956,0.512808620929718,-0.0224969778209924,0.4668760299682617,0.5448957681655884,-0.0288612693548202,0.5134400129318237,0.5171757936477661,0.0109766786918044,0.5037060976028442,0.4421303570270538,-0.0190717969089746,0.4887668192386627,0.5102410316467285,-0.0237006582319736,0.5034929513931274,0.5386703610420227,-0.0166696440428495,0.5468438863754272,0.519855260848999,-0.0025867142248898,0.534430205821991,0.440032958984375,-0.0300342682749032,0.5188609957695007,0.5081045627593994,-0.0202034655958414,0.5343290567398071,0.5380041003227234,-0.0038290163502097,0.5849514603614807,0.5316834449768066,-0.0180024746805429,0.5602241158485413,0.4734292030334472,-0.0317389033734798,0.545610249042511,0.5187051892280579,-0.0225319694727659,0.5595971345901489,0.5456952452659607,-0.0106191914528608
2023-08-01 15:56:02.718900,22,539,0.6626366972923279,0.6135797500610352,-0.1608360111713409,0.3982013165950775,0.04931640625,0.92724609375,0.35595703125,0.5249618887901306,0.713932991027832,-5.462454168991826e-07,0.4597267806529999,0.6617889404296875,-0.0076274205930531,0.4251877069473266,0.5716884732246399,-0.0091822687536478,0.4483551979064941,0.506824791431427,-0.0155983278527855,0.493876039981842,0.5085668563842773,-0.0191455986350774,0.4838378429412842,0.5209922790527344,0.0180506743490695,0.4762936234474182,0.4563244879245758,-0.0086127882823348,0.4612505733966827,0.5097847580909729,-0.0232737381011247,0.4683530032634735,0.5438668727874756,-0.0295233018696308,0.5153610706329346,0.5177460312843323,0.0107087548822164,0.5071099400520325,0.4422964453697204,-0.019296433776617,0.4914419949054718,0.5071593523025513,-0.0244636163115501,0.5060282945632935,0.5383144021034241,-0.0177127588540315,0.5483999848365784,0.5208091735839844,-0.0024720425717532,0.5366542339324951,0.4425970315933227,-0.0303173195570707,0.5205178260803223,0.5073884725570679,-0.0218879263848066,0.5357584357261658,0.538835883140564,-0.0061425711028277,0.5862534046173096,0.5334519147872925,-0.0174456238746643,0.5611594319343567,0.4760313630104065,-0.0320382639765739,0.5460118651390076,0.5194590091705322,-0.0239564925432205,0.5592947602272034,0.5477839708328247,-0.0125739434733986
2023-08-01 15:56:02.776398,23,540,0.6614028215408325,0.6143427491188049,-0.1594588011503219,0.3996275961399078,0.0537109375,0.94189453125,0.33837890625,0.5238112211227417,0.7135574817657471,-5.47721128896228e-07,0.4600390791893005,0.660676121711731,-0.0064557613804936,0.4270626902580261,0.5705385208129883,-0.0070651029236614,0.4490680992603302,0.5062940120697021,-0.0127700688317418,0.4935169219970703,0.5098142623901367,-0.0157038420438766,0.4857954084873199,0.5198100209236145,0.0202216934412717,0.4778970181941986,0.456554114818573,-0.0054059401154518,0.4625674188137054,0.5093277096748352,-0.0195053182542324,0.4699594974517822,0.5425465703010559,-0.025583567097783,0.5161461234092712,0.5169322490692139,0.0125211328268051,0.50818932056427,0.4427578449249267,-0.016501871868968,0.4919206798076629,0.5070362091064453,-0.021370468661189,0.5063287019729614,0.537481427192688,-0.0145725263282656,0.5487179160118103,0.5206249952316284,-0.00094397040084,0.5373114943504333,0.4428780376911163,-0.028039876371622,0.52066570520401,0.5078595280647278,-0.0195092726498842,0.5356269478797913,0.5391230583190918,-0.0039031589403748,0.5863246321678162,0.5341376066207886,-0.0161277558654546,0.5610440969467163,0.478000283241272,-0.0301603656262159,0.5457589030265808,0.5215900540351868,-0.0219871792942285,0.5591410994529724,0.5492290258407593,-0.010696998797357
2023-08-01 15:56:02.825066,24,541,0.6607649922370911,0.6150264143943787,-0.1585934162139892,0.3999752104282379,0.03759765625,0.92626953125,0.3544921875,0.5238767862319946,0.7144918441772461,-5.365137667467934e-07,0.4587036967277527,0.660618782043457,-0.0065691862255334,0.4264981746673584,0.5712283849716187,-0.0080269509926438,0.4497252404689789,0.5067579746246338,-0.0146655552089214,0.4943916201591491,0.509323239326477,-0.0189381502568721,0.4846988320350647,0.5242548584938049,0.0195847302675247,0.4748066067695617,0.4617521166801452,-0.0059033869765698,0.4607104957103729,0.5138866901397705,-0.0203587524592876,0.4691531062126159,0.5476344227790833,-0.0268207266926765,0.5154988765716553,0.5193287134170532,0.0118232779204845,0.5065029263496399,0.445095807313919,-0.017202228307724,0.4903751909732818,0.5094196796417236,-0.0226743426173925,0.5048645734786987,0.5410966277122498,-0.0163842476904392,0.5483667850494385,0.5218632221221924,-0.0015483865281566,0.5355904698371887,0.4446123838424682,-0.0289143603295087,0.5187820196151733,0.5099814534187317,-0.0211913883686065,0.5340991020202637,0.5425349473953247,-0.0061338217929005,0.585990846157074,0.5345917344093323,-0.0165259931236505,0.5587576627731323,0.4808290600776672,-0.0311967693269252,0.5439754128456116,0.5237864255905151,-0.0237370580434799,0.5585764646530151,0.5508145093917847,-0.0129238357767462
2023-08-01 15:56:02.873145,25,542,0.6603994369506836,0.6152920126914978,-0.1579621434211731,0.4004201591014862,0.02392578125,0.9287109375,0.32177734375,0.5250634551048279,0.7135021686553955,-5.423241304924886e-07,0.4592813849449157,0.6591476798057556,-0.0062137823551893,0.4275303483009338,0.5690529346466064,-0.0074708606116473,0.4515834450721741,0.5069244503974915,-0.0136758852750062,0.4958861470222473,0.5114989280700684,-0.0172853823751211,0.4859703481197357,0.5192227959632874,0.018367450684309,0.4756675362586975,0.4587918519973755,-0.0082283644005656,0.4617865085601806,0.5125693082809448,-0.0229466408491134,0.4710892140865326,0.5464022159576416,-0.029454119503498,0.5164210796356201,0.5164785385131836,0.0104525685310363,0.5069169998168945,0.4457803666591644,-0.0189307387918233,0.4915304183959961,0.5107360482215881,-0.0235676951706409,0.5070948600769043,0.540039598941803,-0.0169401410967111,0.5488256216049194,0.521512508392334,-0.0031711447518318,0.5362663269042969,0.4486278891563415,-0.0304541904479265,0.5201501250267029,0.5142021179199219,-0.0214554239064455,0.5362184643745422,0.5440194606781006,-0.0059270267374813,0.5863032341003418,0.5364413857460022,-0.0184850580990314,0.5593613982200623,0.4844948053359985,-0.0328588373959064,0.5445709824562073,0.5280371308326721,-0.0248257257044315,0.5590910315513611,0.5535815954208374,-0.0138381496071815
2023-08-01 15:56:02.921321,26,543,0.660342276096344,0.6155106425285339,-0.1582674533128738,0.4000576436519623,0.0517578125,0.9306640625,0.34228515625,0.5241976976394653,0.7136325836181641,-5.462808871925517e-07,0.4606617093086242,0.6568198800086975,-0.0048804399557411,0.4307177066802978,0.5683888792991638,-0.0060184109024703,0.4519005715847015,0.5071496367454529,-0.0123049551621079,0.4940298199653625,0.5108290910720825,-0.0157107729464769,0.4912946224212646,0.5163256525993347,0.0190166905522346,0.4828598499298095,0.4549270272254944,-0.0071359816938638,0.4670904278755188,0.5092408657073975,-0.0210876539349555,0.4750011563301086,0.5432197451591492,-0.0270152781158685,0.5202057361602783,0.5154176354408264,0.0107852276414632,0.5105487704277039,0.4457622766494751,-0.0181414633989334,0.4934789538383484,0.5112157464027405,-0.0221009254455566,0.5084512233734131,0.5396572351455688,-0.0151814483106136,0.5513542890548706,0.5213544964790344,-0.0029908418655395,0.5376610159873962,0.4506185054779053,-0.0295058172196149,0.5202491283416748,0.5164215564727783,-0.019801951944828,0.5358926653862,0.5457513928413391,-0.0040206206031143,0.5872383117675781,0.5367199182510376,-0.0183425620198249,0.5593687891960144,0.4865122139453888,-0.0315418094396591,0.5437808036804199,0.5291430354118347,-0.0230091232806444,0.5583502650260925,0.553357720375061,-0.0118241468444466
2023-08-01 15:56:02.981294,27,544,0.6616183519363403,0.6157501935958862,-0.1596584320068359,0.3970164358615875,0.01171875,0.9150390625,0.33056640625,0.5252160429954529,0.712649941444397,-5.166796199773671e-07,0.4627803862094879,0.6540709137916565,-0.0031150695867836,0.4347978234291076,0.5675716996192932,-0.0041071949526667,0.4551482796669006,0.5086528658866882,-0.0108616687357425,0.4956926107406616,0.5119833946228027,-0.0152869299054145,0.4919081032276153,0.5169736742973328,0.0221919901669025,0.4799033105373382,0.4588653743267059,-0.0018813245696946,0.4679659605026245,0.5108171105384827,-0.016253612935543,0.4782489538192749,0.5440517067909241,-0.0231258813291788,0.5207659602165222,0.5145424604415894,0.0127388956025242,0.510490357875824,0.4451625645160675,-0.0139625081792473,0.4959956407546997,0.5074079632759094,-0.0193864200264215,0.5108376741409302,0.5370020866394043,-0.0143015263602137,0.5522724390029907,0.520264208316803,-0.0019319141283631,0.5381060838699341,0.4490078091621399,-0.0266271363943815,0.5218116044998169,0.5127081274986267,-0.0184639897197484,0.5368867516517639,0.5432971715927124,-0.0044346246868371,0.5878282785415649,0.5362915396690369,-0.0180308539420366,0.5595460534095764,0.4849908947944641,-0.0303126592189073,0.5437581539154053,0.5264401435852051,-0.0221401061862707,0.5572481155395508,0.5522600412368774,-0.0116454605013132
2023-08-01 15:56:03.026943,28,545,0.6637910604476929,0.6167300939559937,-0.1594917327165603,0.3919027745723724,0.087890625,0.93212890625,0.3212890625,0.5271024107933044,0.7141328454017639,-5.155966960046499e-07,0.4625501930713653,0.6557649970054626,-0.0025873335544019,0.4339230358600616,0.5702646970748901,-0.0030832213815301,0.4539195895195007,0.511041522026062,-0.0093525247648358,0.495141863822937,0.5110077857971191,-0.0134943602606654,0.4898339211940765,0.518844723701477,0.0229100473225116,0.4768396914005279,0.4626630544662475,-0.000390348926885,0.4657082855701446,0.5137202143669128,-0.0147890504449605,0.4767371118068695,0.5462570190429688,-0.0220699626952409,0.5194711089134216,0.5145215392112732,0.0131967011839151,0.508672297000885,0.4450699388980865,-0.0132641661912202,0.4946602880954742,0.5084556937217712,-0.0193220488727092,0.5099109411239624,0.5379844307899475,-0.0146953603252768,0.5519721508026123,0.5190562009811401,-0.0015006314497441,0.5374162793159485,0.4469913244247436,-0.0260383561253547,0.5208553671836853,0.5118844509124756,-0.018200010061264,0.5363675951957703,0.5422577261924744,-0.0045190039090812,0.588557243347168,0.5345785617828369,-0.0175216309726238,0.5590549111366272,0.485641747713089,-0.0300300363451242,0.5428592562675476,0.5274888277053833,-0.0219966806471347,0.5567556023597717,0.5519371032714844,-0.011618816293776
2023-08-01 15:56:03.077329,29,546,0.6668979525566101,0.6162251234054565,-0.1557508111000061,0.3889155089855194,0.0302734375,0.92236328125,0.412109375,0.526626706123352,0.7133786678314209,-5.165572929399787e-07,0.4624043703079223,0.6551257371902466,-0.0020582259166985,0.433181881904602,0.5703833103179932,-0.0025037839077413,0.4521059095859527,0.511181652545929,-0.009136589244008,0.493852287530899,0.5079807043075562,-0.0139052383601665,0.4886071383953094,0.519303560256958,0.0242788195610046,0.475272923707962,0.4619414508342743,0.0006764607387594,0.4644659757614136,0.5119096636772156,-0.0138869853690266,0.4755749404430389,0.5452204346656799,-0.0209200326353311,0.5183520317077637,0.5151713490486145,0.0140440128743648,0.5071778297424316,0.4452342391014099,-0.0128353852778673,0.493807703256607,0.5078099370002747,-0.0195460356771945,0.5093595385551453,0.5383895635604858,-0.0150569258257746,0.5511985421180725,0.5190370082855225,-0.0012386081507429,0.535834789276123,0.4472588896751404,-0.026689700782299,0.5201160311698914,0.5114526748657227,-0.0194777455180883,0.5358636975288391,0.5424043536186218,-0.0056842742487788,0.5883247256278992,0.5337858200073242,-0.0177292972803115,0.5586012005805969,0.4830556809902191,-0.0309253800660371,0.542788565158844,0.5250757932662964,-0.0228142663836479,0.5565764307975769,0.5510419607162476,-0.01201693713665
2023-08-01 15:56:03.136092,30,547,0.6721636056900024,0.6146308183670044,-0.1453690826892852,0.38638436794281,0.01904296875,0.9521484375,0.30615234375,0.5275017023086548,0.7054954767227173,-4.867721372647793e-07,0.4658500552177429,0.6549655795097351,-0.0041136536747217,0.4324385225772857,0.5649177432060242,-0.0047316942363977,0.4501264095306396,0.4976553320884704,-0.0114839896559715,0.4965346157550812,0.4757679998874664,-0.0167421605437994,0.4870229363441467,0.5197739005088806,0.0241738073527812,0.4813871383666992,0.45223268866539,0.0038603779394179,0.4688528478145599,0.4980393946170807,-0.0095015056431293,0.4785957038402557,0.5369783639907837,-0.0154733648523688,0.5184643864631653,0.5132508873939514,0.0153665132820606,0.5163541436195374,0.4315593242645263,-0.0104899667203426,0.5007708668708801,0.4916273951530456,-0.0192842502146959,0.5129569172859192,0.5360758304595947,-0.0151494974270462,0.55107182264328,0.512919545173645,0.0019328739726915,0.5441623330116272,0.4253795444965362,-0.0251849703490734,0.5272127985954285,0.4875461757183075,-0.0207582153379917,0.5377179980278015,0.5355936884880066,-0.0067291031591594,0.586112380027771,0.5228069424629211,-0.0123561797663569,0.5629774928092957,0.4532593488693237,-0.0298340655863285,0.5470675826072693,0.4959090948104858,-0.0229710321873426,0.5555441975593567,0.5380951762199402,-0.0110858073458075
2023-08-01 15:56:03.181434,31,548,0.6742208003997803,0.6131760478019714,-0.1453783363103866,0.3851058185100555,-0.0126953125,0.9208984375,0.38671875,0.5260758996009827,0.7070051431655884,-4.356925842330384e-07,0.4618025124073028,0.6523420810699463,-0.0082639148458838,0.427978903055191,0.5642187595367432,-0.0093760108575224,0.445244163274765,0.4914688766002655,-0.0166964344680309,0.4893335103988647,0.4558674693107605,-0.0219106804579496,0.488591581583023,0.5166225433349609,0.0325419940054416,0.487711489200592,0.4441575407981872,0.0143982814624905,0.4713225364685058,0.4805902540683746,-0.0015832603676244,0.4730843901634216,0.520453929901123,-0.0097204381600022,0.51944500207901,0.5076891183853149,0.0258146896958351,0.5235333442687988,0.4189076125621795,0.0028542147483676,0.5028960704803467,0.463269829750061,-0.0114955678582191,0.5027812719345093,0.5138581395149231,-0.0123090241104364,0.5518267154693604,0.5063612461090088,0.0136973783373832,0.5533991456031799,0.4111295342445373,-0.0107197156175971,0.5320430994033813,0.4597298502922058,-0.0122397169470787,0.5313986539840698,0.5159710049629211,-0.0029177030082792,0.5863043069839478,0.5169122219085693,8.208023791667074e-05,0.5730107426643372,0.4391877651214599,-0.0162522718310356,0.5529540777206421,0.4732955694198608,-0.012023052200675,0.5505093336105347,0.5250853300094604,-0.0023261848837137
2023-08-01 15:56:03.230224,32,549,0.6772860288619995,0.6094014644622803,-0.1419680416584015,0.386986494064331,-0.0244140625,0.92431640625,0.37939453125,0.5232721567153931,0.7050554752349854,-3.826148713415023e-07,0.4573115706443786,0.6558347940444946,-0.0111553966999053,0.425756424665451,0.5705735087394714,-0.0136102465912699,0.4365068078041076,0.4921740889549255,-0.0214411169290542,0.4689063429832458,0.44214928150177,-0.0260638240724802,0.4947526752948761,0.5017890334129333,0.0298935305327177,0.5046027898788452,0.4244726002216339,0.0106429290026426,0.4811935424804687,0.4437999725341797,-0.0052871317602694,0.4748931229114532,0.4831183850765228,-0.0127005903050303,0.5253941416740417,0.4958660304546356,0.0239878129214048,0.5397959351539612,0.4006425440311432,0.0006612910656258,0.5104817152023315,0.4301719665527344,-0.0130560342222452,0.5028032064437866,0.4809805750846863,-0.0137301748618483,0.5568321943283081,0.4981229901313782,0.0121136140078306,0.5680825114250183,0.4015935063362121,-0.010657574981451,0.5383474826812744,0.4346023797988891,-0.014002532698214,0.5313710570335388,0.4873142540454864,-0.0071931262500584,0.5911783576011658,0.5105534195899963,-0.0018277597846463,0.5885907411575317,0.4325529336929321,-0.0169762559235095,0.5627760887145996,0.4533107876777649,-0.0154790142551064,0.5530216097831726,0.4993217587471008,-0.0084830224514007
2023-08-01 15:56:03.289070,33,550,0.6791456937789917,0.6072560548782349,-0.1412180215120315,0.3873739838600158,-0.06494140625,0.931640625,0.341796875,0.5193314552307129,0.7120242714881897,-1.4233569345378785e-07,0.4558995068073272,0.6591947078704834,-0.0137388128787279,0.4216293096542358,0.5764372944831848,-0.0140787428244948,0.4241973161697387,0.4942841827869415,-0.0183712504804134,0.4395970106124878,0.4315641522407532,-0.0194539632648229,0.5007883310317993,0.4906038641929626,0.0357039608061313,0.499530553817749,0.420317143201828,0.0206833723932504,0.4879498779773712,0.399307370185852,0.0008676275610923,0.4784780442714691,0.4110407829284668,-0.0095155397430062,0.5350599884986877,0.4814185202121734,0.0324997194111347,0.5425139665603638,0.3915496468544006,0.0192182883620262,0.5279605984687805,0.3762161433696747,-7.460693450411782e-05,0.515183687210083,0.410433679819107,-0.0084048649296164,0.5679859519004822,0.4850996136665344,0.0227323044091463,0.5804274678230286,0.3982177376747131,0.0113048143684864,0.5626497268676758,0.3807782232761383,-0.0006910680094733,0.547717273235321,0.4129828512668609,-0.0037487188819795,0.6030853986740112,0.5003568530082703,0.0098302057012915,0.6152305603027344,0.4284947216510772,0.0012870383216068,0.5974056124687195,0.4013655185699463,-0.0045628943480551,0.5771118402481079,0.4170206189155578,-0.0047188652679324
2023-08-01 15:56:03.337986,34,551,0.6804158091545105,0.6054750084877014,-0.1403500437736511,0.3882476091384887,0.0009765625,0.91943359375,0.41650390625,0.5147360563278198,0.7137154936790466,-1.7331724677660534e-07,0.454846441745758,0.659141480922699,-0.0127972923219203,0.4207693934440613,0.5746954679489136,-0.0144071914255619,0.4188942015171051,0.4959298968315124,-0.0197043642401695,0.428264707326889,0.432665079832077,-0.021872779354453,0.5043275356292725,0.4816467761993408,0.0305608734488487,0.5031111240386963,0.4089664220809936,0.0154560785740613,0.4878257513046264,0.3788715898990631,-0.0051204683259129,0.4687619805335998,0.377140998840332,-0.0171093326061964,0.5377684831619263,0.4735784828662872,0.0263227317482233,0.5443584322929382,0.385723203420639,0.0141938170418143,0.5267713069915771,0.3564782738685608,-0.0043829372152686,0.5035628080368042,0.3742299675941467,-0.0142585663124918,0.570563018321991,0.4809397459030151,0.0159006230533123,0.5846630930900574,0.3906659781932831,0.0048426226712763,0.5669681429862976,0.3616394400596618,-0.0067179822362959,0.5429368019104004,0.3805015087127685,-0.0111668109893798,0.6047810316085815,0.5016450881958008,0.0025453760754317,0.6185407042503357,0.4294630587100982,-0.0079080993309617,0.6013013124465942,0.3975509405136108,-0.0143348779529333,0.5746259093284607,0.4056668877601623,-0.0154270716011524
2023-08-01 15:56:03.398000,35,552,0.6821011304855347,0.6032467484474182,-0.1389251202344894,0.3892701864242553,-0.01416015625,0.9189453125,0.361328125,0.5148190855979919,0.7147521376609802,-1.508735891775359e-07,0.4537345468997955,0.6594806909561157,-0.0141262244433164,0.4185573756694793,0.5725984573364258,-0.0163810327649116,0.4132862091064453,0.4928930997848511,-0.0213004425168037,0.4187844395637512,0.427988737821579,-0.0233016218990087,0.5045907497406006,0.4749418199062347,0.0278445295989513,0.5007568597793579,0.4028452038764953,0.0167819745838642,0.4858313202857971,0.3669768571853637,-0.0008103374275378,0.4667420983314514,0.3465661406517029,-0.0130291320383548,0.5404337644577026,0.4678179025650024,0.0240591522306203,0.5426392555236816,0.3829001784324646,0.0153682343661785,0.5275183320045471,0.3422988057136535,5.707427771994844e-05,0.5036476254463196,0.3367214202880859,-0.0095388563349843,0.5737217664718628,0.4766008555889129,0.0141621613875031,0.5843362808227539,0.3903678655624389,0.0039463802240788,0.5702400207519531,0.3513418436050415,-0.0054501630365848,0.5456199049949646,0.3500745296478271,-0.0095507185906171,0.6079161167144775,0.4981474280357361,0.0012776150833815,0.6193216443061829,0.4284830391407013,-0.0098958648741245,0.6063156127929688,0.391282320022583,-0.0161235686391592,0.5818039774894714,0.3848212361335754,-0.0177368782460689
2023-08-01 15:56:03.445945,36,553,0.6840186715126038,0.6015486717224121,-0.1390347778797149,0.388493150472641,-0.04052734375,0.91796875,0.33837890625,0.5116991400718689,0.710479736328125,-8.999421652333696e-08,0.4533415138721466,0.6576752662658691,-0.0153426518663764,0.4193164110183716,0.5695569515228271,-0.0191419310867786,0.411401093006134,0.49301677942276,-0.0244988836348056,0.4121527373790741,0.431039035320282,-0.0276481136679649,0.5031095743179321,0.467462956905365,0.0166946928948164,0.4984937906265259,0.3895101249217987,0.0054255588911473,0.4848523139953613,0.3491909205913543,-0.0116790980100631,0.4678939282894134,0.3201895356178283,-0.024505952373147,0.5407137870788574,0.460377037525177,0.012697166763246,0.5403174161911011,0.3716648519039154,0.0052270265296101,0.5270544290542603,0.3213641345500946,-0.0096222730353474,0.5058503150939941,0.2914860844612121,-0.0213063526898622,0.5745450854301453,0.4684342443943023,0.0032714453991502,0.5862547159194946,0.3812858462333679,-0.0055012330412864,0.5755682587623596,0.3339819312095642,-0.0166919119656085,0.5532379150390625,0.3067734837532043,-0.0250154510140419,0.6067764163017273,0.4909311234951019,-0.0089812483638525,0.6209244728088379,0.4224364757537842,-0.0186635088175535,0.6123789548873901,0.3850941956043243,-0.0252193976193666,0.5910567045211792,0.3643246293067932,-0.0295274760574102
2023-08-01 15:56:03.492174,37,554,0.6855602264404297,0.6006437540054321,-0.1397195607423782,0.3869271576404571,0.03466796875,0.9013671875,0.4013671875,0.5147947669029236,0.704038143157959,2.924743114363082e-07,0.4507245719432831,0.6554701924324036,-0.0184702239930629,0.413848340511322,0.5691046714782715,-0.0253582056611776,0.3994792103767395,0.4946010410785675,-0.0319804362952709,0.3859867453575134,0.4349608123302459,-0.0381078459322452,0.4971818029880523,0.4512009620666504,-0.0023563522845506,0.4906156063079834,0.3620688319206238,-0.0162170957773923,0.4851592481136322,0.3030444979667663,-0.0322631150484085,0.4830302298069,0.2509821355342865,-0.0454293973743915,0.5403445363044739,0.4421438574790954,-0.0089639015495777,0.5436167120933533,0.3381072878837585,-0.0212704613804817,0.5431972146034241,0.2663918137550354,-0.0362147353589534,0.541689395904541,0.2075664401054382,-0.0479433499276638,0.5764683485031128,0.455507755279541,-0.0199987329542636,0.5974392294883728,0.3606929779052734,-0.0355385318398475,0.6043109893798828,0.2947418093681335,-0.0502930842339992,0.6068461537361145,0.236328125,-0.061373870819807,0.606698751449585,0.4867050647735595,-0.0333146452903747,0.6415395736694336,0.4165665209293365,-0.0490667186677455,0.6594456434249878,0.3646449744701385,-0.0585035905241966,0.6710721254348755,0.3140282034873962,-0.0654004588723182
2023-08-01 15:56:03.541002,38,555,0.6865755319595337,0.600250780582428,-0.1393978893756866,0.3858514726161957,-0.11474609375,0.9072265625,0.318359375,0.5152665376663208,0.7146941423416138,2.895435216032638e-07,0.4526517689228058,0.6620079874992371,-0.017923504114151,0.4135628938674927,0.5721365213394165,-0.0238958969712257,0.3934518694877624,0.4991942048072815,-0.0301309935748577,0.3759763240814209,0.4426112174987793,-0.0358033813536167,0.4952676296234131,0.4453167617321014,0.001538427430205,0.4879322946071625,0.3533498644828796,-0.0103778503835201,0.4827618896961212,0.2949705123901367,-0.0255581773817539,0.4816372096538543,0.2429179251194,-0.0385838560760021,0.5387451648712158,0.4374151527881622,-0.005682086572051,0.5443190932273865,0.3297178149223327,-0.0155304241925477,0.5459199547767639,0.257298856973648,-0.0303571447730064,0.5466803908348083,0.1968679428100586,-0.0427300855517387,0.5761150121688843,0.4522808194160461,-0.0175512246787548,0.5990971326828003,0.3559956848621368,-0.03105921857059,0.6083906292915344,0.2889305055141449,-0.0468602813780307,0.6132138967514038,0.2303360402584076,-0.0594899803400039,0.607067346572876,0.484989583492279,-0.0319220796227455,0.6443337798118591,0.4193492531776428,-0.0462903119623661,0.6660204529762268,0.3695130050182342,-0.0565765723586082,0.6827409863471985,0.3216213881969452,-0.064678318798542
2023-08-01 15:56:03.588710,39,556,0.6888604164123535,0.5994901657104492,-0.1400773823261261,0.3827024102210998,0.00244140625,0.91455078125,0.39990234375,0.5152232646942139,0.7216756343841553,2.911095293711697e-07,0.4535697698593139,0.6673803925514221,-0.0161758754402399,0.4143932461738586,0.5744078159332275,-0.0213255509734153,0.3923240303993225,0.5015042424201965,-0.0272509399801492,0.3706992268562317,0.4481177031993866,-0.033127162605524,0.4942338168621063,0.4423213303089142,0.0028235209174454,0.4873488247394562,0.3484870493412018,-0.0089358258992433,0.4831601679325104,0.2897495031356811,-0.0241085235029459,0.4836583137512207,0.2375836074352264,-0.0372712947428226,0.5373746752738953,0.435163289308548,-0.0056644328869879,0.5447380542755127,0.3248026967048645,-0.0150294275954365,0.5483250021934509,0.2522193193435669,-0.0297705214470624,0.5506880879402161,0.1914016306400299,-0.042416263371706,0.5752369165420532,0.4518195688724518,-0.018725337460637,0.602171778678894,0.3543365597724914,-0.0322549678385257,0.615088701248169,0.2877863049507141,-0.0482130497694015,0.6229016184806824,0.228123277425766,-0.0613412410020828,0.6064364314079285,0.4873109757900238,-0.0341388285160064,0.647506594657898,0.4221420884132385,-0.0491065606474876,0.67280113697052,0.3732173144817352,-0.0595922283828258,0.6934501528739929,0.3251432478427887,-0.0680874213576316
2023-08-01 15:56:03.653036,40,557,0.6914973258972168,0.597888171672821,-0.1403157711029052,0.3803588449954986,-0.02978515625,0.908203125,0.45703125,0.5135656595230103,0.7255727052688599,3.164440727232432e-07,0.4530753493309021,0.6706410050392151,-0.0165244545787572,0.41329026222229,0.5747935175895691,-0.0211700908839702,0.3892925381660461,0.5019100308418274,-0.0264210067689418,0.3631912469863891,0.4513794779777527,-0.0318996384739875,0.4933522641658783,0.4387411475181579,0.0027278445195406,0.4880803823471069,0.3446747660636902,-0.0077099772170186,0.4856070280075073,0.2855674922466278,-0.0217378325760364,0.4872556328773498,0.233322262763977,-0.0344247259199619,0.5371313095092773,0.4322946071624756,-0.0058984216302633,0.5472609400749207,0.3207443952560425,-0.0135809974744915,0.55317223072052,0.2483924776315689,-0.0266096536070108,0.5573176145553589,0.188209056854248,-0.0383050478994846,0.5753011107444763,0.4510220289230346,-0.0192810073494911,0.6057959794998169,0.3528605103492737,-0.0325753800570964,0.6221395134925842,0.2869614958763122,-0.0480143427848815,0.6329749226570129,0.2273200452327728,-0.0611026361584663,0.6058760285377502,0.4887634813785553,-0.0350521281361579,0.6486858129501343,0.4258675873279571,-0.0509319007396698,0.6761441230773926,0.3793513476848602,-0.0616232007741928,0.6993765234947205,0.3328908085823059,-0.0704723969101905
2023-08-01 15:56:03.710982,41,558,0.6929066777229309,0.5968368649482727,-0.1398440152406692,0.3796177506446838,-0.0546875,0.90380859375,0.4189453125,0.5133546590805054,0.726250171661377,3.261200731685676e-07,0.4519699215888977,0.6708905100822449,-0.0155417257919907,0.410624086856842,0.5746666193008423,-0.0189795959740877,0.3849823176860809,0.504176139831543,-0.0229898560792207,0.3560813069343567,0.4596411287784576,-0.0275197215378284,0.4924199283123016,0.4372497498989105,0.0024576552677899,0.4895118772983551,0.3412257730960846,-0.0070610838010907,0.4889844357967376,0.2810134291648865,-0.0200047045946121,0.4916289150714874,0.2290576100349426,-0.0319310091435909,0.5372047424316406,0.4315740764141083,-0.0061553544364869,0.5512611865997314,0.3181082308292389,-0.012753308750689,0.5595552921295166,0.2464605867862701,-0.024447925388813,0.5651854276657104,0.1881504952907562,-0.0352275148034095,0.5759833455085754,0.4509052634239197,-0.0193860121071338,0.6085371971130371,0.3512945771217346,-0.0319138281047344,0.6265933513641357,0.2863162755966186,-0.046556506305933,0.6392759084701538,0.2276423573493957,-0.0591182559728622,0.6065972447395325,0.4889779984951019,-0.0349093899130821,0.650107204914093,0.4263381958007812,-0.0508696883916854,0.6787259578704834,0.3811564147472381,-0.0613430179655551,0.7035064697265625,0.3365058898925781,-0.0699478089809417
2023-08-01 15:56:03.757287,42,559,0.6945264339447021,0.5955415964126587,-0.1382441073656082,0.3792780935764313,-0.119140625,0.92626953125,0.3369140625,0.5107786655426025,0.7338389158248901,4.787654006577213e-07,0.4459579885005951,0.6743042469024658,-0.0193699058145284,0.4032683670520782,0.5845956206321716,-0.0275831092149019,0.3733553290367126,0.5197884440422058,-0.0360587537288665,0.3392180502414703,0.477582722902298,-0.0450253188610076,0.488811731338501,0.4326847195625305,-0.0031206298153847,0.4886856079101562,0.3319092094898224,-0.0145324263721704,0.489195704460144,0.2685348987579345,-0.0291706956923007,0.4925131201744079,0.2132869660854339,-0.04231783375144,0.535836398601532,0.4290203154087066,-0.011490935459733,0.5555534362792969,0.3135158717632293,-0.0192034821957349,0.5672953128814697,0.2395101934671402,-0.0326923243701458,0.5762063264846802,0.1798915565013885,-0.0448517836630344,0.5759857892990112,0.4518389999866485,-0.0246194191277027,0.6129878759384155,0.3534563481807709,-0.0384500101208686,0.6338052153587341,0.2894424796104431,-0.0551193840801715,0.6487470269203186,0.2323270887136459,-0.068915843963623,0.6070360541343689,0.4946111440658569,-0.0403398647904396,0.6562486290931702,0.4340286552906036,-0.0572427920997142,0.6880653500556946,0.3913278579711914,-0.0684563145041465,0.7155588269233704,0.3494483828544616,-0.0773427858948707
2023-08-01 15:56:03.821764,43,560,0.6952860951423645,0.5950401425361633,-0.1379224956035614,0.378789871931076,-0.044921875,0.89453125,0.48095703125,0.5137169361114502,0.7382775545120239,4.937253947900899e-07,0.4486566483974457,0.676973819732666,-0.0223011970520019,0.4028448462486267,0.5880768895149231,-0.0333697684109211,0.3701492846012115,0.5240442752838135,-0.0444857999682426,0.33526211977005,0.4805957674980163,-0.056166511029005,0.4883012771606445,0.4326712489128113,-0.0067212199792265,0.489010751247406,0.3324445784091949,-0.0208927299827337,0.4902701377868652,0.269368052482605,-0.0379444286227226,0.4936783611774444,0.2139541804790496,-0.0525831282138824,0.5354052186012268,0.4293132722377777,-0.0146096069365739,0.5560846328735352,0.3139402568340301,-0.0247023999691009,0.5678114295005798,0.2399528622627258,-0.0400892235338687,0.5769853591918945,0.1786030828952789,-0.053505178540945,0.5757095813751221,0.4528281092643738,-0.0274863149970769,0.6145768761634827,0.3539977073669433,-0.0430410467088222,0.6356314420700073,0.2890772223472595,-0.0603451021015644,0.6504933834075928,0.2309442609548568,-0.0743922814726829,0.6068035364151001,0.4977660775184631,-0.0431660152971744,0.6567838191986084,0.4377436637878418,-0.0599904507398605,0.6887310743331909,0.3947929143905639,-0.0701789557933807,0.7161022424697876,0.3525881171226501,-0.0783086419105529
2023-08-01 15:56:03.880180,44,561,0.6959637999534607,0.5942570567131042,-0.1368212252855301,0.379174143075943,0.07177734375,0.90673828125,0.388671875,0.5121346712112427,0.7403274774551392,5.068398536423047e-07,0.4475250244140625,0.6780866384506226,-0.0223495624959468,0.4015509486198425,0.5885834693908691,-0.032940849661827,0.368943303823471,0.5235615968704224,-0.0435993336141109,0.3337514400482178,0.4807597696781158,-0.0547946095466613,0.4878503680229187,0.4328444898128509,-0.0059599508531391,0.4893943965435028,0.3318832516670227,-0.0198026672005653,0.4905795753002167,0.2677679061889648,-0.0364613570272922,0.4943509399890899,0.2117815017700195,-0.0508591085672378,0.5350731611251831,0.4295619130134582,-0.0138625334948301,0.5558013319969177,0.3126553297042846,-0.023129528388381,0.5683857798576355,0.2380194216966629,-0.037758719176054,0.5792500376701355,0.1778523027896881,-0.0507514402270317,0.5752356648445129,0.4535777568817138,-0.0268996693193912,0.6145557761192322,0.3553470373153686,-0.0415237732231617,0.636941134929657,0.2901069819927215,-0.0580675415694713,0.6532987952232361,0.232842281460762,-0.0717789307236671,0.6063200235366821,0.4991070628166199,-0.0428907610476017,0.6554447412490845,0.4392823576927185,-0.0588783808052539,0.687039852142334,0.3962520062923431,-0.0686504170298576,0.7142053842544556,0.3545531034469604,-0.0766496956348419
2023-08-01 15:56:03.925174,45,562,0.6955974698066711,0.5936468243598938,-0.134723499417305,0.3815458416938782,-0.05029296875,0.91845703125,0.376953125,0.5105159878730774,0.7419471144676208,5.10713618950831e-07,0.4469230473041534,0.6782481670379639,-0.0227409359067678,0.4006271064281463,0.588425874710083,-0.0340262353420257,0.3671220541000366,0.5244201421737671,-0.0453627817332744,0.3317378759384155,0.4801804423332214,-0.0572901293635368,0.4868559837341308,0.4339772164821625,-0.0070935622788965,0.4882940351963043,0.3327291905879974,-0.0219420008361339,0.4895789921283722,0.2686346173286438,-0.0393206402659416,0.4934571385383606,0.2126061022281646,-0.0541239269077777,0.5345747470855713,0.4312270283699035,-0.015188624151051,0.5560240745544434,0.3136090040206909,-0.0255361963063478,0.5689813494682312,0.2381913512945175,-0.0411518774926662,0.5802209377288818,0.176885038614273,-0.0548087954521179,0.5749319195747375,0.4558088481426239,-0.0284052733331918,0.6141201257705688,0.357307106256485,-0.0439354330301284,0.6371210813522339,0.291864663362503,-0.0610677897930145,0.6541528701782227,0.2341280281543731,-0.0751049742102623,0.6062027215957642,0.5018643140792847,-0.0445365160703659,0.655029833316803,0.4419696629047394,-0.0608129538595676,0.6867965459823608,0.3987636566162109,-0.0705083608627319,0.7140443325042725,0.3568939864635467,-0.0784922242164611
2023-08-01 15:56:03.974180,46,563,0.6948997974395752,0.5934868454933167,-0.1341233253479004,0.38327357172966,-0.0283203125,0.89501953125,0.38720703125,0.5101805925369263,0.7429488301277161,5.203720547797275e-07,0.446211040019989,0.6782296895980835,-0.0229286644607782,0.4004716873168945,0.5897077918052673,-0.0350273102521896,0.3671049475669861,0.5263973474502563,-0.0472065843641757,0.3310084640979767,0.483225405216217,-0.0600638575851917,0.4866829514503479,0.4325523376464844,-0.0080229314044117,0.4890632629394531,0.3316019773483276,-0.0235035046935081,0.490992933511734,0.2676177620887756,-0.0414382256567478,0.4951704442501068,0.211294800043106,-0.0567139983177185,0.5345281958580017,0.4301434457302093,-0.0164426621049642,0.5569283366203308,0.312547504901886,-0.0275999773293733,0.5699781775474548,0.237766608595848,-0.043925404548645,0.5811221599578857,0.1762401163578033,-0.0580564811825752,0.574874997138977,0.4554170668125152,-0.0299040731042623,0.6157628297805786,0.3565516173839569,-0.0463082194328308,0.6392962336540222,0.2914238274097442,-0.0638898760080337,0.656563401222229,0.2338598668575287,-0.0781302452087402,0.6056051850318909,0.5029467344284058,-0.0462276078760623,0.6560946702957153,0.442957729101181,-0.0631870478391647,0.688414990901947,0.3996735513210296,-0.0730797722935676,0.7158702611923218,0.357760488986969,-0.0811144188046455
2023-08-01 15:56:04.021887,47,564,0.6940641403198242,0.5938690900802612,-0.1344425231218338,0.3840830028057098,-0.1025390625,0.92138671875,0.3837890625,0.5110395550727844,0.7430195808410645,5.066879111836897e-07,0.446646898984909,0.6787601709365845,-0.0228832401335239,0.4007572531700134,0.5898215770721436,-0.0345895700156688,0.3666054010391235,0.5263727903366089,-0.0464591383934021,0.3302991390228271,0.4838226735591888,-0.0588520877063274,0.487414687871933,0.4341232478618622,-0.0065323789604008,0.4890276193618774,0.3334636688232422,-0.021501425653696,0.4906072914600372,0.269871324300766,-0.0391707569360733,0.4948726594448089,0.2138234972953796,-0.0541637614369392,0.5346266031265259,0.4309102594852447,-0.0146245192736387,0.5552579760551453,0.3138090968132019,-0.0248172413557767,0.5674726366996765,0.2383919060230255,-0.0401598811149597,0.5780894160270691,0.1767757534980774,-0.0536158606410026,0.57486891746521,0.4552875459194183,-0.0279385894536972,0.6141225099563599,0.3563577234745025,-0.0430830903351306,0.6363650560379028,0.2904582619667053,-0.0595475248992443,0.6527326703071594,0.2322647124528885,-0.0731379836797714,0.6059600710868835,0.5013961791992188,-0.0442849174141883,0.6550491452217102,0.4412161111831665,-0.0600252673029899,0.6865547895431519,0.3974353671073913,-0.0691047310829162,0.7136964797973633,0.3549180328845978,-0.0766443163156509
2023-08-01 15:56:04.088819,48,565,0.6920350790023804,0.5959493517875671,-0.1336018592119217,0.3848145306110382,0.06103515625,0.91259765625,0.43359375,0.5097220540046692,0.7409387826919556,4.999013754058979e-07,0.4458207488059997,0.6769804358482361,-0.0228550285100936,0.4017277061939239,0.5888305306434631,-0.0345854796469211,0.3689202666282654,0.5254533290863037,-0.0465766973793506,0.3328197300434112,0.48363196849823,-0.0592288635671138,0.4871693551540375,0.4348084628582001,-0.0068302205763757,0.4889827370643616,0.334667444229126,-0.0222949478775262,0.4908681213855743,0.2711363434791565,-0.0401918552815914,0.4957700073719024,0.2148565948009491,-0.0554173588752746,0.5342286229133606,0.4304975867271423,-0.0150309400632977,0.5543129444122314,0.3137763440608978,-0.0263690687716007,0.5666542649269104,0.2389195412397384,-0.0424522310495376,0.5777325630187988,0.1773808002471923,-0.0564075112342834,0.5740900635719299,0.453575998544693,-0.0284025371074676,0.6136037111282349,0.3543266654014587,-0.0449293963611125,0.6361977458000183,0.2891267538070678,-0.0622125267982482,0.6529902219772339,0.2312407493591308,-0.076225996017456,0.604723334312439,0.4986710250377655,-0.0447255969047546,0.6544803977012634,0.438309371471405,-0.0622310824692249,0.6866480112075806,0.3945255875587463,-0.0725248306989669,0.7143481373786926,0.3518068194389343,-0.0807715356349945
2023-08-01 15:56:04.146986,49,566,0.6873801350593567,0.6008000373840332,-0.1328972578048706,0.3858577311038971,-0.0302734375,0.9150390625,0.38671875,0.5111979246139526,0.7383562922477722,4.77437879453646e-07,0.4466305673122406,0.6752068996429443,-0.0223738476634025,0.4018253684043884,0.587394118309021,-0.0339287556707859,0.3692016005516052,0.5239501595497131,-0.0457617901265621,0.3340218961238861,0.4819384813308716,-0.0582919754087924,0.4879260063171386,0.4345688223838806,-0.0063442951068282,0.4891920089721679,0.336258053779602,-0.0214835330843925,0.4907688200473785,0.2735071182250976,-0.0394996553659439,0.4952551424503326,0.2176573276519775,-0.0548075959086418,0.5345543026924133,0.4300897121429443,-0.0145876053720712,0.5532745122909546,0.3145497441291809,-0.0256752427667379,0.5643042922019958,0.2399788647890091,-0.0417107380926609,0.574131965637207,0.1775668561458587,-0.055696252733469,0.5744794011116028,0.4528346657752991,-0.0279226992279291,0.6128373742103577,0.3537443280220032,-0.0441453121602535,0.6341384053230286,0.2886867821216583,-0.0612078383564949,0.649948239326477,0.2304381430149078,-0.0750810578465461,0.6052746176719666,0.4969858527183532,-0.0441498644649982,0.6534512042999268,0.4345101118087768,-0.0611431263387203,0.6850029230117798,0.3908176720142364,-0.0707793906331062,0.7125610113143921,0.3482361435890198,-0.0785918459296226
2023-08-01 15:56:04.209174,50,567,0.6816724538803101,0.6059946417808533,-0.1334342658519745,0.3876705169677734,-0.083984375,0.93115234375,0.33154296875,0.5104461312294006,0.7340996265411377,4.330593128543114e-07,0.4484273195266723,0.6723488569259644,-0.0208934918045997,0.4049288630485534,0.5835742950439453,-0.0311211999505758,0.3733024597167969,0.5184336304664612,-0.0417943745851516,0.338478147983551,0.4749822914600372,-0.0531859099864959,0.4905707240104675,0.4356901347637176,-0.0046612061560153,0.4905839562416076,0.3367441892623901,-0.0189254060387611,0.4910335540771484,0.2744684219360351,-0.0358474738895893,0.4946189522743225,0.2195098102092743,-0.0503363981842994,0.5362903475761414,0.4308975040912628,-0.0129000646993517,0.5542044043540955,0.3156355619430542,-0.0235963240265846,0.564135730266571,0.2420073896646499,-0.0391607843339443,0.5723910927772522,0.1810196936130523,-0.0527420602738857,0.5754256248474121,0.4522773027420044,-0.0260641295462846,0.6131150126457214,0.3537903428077698,-0.0417535789310932,0.6331861019134521,0.2887102961540222,-0.0585391148924827,0.6474425792694092,0.230675458908081,-0.0722801834344863,0.6057174801826477,0.4946613013744354,-0.0419353917241096,0.6537464261054993,0.432910680770874,-0.0584140680730342,0.6847653985023499,0.3884557485580444,-0.068161554634571,0.7116119265556335,0.3450358211994171,-0.0761552453041076
