Timestamp,Index,Frame ID,w,x,y,z,ax,ay,az,x_0,y_0,z_0,x_1,y_1,z_1,x_2,y_2,z_2,x_3,y_3,z_3,x_4,y_4,z_4,x_5,y_5,z_5,x_6,y_6,z_6,x_7,y_7,z_7,x_8,y_8,z_8,x_9,y_9,z_9,x_10,y_10,z_10,x_11,y_11,z_11,x_12,y_12,z_12,x_13,y_13,z_13,x_14,y_14,z_14,x_15,y_15,z_15,x_16,y_16,z_16,x_17,y_17,z_17,x_18,y_18,z_18,x_19,y_19,z_19,x_20,y_20,z_20
2023-08-01 15:55:46.196411,0,235,0.6640480756759644,0.6309689283370972,-0.1500020027160644,0.3720450401306152,-0.09375,0.95751953125,0.224609375,0.4988698065280914,0.7052571177482605,3.399257479941298e-07,0.4383321106433868,0.6519054174423218,-0.0167459975928068,0.3958652317523956,0.5494526624679565,-0.0178849846124649,0.3706162571907043,0.471675157546997,-0.0193698797374963,0.3453986942768097,0.4241712093353271,-0.0203087422996759,0.4814679622650146,0.422400414943695,0.0097859660163521,0.4827337563037872,0.3293476700782776,0.003245128551498,0.4845596253871918,0.2727584838867187,-0.0082978317514061,0.4882676899433136,0.2241583317518234,-0.0189252588897943,0.5284193158149719,0.4216411709785461,0.0040422030724585,0.5457763671875,0.3179603219032287,0.0036084544844925,0.5570168495178223,0.2518835663795471,-0.0035185229498893,0.5643143057823181,0.2009701132774353,-0.0112039782106876,0.5686954259872437,0.4435253739356994,-0.0073083853349089,0.5966588258743286,0.3556985855102539,-0.0125211831182241,0.6114686727523804,0.2986625730991363,-0.0211621634662151,0.6206097602844238,0.2491776943206787,-0.0298725590109825,0.601192831993103,0.4813665151596069,-0.0218866635113954,0.6373486518859863,0.4242329597473144,-0.0304111335426569,0.6600286364555359,0.3851855993270874,-0.0361607372760772,0.6792697906494141,0.3476438820362091,-0.0415874570608139
2023-08-01 15:55:46.246047,1,236,0.665873110294342,0.6293531656265259,-0.1517045944929123,0.370827704668045,-0.01611328125,0.91455078125,0.47119140625,0.4978396296501159,0.7102702856063843,3.517957054555154e-07,0.4365405440330505,0.6559484004974365,-0.0164263490587472,0.3932394087314605,0.5511823892593384,-0.0161739997565746,0.3666772842407226,0.4733678996562958,-0.0163222774863243,0.3404214084148407,0.4271562099456787,-0.0156729519367218,0.4782940149307251,0.420522540807724,0.0123333353549242,0.4797182381153106,0.3270385861396789,0.007008368615061,0.4821598827838897,0.2709877490997314,-0.0032671729568392,0.486949622631073,0.2228098958730697,-0.012684192508459,0.5256798267364502,0.4198006093502044,0.0071993730962276,0.5423753261566162,0.3154688775539398,0.0090310918167233,0.5539216995239258,0.2496235817670822,0.0045702108182013,0.5614544153213501,0.1997071206569671,-0.0008686200017109,0.5667495727539062,0.4425073564052582,-0.0038975209463387,0.5946500301361084,0.3552492260932922,-0.0076830345205962,0.6095935702323914,0.2983878552913666,-0.0143422847613692,0.6189541816711426,0.2490286976099014,-0.0211916621774435,0.6001732349395752,0.4809654355049133,-0.0183576960116624,0.6372207999229431,0.4231188595294952,-0.0259453449398279,0.6605783104896545,0.3841795027256012,-0.0307212341576814,0.6808483600616455,0.3462963402271271,-0.0350019633769989
2023-08-01 15:55:46.291641,2,237,0.6674390435218811,0.6277614235877991,-0.1513388454914093,0.3708599507808685,-0.02880859375,0.9228515625,0.3271484375,0.4975230693817138,0.7116756439208984,3.810070268173149e-07,0.4358883500099182,0.6567558646202087,-0.0156935602426528,0.3917605876922607,0.555644154548645,-0.0152432164177298,0.3646484017372131,0.4795723557472229,-0.0155857363715767,0.3379064798355102,0.4345663487911224,-0.0149186104536056,0.4771079123020172,0.4180690050125122,0.0158804059028625,0.4795984327793121,0.3236134648323059,0.0127941528335213,0.4828318059444427,0.2673760056495666,0.004441590514034,0.4888379871845245,0.2203592956066131,-0.0033965811599045,0.5243852138519287,0.4177233576774597,0.0107727022841572,0.5411654114723206,0.3125016093254089,0.0158632230013608,0.553184986114502,0.2481721341609954,0.0142337707802653,0.5615123510360718,0.2005825936794281,0.0109089966863393,0.5657906532287598,0.440786212682724,-0.0005068363971076,0.5945638418197632,0.3539645969867706,-0.0017946602310985,0.6113995313644409,0.2992414832115173,-0.0059611266478896,0.6227607131004333,0.2533615827560425,-0.0109433224424719,0.5993258953094482,0.4798235297203064,-0.0153384944424033,0.6358655691146851,0.4216031730175018,-0.0210676863789558,0.6594438552856445,0.3835631310939789,-0.0242117419838905,0.6808195114135742,0.347730427980423,-0.0270244721323251
2023-08-01 15:55:46.345828,3,238,0.6695922613143921,0.6265248656272888,-0.1501268595457077,0.3695603907108307,-0.037109375,0.939453125,0.3505859375,0.4955878555774688,0.7161418199539185,3.711429030772706e-07,0.4349801242351532,0.6603687405586243,-0.0150950234383344,0.3917349576950073,0.5603377819061279,-0.015145868062973,0.3663871884346008,0.4865085780620575,-0.016165118664503,0.3397574126720428,0.4392326772212982,-0.016227263957262,0.4756504893302917,0.4180299043655395,0.0156446676701307,0.4776252806186676,0.3233194947242737,0.0125197451561689,0.4815722703933716,0.2677784562110901,0.0040395953692495,0.4879699945449829,0.2214945256710052,-0.0039558392018079,0.5233621597290039,0.418190062046051,0.0096755539998412,0.5405930280685425,0.3119605183601379,0.0140902865678071,0.5529389381408691,0.2486291229724884,0.0116885267198085,0.5614723563194275,0.2022207081317901,0.007900564931333,0.5650973320007324,0.4415391981601715,-0.0023054685443639,0.5950552225112915,0.3516564667224884,-0.0044096317142248,0.6121225357055664,0.2967493832111358,-0.0087563889101147,0.6236799955368042,0.2503637671470642,-0.0138305528089404,0.5989707112312317,0.4811932146549225,-0.0176877435296773,0.6359884738922119,0.4218385815620422,-0.0239670798182487,0.6598513126373291,0.3836357295513153,-0.0269505940377712,0.6810675859451294,0.3473973274230957,-0.0295554529875516
2023-08-01 15:55:46.402789,4,239,0.6701833605766296,0.6264525055885315,-0.150123655796051,0.3686111271381378,-0.0166015625,0.919921875,0.4306640625,0.4938041865825653,0.7212973237037659,3.928638250272344e-07,0.4303018152713775,0.6644372344017029,-0.0150234578177332,0.3863272368907928,0.5659195184707642,-0.0151796760037541,0.3587591648101806,0.4955928921699524,-0.0163579229265451,0.3294957876205444,0.4527155458927154,-0.0166331026703119,0.470235139131546,0.4213956296443939,0.0153008922934532,0.4718336760997772,0.3250191211700439,0.0120703307911753,0.4749464094638824,0.2684832215309143,0.0037955632433295,0.4801127910614013,0.2208866029977798,-0.0036024688743054,0.5190793871879578,0.421629250049591,0.009766005910933,0.5368125438690186,0.3144571185111999,0.0154218329116702,0.5487743020057678,0.2496880143880844,0.0144615266472101,0.5564253926277161,0.200790137052536,0.0119172958657145,0.5619633197784424,0.4450820386409759,-0.0017681224271655,0.5915340185165405,0.3562925159931183,-0.0021687464322894,0.6078702807426453,0.3019416630268097,-0.0046716658398509,0.6185462474822998,0.255873829126358,-0.0081992130726575,0.596571683883667,0.4846583604812622,-0.0168499816209077,0.6338278651237488,0.4256627261638641,-0.0211828723549842,0.6578462719917297,0.3869260847568512,-0.0224635768681764,0.679505467414856,0.3505253195762634,-0.0236504077911376
2023-08-01 15:55:46.458893,5,240,0.6701651215553284,0.6262325048446655,-0.1510909497737884,0.3686234056949615,0.02294921875,0.9189453125,0.3662109375,0.49440997838974,0.7246624231338501,3.931048411232041e-07,0.4315096735954284,0.6678974628448486,-0.015014779753983,0.3874911069869995,0.5684729814529419,-0.0155806820839643,0.3606249094009399,0.4957770407199859,-0.0172607824206352,0.3303259909152984,0.4540132284164428,-0.0181029178202152,0.472112089395523,0.4209221303462982,0.0143885239958763,0.4728967547416687,0.322511613368988,0.0102998884394764,0.4763752818107605,0.2642565369606018,0.0015083909966051,0.4823953509330749,0.2158717811107635,-0.0065551521256566,0.5204158425331116,0.4205578863620758,0.0080555509775877,0.5365136861801147,0.3119196891784668,0.0121551360934972,0.5483728647232056,0.2473543435335159,0.0102489283308386,0.5565612316131592,0.1995661556720733,0.007014587521553,0.5628964304924011,0.4444097280502319,-0.0042443620041012,0.5920976996421814,0.3533069491386413,-0.0062039247713983,0.6090309619903564,0.2976987361907959,-0.0097435051575303,0.6206475496292114,0.2510586977005005,-0.0140989953652024,0.5977022051811218,0.485425055027008,-0.0200482197105884,0.6353244781494141,0.4256032109260559,-0.0259577482938766,0.6590296030044556,0.3864825367927551,-0.028349770233035,0.6802846789360046,0.3497876524925232,-0.0303930900990962
2023-08-01 15:55:46.515226,6,241,0.670160174369812,0.6252100467681885,-0.1497834771871566,0.3708941638469696,0.03369140625,0.9150390625,0.404296875,0.4959341287612915,0.7279884815216064,4.074044852586667e-07,0.4325677156448364,0.6686897873878479,-0.015422374010086,0.3888342976570129,0.5694445371627808,-0.0161081477999687,0.3624905347824096,0.4977005422115326,-0.0179913211613893,0.3321993350982666,0.4555165767669678,-0.0187600627541542,0.472786545753479,0.4214134216308594,0.0161546934396028,0.4737057685852051,0.3231624960899353,0.0126043772324919,0.4770672619342804,0.2653844356536865,0.0043378891423344,0.4828932583332062,0.2170861065387725,-0.0031143608503043,0.5214298367500305,0.42143714427948,0.0101477894932031,0.5383293032646179,0.3125782608985901,0.0154490806162357,0.5503182411193848,0.2482055276632309,0.0148401306942105,0.5583502650260925,0.1996915936470031,0.012754451483488,0.5644164085388184,0.4453664124011993,-0.0021353412885218,0.5945413112640381,0.3542822897434234,-0.0026706417556852,0.61162269115448,0.2977265119552612,-0.0046594496816396,0.6232466697692871,0.2498081773519516,-0.0078534930944442,0.5996654629707336,0.4860571324825287,-0.0181760676205158,0.6378089785575867,0.4264688491821289,-0.0227165296673774,0.6615222096443176,0.3863004446029663,-0.0239992700517177,0.6829565763473511,0.3482778072357178,-0.0251190420240163
2023-08-01 15:55:46.575300,7,242,0.6705611348152161,0.6233468055725098,-0.1437235176563263,0.3756727874279022,0.07373046875,0.90234375,0.34716796875,0.4935724139213562,0.724280834197998,4.067689758358029e-07,0.4331400692462921,0.6658332347869873,-0.0180003214627504,0.3880971074104309,0.5677971839904785,-0.0211285445839166,0.3598360419273376,0.4997875690460205,-0.024536807090044,0.3285573720932007,0.4597253501415252,-0.0275327209383249,0.4709975719451904,0.4214568734169006,0.0058504035696387,0.4714814722537994,0.3220313191413879,-0.0015933880349621,0.4740365743637085,0.2627102136611938,-0.0126523096114397,0.4789755046367645,0.2121611833572387,-0.0221646763384342,0.5200355648994446,0.4210877418518066,0.0004534637264441,0.5374295711517334,0.3112867176532745,0.000613261363469,0.5491048097610474,0.2446591109037399,-0.0046903691254556,0.557773768901825,0.1925969719886779,-0.0104825738817453,0.5632917284965515,0.4446867406368255,-0.0105393072590231,0.5942205190658569,0.3521573841571808,-0.0152557967230677,0.6114935278892517,0.2930693924427032,-0.0219924189150333,0.6240624189376831,0.2421368211507797,-0.0287360437214374,0.5982489585876465,0.4859717786312103,-0.0248954277485609,0.6365832686424255,0.4253005683422088,-0.0320091173052787,0.6614753007888794,0.3851164579391479,-0.0352577231824398,0.6839553713798523,0.3470958471298218,-0.0382646657526493
2023-08-01 15:55:46.662883,8,243,0.6702038049697876,0.6219230890274048,-0.1396825015544891,0.3801676332950592,-0.0703125,0.92919921875,0.42578125,0.4935518205165863,0.723325788974762,4.162683637787268e-07,0.4329646527767181,0.665174663066864,-0.0195555128157138,0.388559877872467,0.5697009563446045,-0.0249930266290903,0.3606433272361755,0.5007188320159912,-0.0306928846985101,0.3306106328964233,0.4586997032165527,-0.0358107462525367,0.4706810116767883,0.4205384850502014,0.0033789852168411,0.4715161919593811,0.3204757571220398,-0.0063723823986947,0.4737231135368347,0.2607052326202392,-0.019261484965682,0.4783628284931183,0.2096787095069885,-0.0298517290502786,0.5193451046943665,0.4197731614112854,-0.001940717222169,0.5359125137329102,0.3097773194313049,-0.0030559801962226,0.5469455122947693,0.242807000875473,-0.0088643077760934,0.5547013878822327,0.1900791525840759,-0.0148590756580233,0.5629521608352661,0.443355530500412,-0.0130010955035686,0.5932587385177612,0.3497604727745056,-0.0181815605610609,0.6103997826576233,0.2900075018405914,-0.0241817608475685,0.6225113272666931,0.2383484244346618,-0.0303428638726472,0.598081648349762,0.4856347441673279,-0.0276872869580984,0.6360979080200195,0.4255152344703674,-0.0347482934594154,0.660434365272522,0.3851090669631958,-0.0372572317719459,0.6823675036430359,0.3467922210693359,-0.0395521931350231
2023-08-01 15:55:46.741995,9,244,0.6675710678100586,0.6250452399253845,-0.1372522711753845,0.3805642426013946,-0.05859375,0.9423828125,0.27001953125,0.49446502327919,0.7217877507209778,4.029017190987361e-07,0.4340688586235046,0.6637281179428101,-0.0194066781550645,0.3899819254875183,0.5672212243080139,-0.0249195173382759,0.363928735256195,0.4968835711479187,-0.0305933933705091,0.3349685966968536,0.4545805752277374,-0.0359366051852703,0.4716527462005615,0.4202377796173095,0.0017738911556079,0.4718938767910003,0.3203107118606567,-0.0090044792741537,0.4739067852497101,0.2601469159126282,-0.0229094699025154,0.4781630337238312,0.2086002230644226,-0.0344941355288028,0.5203900337219238,0.419247955083847,-0.0040286518633365,0.5375816226005554,0.3082985281944275,-0.0076795038767158,0.5489969849586487,0.2405113130807876,-0.0159831307828426,0.5573007464408875,0.1873913705348968,-0.0239874273538589,0.5631532073020935,0.4423052072525024,-0.015340301208198,0.5943438410758972,0.349524438381195,-0.0227211359888315,0.6114792823791504,0.289336085319519,-0.0315065830945968,0.6235253810882568,0.2372891008853912,-0.0397750586271286,0.5979433655738831,0.4839042425155639,-0.0300262682139873,0.6372089385986328,0.4224188327789306,-0.0382565446197986,0.6616007089614868,0.3811807632446289,-0.0422125458717346,0.6830825805664062,0.3412748575210571,-0.0460608899593353
2023-08-01 15:55:46.810160,10,245,0.66667640209198,0.6267168521881104,-0.1389609277248382,0.3787593245506286,-0.08056640625,0.96826171875,0.34228515625,0.5019211769104004,0.7210220694541931,2.443782420868956e-07,0.4415034353733063,0.665673017501831,-0.0159937757998704,0.3987487256526947,0.5640136003494263,-0.0186708681285381,0.3763337135314941,0.4856038689613342,-0.0224295724183321,0.3492272794246673,0.4373943507671356,-0.0263614039868116,0.4787087440490722,0.4324037730693817,0.0073879235424101,0.4761154055595398,0.3375577628612518,-0.0025122668594121,0.4740184843540191,0.2791891992092132,-0.016533562913537,0.4747743010520935,0.2258085459470749,-0.0290283169597387,0.5259984135627747,0.4275212287902832,-0.0005541552091017,0.5401172637939453,0.3193582892417907,-0.0059935352765023,0.5479016900062561,0.2488510608673095,-0.0170778185129165,0.5524585843086243,0.1915646195411682,-0.0280006621032953,0.5650455951690674,0.4455096125602722,-0.0138168148696422,0.5947421193122864,0.3574487268924713,-0.0233968272805213,0.6086146235466003,0.2971318364143371,-0.0345642119646072,0.6156831383705139,0.2431381642818451,-0.0448567196726799,0.5966492295265198,0.47957643866539,-0.0300450101494789,0.6316052079200745,0.4130506217479706,-0.0404399260878562,0.6516528129577637,0.3642879128456116,-0.0467875190079212,0.6663660407066345,0.3154505491256714,-0.0532262325286865
2023-08-01 15:55:46.878938,11,246,0.6672924160957336,0.6283523440361023,-0.1397294700145721,0.3746595978736877,0.05224609375,0.880859375,0.5185546875,0.5014998316764832,0.7168656587600708,2.598985417989752e-07,0.4426508545875549,0.6592409610748291,-0.0165015794336795,0.4015312194824219,0.5592052936553955,-0.0199296120554208,0.3810164630413055,0.4813042283058166,-0.0242486111819744,0.3563560247421264,0.4318791925907135,-0.0290177427232265,0.4817518889904022,0.4323713481426239,0.0051774680614471,0.4784736037254333,0.3385783731937408,-0.005987960845232,0.4755569994449615,0.2807141542434692,-0.0211091730743646,0.4751656353473663,0.2272693514823913,-0.0341941714286804,0.5290398597717285,0.4289053380489349,-0.0024842671118676,0.5431568622589111,0.322148323059082,-0.0091943470761179,0.5497919321060181,0.2518247067928314,-0.0219851732254028,0.5533360838890076,0.1931602358818054,-0.0340471938252449,0.5681577920913696,0.4480635821819305,-0.015205567702651,0.5967197418212891,0.359235942363739,-0.0255736298859119,0.6069265604019165,0.2980799674987793,-0.0378768667578697,0.6105412244796753,0.243752121925354,-0.0487683229148387,0.5998085737228394,0.4831219613552093,-0.0307661537081003,0.6328327655792236,0.4147367477416992,-0.0414483062922954,0.6502001285552979,0.3652311861515045,-0.0480208918452262,0.6616758704185486,0.3167483210563659,-0.0544358380138874
2023-08-01 15:55:46.936198,12,247,0.6663024425506592,0.6307880878448486,-0.1407709866762161,0.3719286024570465,-0.1015625,0.94921875,0.20654296875,0.5030519962310791,0.7152315378189087,2.4100361883938604e-07,0.4423484802246094,0.6534199714660645,-0.0183107070624828,0.4029189050197601,0.5520480871200562,-0.0225689094513654,0.3840663135051727,0.4707711338996887,-0.0274879354983568,0.3618592023849487,0.411808580160141,-0.0322980359196662,0.4848023653030395,0.4313476085662842,0.006796003319323,0.4820915162563324,0.3395298719406128,-0.0048948810435831,0.4788322150707245,0.2824578881263733,-0.0209847930818796,0.4777571558952331,0.228439524769783,-0.0349298268556594,0.5317440629005432,0.4291921257972717,-4.2236297304043546e-05,0.546471893787384,0.3247583508491516,-0.0077817160636186,0.5524590611457825,0.2542060017585754,-0.0223241448402404,0.5550304651260376,0.1937311589717865,-0.0357420481741428,0.5695030093193054,0.4491225779056549,-0.0122894216328859,0.5979644060134888,0.3622079789638519,-0.0239843726158142,0.6067148447036743,0.3014154434204101,-0.0379853807389736,0.607690155506134,0.2472609728574752,-0.0498505234718322,0.6004174947738647,0.4843996465206146,-0.0274409595876932,0.6322401762008667,0.4182885289192199,-0.0395534746348857,0.6454318761825562,0.3687267899513244,-0.047772292047739,0.6511794328689575,0.3205763697624206,-0.0552184097468853
2023-08-01 15:55:47.009107,13,248,0.665969729423523,0.6323965191841125,-0.1428935378789901,0.3689720332622528,-0.16162109375,0.96875,0.27294921875,0.501092791557312,0.7128039598464966,-1.270646663442676e-07,0.4428635239601135,0.6375123262405396,-0.0111921792849898,0.4106822907924652,0.5346571803092957,-0.0075567103922367,0.4043168723583221,0.4421336650848388,-0.0076140007004141,0.4038684964179992,0.3721970915794372,-0.0032460675574839,0.4885941743850708,0.4480805695056915,0.0391918048262596,0.4890269935131073,0.3668416738510132,0.0241684596985578,0.4814217984676361,0.3473997116088867,0.0072419620119035,0.4720508754253387,0.3617087006568908,0.0004683264996856,0.5305445790290833,0.4407036602497101,0.0364667437970638,0.5440308451652527,0.3494329154491424,0.0324294976890087,0.5414729118347168,0.3027456402778625,0.0227377377450466,0.5288802981376648,0.3032379746437073,0.0176843516528606,0.5689460635185242,0.4547156691551208,0.0258666556328535,0.5898818969726562,0.3769512176513672,0.0183634515851736,0.5863872170448303,0.3340735733509063,0.0141452951356768,0.5668734312057495,0.337893545627594,0.0151321673765778,0.6050854921340942,0.4815153479576111,0.0119671840220689,0.6304324865341187,0.421829342842102,0.0049712401814758,0.6249204277992249,0.3858312368392944,0.0037275583017617,0.6027754545211792,0.3842360079288482,0.0072465566918253
2023-08-01 15:55:47.070941,14,249,0.6661931276321411,0.6330642104148865,-0.1421231627464294,0.367719292640686,0.072265625,0.88330078125,0.423828125,0.5033944249153137,0.7035491466522217,-9.607689577251223e-08,0.4429280459880829,0.6252657175064087,-0.0129735963419079,0.4104018211364746,0.5284174680709839,-0.0090119037777185,0.4065639972686767,0.4373935461044311,-0.0095018343999981,0.410671204328537,0.3665422797203064,-0.0056318114511668,0.4886486232280731,0.4492731392383575,0.0517738536000251,0.4874278903007507,0.3764305412769317,0.0408055372536182,0.4786819517612457,0.3649334609508514,0.0224808994680643,0.4697217941284179,0.3790152668952942,0.0129406414926052,0.5286917090415955,0.4415273368358612,0.0502062700688838,0.5408318638801575,0.3553931713104248,0.0473994426429271,0.5356646180152893,0.3206073045730591,0.0322062335908412,0.524906575679779,0.328943133354187,0.0227528717368841,0.565682590007782,0.4534968733787536,0.0401050671935081,0.5861130952835083,0.3736992180347442,0.0333888493478298,0.5780170559883118,0.3420572876930237,0.023409329354763,0.5595618486404419,0.3595128655433655,0.0199648234993219,0.6042574048042297,0.4771411120891571,0.026496646925807,0.626006543636322,0.4134652614593506,0.0205679144710302,0.6149991750717163,0.380240648984909,0.0164411645382642,0.591480553150177,0.3848064541816711,0.0167603865265846
2023-08-01 15:55:47.130147,15,250,0.6646496653556824,0.6355206370353699,-0.1462306529283523,0.3646515905857086,0.05859375,0.93603515625,0.4111328125,0.5033548474311829,0.6939379572868347,-1.728718928006856e-07,0.4445803165435791,0.621651291847229,-0.0170872099697589,0.4122978448867798,0.5249733924865723,-0.018142607063055,0.4104741513729095,0.4346735775470733,-0.0237649157643318,0.4246433973312378,0.3641984760761261,-0.0249730870127677,0.4868099093437195,0.4468572735786438,0.0429845973849296,0.4882596433162689,0.3769424855709076,0.0229079462587833,0.4756798148155212,0.3758704662322998,-0.0006966947112232,0.4660879373550415,0.4048517942428589,-0.0124026127159595,0.5257056355476379,0.4408809840679168,0.0409976057708263,0.5428537726402283,0.3454029560089111,0.0252935551106929,0.5301971435546875,0.3307054042816162,0.0058955708518624,0.5165409445762634,0.3648744225502014,-0.0020063382107764,0.5615782737731934,0.4535703659057617,0.0304246190935373,0.5871191024780273,0.3653367161750793,0.0149099631235003,0.5713267922401428,0.3500192165374756,0.0035676809493452,0.5514283776283264,0.3829520344734192,0.0024120905436575,0.598651111125946,0.4795964956283569,0.0162829291075468,0.6228266358375549,0.4103069007396698,0.0059168995358049,0.6061375141143799,0.3859220147132873,0.0008480276446789,0.5795035362243652,0.4011167585849762,0.0018674918683245
2023-08-01 15:55:47.191370,16,251,0.6632509827613831,0.6353440880775452,-0.1471017748117447,0.3671471774578094,-0.22021484375,0.9287109375,0.3486328125,0.5036049485206604,0.693257212638855,-4.264563244760211e-07,0.4425738751888275,0.6135554313659668,-0.0144425425678491,0.4176453948020935,0.5182008147239685,-0.0177542734891176,0.4286409020423889,0.4303244948387146,-0.0271492190659046,0.4647582173347473,0.3778279721736908,-0.0328612700104713,0.4782454371452331,0.4567797780036926,0.0383203327655792,0.4844556450843811,0.3848005533218384,0.0170263759791851,0.4681464731693268,0.4111536741256714,-0.00504264049232,0.4621981084346771,0.4557183682918548,-0.0167312026023864,0.5156872272491455,0.4525386095046997,0.0339946933090686,0.5356106758117676,0.3578220009803772,0.0104138469323515,0.5142356157302856,0.3862605392932892,-0.0105143599212169,0.5032802224159241,0.4401617348194122,-0.0177844911813735,0.5533356070518494,0.4619685411453247,0.0226126722991466,0.5781459808349609,0.3686212599277496,0.002266839146614,0.5556007623672485,0.3873682618141174,-0.0089664347469806,0.5421237945556641,0.440736174583435,-0.0093938671052455,0.5926946401596069,0.4844205379486084,0.008525944314897,0.6078315377235413,0.4105817079544067,-0.0018364384304732,0.5876378417015076,0.4101698100566864,-0.0051147160120308,0.5703103542327881,0.446389377117157,-0.0034548249095678
2023-08-01 15:55:47.246514,17,252,0.6617166996002197,0.6349973678588867,-0.1517736762762069,0.3686110079288482,-0.02490234375,0.90234375,0.23193359375,0.5057088136672974,0.6898956298828125,-4.44892549467113e-07,0.4442925155162811,0.6121506690979004,-0.0122535228729248,0.4200100898742676,0.5148221254348755,-0.0168203022330999,0.4397123754024505,0.431930810213089,-0.0282037109136581,0.4855452477931976,0.3897432684898376,-0.0364453382790088,0.482682466506958,0.4622670114040375,0.0333662144839763,0.4904363751411438,0.3877369463443756,0.0092369560152292,0.4743142127990722,0.42166268825531,-0.0128150591626763,0.4693358540534973,0.4706795811653137,-0.0236398484557867,0.5185930132865906,0.4572033882141113,0.0273576024919748,0.5370702147483826,0.358412504196167,0.0007600488024763,0.514146625995636,0.4010852575302124,-0.017928771674633,0.5054997205734253,0.4611299633979797,-0.0217745471745729,0.5553669333457947,0.4649717211723327,0.014851882122457,0.5770514607429504,0.3653339743614197,-0.0088933305814862,0.5522734522819519,0.3995888829231262,-0.0161591116338968,0.5414149761199951,0.4604438841342926,-0.0117156151682138,0.5939844846725464,0.4861516952514648,3.700987508636899e-05,0.6094237565994263,0.4089764356613159,-0.0120472693815827,0.5862486958503723,0.4163484275341034,-0.0124288517981767,0.5687768459320068,0.4569295942783355,-0.00745649356395
2023-08-01 15:55:47.307096,18,253,0.6594395637512207,0.635418713092804,-0.1570319831371307,0.3697613179683685,0.0048828125,0.94189453125,0.3388671875,0.5073744654655457,0.6944658160209656,-4.702311855453445e-07,0.4458902776241302,0.6162427067756653,-0.0107234641909599,0.4218353033065796,0.5171215534210205,-0.0143464235588908,0.4466641843318939,0.4389241337776184,-0.0250161178410053,0.4954464435577392,0.4077010750770569,-0.0329478532075881,0.4787858426570892,0.4688521027565002,0.0330913253128528,0.4816584587097168,0.3926938772201538,0.0110391080379486,0.4665080308914184,0.4307920932769775,-0.0092680314555764,0.4631214141845703,0.4766241908073425,-0.0194208715111017,0.5152223706245422,0.4631509780883789,0.0270471051335334,0.527850866317749,0.3676142990589142,0.0015591909177601,0.5078569054603577,0.4161973595619201,-0.0163854584097862,0.5020124912261963,0.4741267263889313,-0.0198385007679462,0.552834689617157,0.4683307111263275,0.0150725645944476,0.5697081089019775,0.3681312501430511,-0.0064210155978798,0.5455235242843628,0.4099955260753631,-0.0114970989525318,0.5346574187278748,0.4723400771617889,-0.0060383942909538,0.5920295119285583,0.4860873520374298,0.0007612631306983,0.6015446782112122,0.4104564487934112,-0.0086677707731723,0.578850269317627,0.4228668212890625,-0.0070587894879281,0.5629444718360901,0.4637894034385681,-0.0011160336434841
2023-08-01 15:55:47.370360,19,254,0.658175528049469,0.6352851390838623,-0.1577245593070984,0.3719420433044433,0.01904296875,0.92041015625,0.3837890625,0.5096837282180786,0.6925910115242004,-4.993542574993626e-07,0.4473583996295929,0.6199686527252197,-0.0095084384083747,0.4192902445793152,0.5190610289573669,-0.013179363682866,0.4451133012771606,0.4406748116016388,-0.024190155789256,0.4987735152244568,0.4184355437755584,-0.0326875448226928,0.4736216366291046,0.472178965806961,0.0305348504334688,0.4725059270858764,0.3939867615699768,0.0071569867432117,0.4590453505516052,0.4379633963108063,-0.0124367969110608,0.4587317705154419,0.4824534058570862,-0.0218529682606458,0.5117512941360474,0.4679745137691498,0.0232002474367618,0.5213435888290405,0.3728591203689575,-0.0033997802529484,0.5009673237800598,0.4273686408996582,-0.0186636671423912,0.4969776570796966,0.4820473194122314,-0.019870163872838,0.5503402948379517,0.4730439782142639,0.0100182257592678,0.5647209286689758,0.369358628988266,-0.013027898967266,0.540045440196991,0.421099841594696,-0.0132386963814497,0.5320882797241211,0.483140230178833,-0.0038733386900275,0.5901464819908142,0.4903093874454498,-0.0054816864430904,0.5958134531974792,0.4113676249980926,-0.0153652718290686,0.5713385343551636,0.4326575100421905,-0.010248651728034,0.5577788949012756,0.4759994745254516,-0.0015509973745793
2023-08-01 15:55:47.432938,20,255,0.6571815013885498,0.6356757283210754,-0.1609739363193512,0.3716401159763336,0.04345703125,0.9189453125,0.3701171875,0.5089674592018127,0.7074432373046875,-5.697648362001928e-07,0.4463314116001129,0.634984016418457,-0.0070721451193094,0.4140112400054931,0.5329993367195129,-0.0098231742158532,0.442227840423584,0.4581494927406311,-0.019247705116868,0.498359352350235,0.4552956819534302,-0.0261768735945224,0.4669448435306549,0.4842987060546875,0.022672988474369,0.4663841128349304,0.4073325991630554,-0.0023740029428154,0.4572034478187561,0.4622121155261993,-0.0202366597950458,0.4601438343524933,0.5036340951919556,-0.0291332304477691,0.5061495900154114,0.4834195673465729,0.013816038146615,0.5115491151809692,0.3945404887199402,-0.0128574278205633,0.4965983927249908,0.4583546221256256,-0.022606361657381,0.4971964359283447,0.5037822127342224,-0.0208451934158802,0.5454309582710266,0.4901376962661743,-0.0004496435576584,0.5540590882301331,0.3931422531604767,-0.0237638521939516,0.5355977416038513,0.4553950130939483,-0.0168522540479898,0.533031702041626,0.5086879730224609,-0.0033934013918042,0.5860238075256348,0.5092175602912903,-0.0168538410216569,0.5857354402542114,0.4295147955417633,-0.0257950909435749,0.5658113956451416,0.4633600413799286,-0.0154560161754488,0.5598070621490479,0.5047550797462463,-0.0037669520825147
2023-08-01 15:55:47.498780,21,256,0.6569176316261292,0.6361470818519592,-0.1617362946271896,0.3709683418273926,0.06103515625,0.9150390625,0.38037109375,0.5134264230728149,0.703082799911499,-5.457016527543601e-07,0.4474201798439026,0.636806070804596,-0.00777752045542,0.4125193059444427,0.539623498916626,-0.01054257620126,0.4383045434951782,0.4627483785152435,-0.0199171360582113,0.4934403002262115,0.460644781589508,-0.0264519471675157,0.4652182459831238,0.4936162531375885,0.0247411895543336,0.4635629653930664,0.4158351421356201,-0.0014358265325427,0.4511879682540893,0.4717849493026733,-0.0194395817816257,0.4525989890098572,0.5131396651268005,-0.0278066117316484,0.5034830570220947,0.4921714961528778,0.0162951909005641,0.5076611042022705,0.4034595787525177,-0.0118112890049815,0.4917821884155273,0.4685114324092865,-0.021758334711194,0.494224488735199,0.5119099617004395,-0.019354349002242,0.5426381826400757,0.4965144693851471,0.0020303726196289,0.5496842265129089,0.3990096747875213,-0.0235951468348503,0.5293933153152466,0.4646119773387909,-0.0169021859765052,0.529069185256958,0.5165024399757385,-0.0025309771299362,0.5845196843147278,0.5120363235473633,-0.0143436854705214,0.582345724105835,0.4341111481189728,-0.0252150278538465,0.5609946250915527,0.4732795357704162,-0.0153230065479874,0.5575621128082275,0.5153450965881348,-0.0032940278761088
2023-08-01 15:55:47.557076,22,257,0.6567597389221191,0.636747419834137,-0.1605333834886551,0.3707404434680938,-0.0009765625,0.94140625,0.37060546875,0.5091778635978699,0.6996349096298218,-5.347430942492792e-07,0.4465292394161224,0.6348581314086914,-0.0091021340340375,0.4119833111763,0.5396612286567688,-0.0127878403291106,0.4371079206466675,0.4664083421230316,-0.02226123213768,0.48980313539505,0.4683874547481537,-0.028854351490736,0.4651192426681518,0.4962548017501831,0.0196147412061691,0.4616764485836029,0.4196718335151672,-0.0080857593566179,0.4497265219688415,0.478067547082901,-0.0255101826041936,0.453607827425003,0.5167711973190308,-0.033474612981081,0.5025660395622253,0.4952099025249481,0.0117847304791212,0.5039793252944946,0.4088616073131561,-0.0175750441849231,0.4881369173526764,0.4764754772186279,-0.025753678753972,0.4943081140518188,0.5148293972015381,-0.0218726750463247,0.5411429405212402,0.5001903176307678,-0.0019363411702215,0.5453196167945862,0.4066860973834991,-0.0288431476801633,0.525172233581543,0.4754598438739776,-0.0202331393957138,0.5285002589225769,0.5223937034606934,-0.004318494349718,0.5831120610237122,0.515699565410614,-0.0178049728274345,0.5776689648628235,0.4411951005458832,-0.0294368546456098,0.5574702620506287,0.4833917021751404,-0.0188008490949869,0.5585452318191528,0.5216692686080933,-0.0060851592570543
2023-08-01 15:55:47.628892,23,258,0.6565725803375244,0.636812686920166,-0.1599867492914199,0.3711958229541778,-0.04248046875,0.9423828125,0.318359375,0.5112318396568298,0.699847936630249,-5.409973482528585e-07,0.4459289908409118,0.6373013257980347,-0.0103600714355707,0.4121723175048828,0.541393518447876,-0.0129020968452095,0.4408114552497864,0.4724863171577453,-0.020545108243823,0.4924743771553039,0.4741653800010681,-0.0250040329992771,0.4638864398002624,0.4974235296249389,0.0184620097279548,0.4591480791568756,0.4261932671070099,-0.0098338825628161,0.4475059509277344,0.4854724109172821,-0.0264676827937364,0.4540095925331116,0.5198462009429932,-0.0340063981711864,0.5022622346878052,0.4962457716464996,0.0114428745582699,0.50238037109375,0.4133025705814361,-0.0192710142582654,0.4865396320819855,0.4836795032024383,-0.0259122233837842,0.4966863393783569,0.5169252753257751,-0.0202918145805597,0.5408855676651001,0.5021083354949951,-0.0017942147096619,0.5432311296463013,0.4143570065498352,-0.0298554524779319,0.522904634475708,0.4852230846881866,-0.0195758920162916,0.5301876068115234,0.5245608687400818,-0.0022438475862145,0.5834553837776184,0.5182434320449829,-0.0173286385834217,0.5769487619400024,0.4480012059211731,-0.0297821145504713,0.5564982295036316,0.4923413693904876,-0.0185024477541446,0.5602051615715027,0.525831401348114,-0.0050732041709125
2023-08-01 15:55:47.690029,24,259,0.6563388705253601,0.6367670297622681,-0.1590730100870132,0.3720791935920715,-0.00244140625,0.93310546875,0.3408203125,0.5161358118057251,0.7072782516479492,-5.73387922031543e-07,0.4507668912410736,0.6449226140975952,-0.0116421328857541,0.4171743094921112,0.5437783002853394,-0.013701663352549,0.4476029574871063,0.47627854347229,-0.0200567450374364,0.4992706477642059,0.4897850155830383,-0.0222954675555229,0.475518524646759,0.4992283880710602,0.0169462766498327,0.4753254652023315,0.4305986762046814,-0.0120928678661584,0.457625150680542,0.4923027157783508,-0.0273114964365959,0.4601593017578125,0.5220881700515747,-0.0339670665562152,0.5112295746803284,0.5009230971336365,0.0109001668170094,0.5107218027114868,0.4250096380710602,-0.0213221609592437,0.4912138879299164,0.4965055584907532,-0.0261265244334936,0.5012580752372742,0.5221875309944153,-0.0187387615442276,0.5474203824996948,0.5086411237716675,-0.001737316371873,0.5471136569976807,0.4315145611763,-0.0301077626645565,0.5264230370521545,0.5011221766471863,-0.0186293888837099,0.535549521446228,0.5307507514953613,-0.000528848322574,0.5881506204605103,0.5257875919342041,-0.0169530771672725,0.5784568190574646,0.4625176787376404,-0.0285168811678886,0.5591935515403748,0.5074536800384521,-0.0168973300606012,0.5659044981002808,0.5361270904541016,-0.0033524942118674
2023-08-01 15:55:47.746395,25,260,0.6562905311584473,0.6364012956619263,-0.1582661420106887,0.3731327652931213,-0.02587890625,0.93359375,0.3486328125,0.5155217051506042,0.7036553621292114,-5.536912226489221e-07,0.4506951868534088,0.6417850255966187,-0.0095927771180868,0.418094664812088,0.5454570651054382,-0.0109264375641942,0.4464412629604339,0.4789562225341797,-0.0171807203441858,0.4973858296871185,0.4859025776386261,-0.0196319576352834,0.472628653049469,0.5013245344161987,0.0202882643789052,0.4700627624988556,0.435746282339096,-0.0073631666600704,0.4546072781085968,0.4959111213684082,-0.0220817923545837,0.4592573344707489,0.5250983834266663,-0.0285566132515668,0.5092197060585022,0.5016310811042786,0.0133286351338028,0.5088682174682617,0.4276090562343597,-0.0176029540598392,0.490760862827301,0.4967757165431976,-0.0223682504147291,0.5011840462684631,0.5212790369987488,-0.015366624109447,0.5464180707931519,0.5094176530838013,-9.446316107641906e-05,0.5471958518028259,0.4324644207954407,-0.0283261183649301,0.5265666246414185,0.5021969676017761,-0.0166879799216985,0.5353606343269348,0.5327501893043518,0.0013604857958853,0.5884090065956116,0.5270130038261414,-0.0158064980059862,0.5787637233734131,0.4654421508312225,-0.0280497651547193,0.559431254863739,0.5094004273414612,-0.0166976973414421,0.5658663511276245,0.5368807315826416,-0.0033240208867937
2023-08-01 15:55:47.808874,26,261,0.6555949449539185,0.6372506618499756,-0.1594591438770294,0.3723972737789154,-0.01611328125,0.92626953125,0.37841796875,0.5179126262664795,0.7050710320472717,-5.542635221900127e-07,0.4529330432415008,0.644928514957428,-0.0101554160937666,0.420646607875824,0.5476992726325989,-0.0113415336236357,0.4484833180904388,0.4815336465835571,-0.0169554762542247,0.4987089037895202,0.4865485727787018,-0.0186175815761089,0.4770272970199585,0.5021289587020874,0.0182321816682815,0.4737187027931213,0.4366868436336517,-0.0098980357870459,0.4592291116714477,0.4968730807304382,-0.0244319140911102,0.4646068215370178,0.5261420011520386,-0.0305092185735702,0.5130630135536194,0.5025999546051025,0.0117839993909001,0.511441171169281,0.4292842745780945,-0.0193859282881021,0.4937010705471039,0.4998588562011719,-0.0235538780689239,0.5050000548362732,0.5243927240371704,-0.0159158743917942,0.5491174459457397,0.5107666850090027,-0.0010934427846223,0.5480852723121643,0.4354544579982757,-0.0295766722410917,0.5276471972465515,0.5065089464187622,-0.0175067912787199,0.5373145341873169,0.5366930961608887,0.0009667398990131,0.589881181716919,0.5285084247589111,-0.016251977533102,0.5785973072052002,0.4692354202270508,-0.0288454014807939,0.5594668388366699,0.5140827894210815,-0.0174574125558137,0.5668116807937622,0.5404706001281738,-0.0038881946820765
2023-08-01 15:55:47.875235,27,262,0.656235933303833,0.6379361152648926,-0.1616208553314209,0.3691484928131103,-0.03857421875,0.90185546875,0.3330078125,0.5143853425979614,0.7047054767608643,-5.431651288745343e-07,0.4505975842475891,0.6416628360748291,-0.0081041902303695,0.4214272201061249,0.545705258846283,-0.009429769590497,0.4497521221637726,0.4833154678344726,-0.0157104320824146,0.4985810816287994,0.4896721243858337,-0.018344847485423,0.4795828759670257,0.5024686455726624,0.0187239199876785,0.4769214689731598,0.4360586702823639,-0.0096425814554095,0.4614129066467285,0.4951114058494568,-0.0246451124548912,0.46721351146698,0.526395320892334,-0.0307929571717977,0.5147107839584351,0.504648745059967,0.0113898199051618,0.5132518410682678,0.4290618896484375,-0.0202989429235458,0.4945396780967712,0.4979524910449981,-0.0256081167608499,0.5066291689872742,0.5253599882125854,-0.0184730216860771,0.5505308508872986,0.5133710503578186,-0.0020433338358998,0.5484660267829895,0.4361066520214081,-0.0298913568258285,0.5274150371551514,0.5054184794425964,-0.0186382196843624,0.538193941116333,0.5370246767997742,-0.0006429179920814,0.5912777185440063,0.5311691164970398,-0.0175483990460634,0.5775318741798401,0.4706552624702453,-0.0292517207562923,0.5584675669670105,0.5133162140846252,-0.0181116461753845,0.5672097206115723,0.5401210188865662,-0.0047347303479909
2023-08-01 15:55:47.929225,28,263,0.6568116545677185,0.6383333206176758,-0.1640410423278808,0.3663598597049713,-0.041015625,0.8916015625,0.37939453125,0.5166076421737671,0.7051485776901245,-5.753053073931369e-07,0.4528245031833648,0.6452734470367432,-0.0081166960299015,0.4228723347187042,0.5486924052238464,-0.0089194290339946,0.4498704671859741,0.483818769454956,-0.0146685615181922,0.4981460273265838,0.4856167435646057,-0.0165146496146917,0.4811379909515381,0.5030932426452637,0.018981272354722,0.4787774682044983,0.4357720911502838,-0.0096014197915792,0.4623009860515594,0.4955102503299713,-0.0243603698909282,0.4671443104743957,0.5282748937606812,-0.0301064886152744,0.5158721208572388,0.5049939751625061,0.0115749705582857,0.5149651765823364,0.429398626089096,-0.0198052041232585,0.4959481954574585,0.4994561672210693,-0.0241572149097919,0.5067986249923706,0.5274279713630676,-0.0163774415850639,0.5509966015815735,0.513143002986908,-0.0020836165640503,0.5491105318069458,0.4350310564041137,-0.0302317347377538,0.5282881259918213,0.5051917433738708,-0.0182494483888149,0.5385502576828003,0.5370345115661621,0.0001233805669471,0.5913549065589905,0.5305117964744568,-0.0178206581622362,0.5782286524772644,0.4698010087013244,-0.0302385706454515,0.5597082376480103,0.5135906338691711,-0.0189640317112207,0.5683064460754395,0.5402946472167969,-0.0054232631810009
2023-08-01 15:55:47.988947,29,264,0.6595692038536072,0.6380581259727478,-0.1599038392305374,0.3637045323848724,0.0869140625,0.93359375,0.349609375,0.513972818851471,0.7004480957984924,-5.551924004976172e-07,0.4520607590675354,0.640423595905304,-0.0093258945271372,0.4218601882457733,0.542952299118042,-0.011250770650804,0.4493856430053711,0.4783958196640014,-0.0176691357046365,0.4984963834285736,0.4834643900394439,-0.0202998090535402,0.4825541079044342,0.4969559609889984,0.015237882733345,0.4827463030815124,0.4290429651737213,-0.0141794579103589,0.4652790427207947,0.4889127910137176,-0.0290887299925088,0.4690056145191192,0.5219578742980957,-0.0347113944590091,0.5173760056495667,0.5006812214851379,0.0084145497530698,0.5178408026695251,0.4255588948726654,-0.023712420836091,0.4976701736450195,0.4969978332519531,-0.0276358891278505,0.5079904198646545,0.526185154914856,-0.0193591155111789,0.5519396662712097,0.5104680061340332,-0.0046042189933359,0.5515539646148682,0.4329075515270233,-0.0334392860531806,0.5293401479721069,0.5041926503181458,-0.0212187767028808,0.5382548570632935,0.5377543568611145,-0.0023334203287959,0.590690016746521,0.5294346213340759,-0.0196765400469303,0.5788857340812683,0.4693357646465301,-0.0323837846517562,0.559293806552887,0.5137025117874146,-0.0209571551531553,0.5665833950042725,0.5411424040794373,-0.0071090147830545
2023-08-01 15:55:48.035012,30,265,0.6604040265083313,0.6380195617675781,-0.157587856054306,0.3632680177688598,0.033203125,0.9208984375,0.349609375,0.5156093239784241,0.6997325420379639,-5.389559873947292e-07,0.4523474276065826,0.6397883296012878,-0.0089579308405518,0.4218104779720306,0.5393583178520203,-0.0103476578369736,0.4510006606578827,0.4732336401939392,-0.0160788241773843,0.5019961595535278,0.4773511886596679,-0.0182427521795034,0.4789272248744964,0.4993920624256134,0.0157169364392757,0.4780040979385376,0.430063784122467,-0.0116730146110057,0.4618902504444122,0.4881469309329986,-0.0259587131440639,0.4673746526241302,0.5214378833770752,-0.0317609347403049,0.515471339225769,0.5007236003875732,0.0089506832882761,0.5172070860862732,0.4213972091674804,-0.0213011000305414,0.4971963763236999,0.4906236529350281,-0.0255782958120107,0.507537841796875,0.5228127837181091,-0.0180213544517755,0.5514358282089233,0.5098778009414673,-0.0036647527012974,0.5525661706924438,0.4264001250267029,-0.0305874031037092,0.529833972454071,0.4960343241691589,-0.0192423425614833,0.5388507843017578,0.5321733355522156,-0.0016726679168641,0.5911954045295715,0.529556930065155,-0.0182808227837085,0.5785015225410461,0.4698666334152221,-0.030607845634222,0.5584997534751892,0.5124590396881104,-0.020394142717123,0.5663590431213379,0.5403273701667786,-0.0078814076259732
2023-08-01 15:55:48.090115,31,266,0.6610296368598938,0.6381375193595886,-0.152730792760849,0.3639965355396271,-0.06201171875,0.94873046875,0.3896484375,0.5109812021255493,0.6951617002487183,-4.835957838622562e-07,0.4507227540016174,0.6316829919815063,-0.0116338990628719,0.4222245216369629,0.5406808257102966,-0.0159158706665039,0.447941392660141,0.4679994583129883,-0.0255702920258045,0.49649778008461,0.4360377192497253,-0.0319277271628379,0.4819543063640594,0.4937426149845123,0.0244545266032218,0.4883652925491333,0.4179510474205017,-0.0007874055881984,0.4724501967430115,0.4669342339038849,-0.0196208637207746,0.4717350006103515,0.5139997601509094,-0.0282076057046651,0.5184141993522644,0.4938137829303741,0.01857884041965,0.5297641754150391,0.4048559665679931,-0.0092197526246309,0.5080593228340149,0.4664636254310608,-0.0220160447061061,0.5077846646308899,0.5205239057540894,-0.0210605058819055,0.5553504228591919,0.5014553666114807,0.0066906888969242,0.5694022178649902,0.4035195112228393,-0.0204108096659183,0.5424860715866089,0.4624058604240417,-0.0171585977077484,0.5370655059814453,0.5219370126724243,-0.0043383282609283,0.5944289565086365,0.5214746594429016,-0.0072292052209377,0.5949640870094299,0.4459509253501892,-0.0236066859215497,0.5697816610336304,0.4813471436500549,-0.0174464304000139,0.5607365369796753,0.5283250212669373,-0.0065245167352259
2023-08-01 15:55:48.146459,32,267,0.6618199944496155,0.6366540193557739,-0.1506465822458267,0.3660211563110351,-0.03369140625,0.9326171875,0.35693359375,0.5120421648025513,0.697333812713623,-5.357271106731787e-07,0.4471775889396667,0.6304191946983337,-0.0127251837402582,0.4180836677551269,0.5407329797744751,-0.0173987038433551,0.4396711885929107,0.4630835652351379,-0.0279274825006723,0.483763724565506,0.4190015494823456,-0.0351506359875202,0.4848753809928894,0.4908323585987091,0.0275222640484571,0.4926174879074096,0.416224718093872,0.0007162317051552,0.4761070907115936,0.4613863527774811,-0.0204375497996807,0.4729085564613342,0.5122158527374268,-0.0301566962152719,0.5196484327316284,0.4898826777935028,0.0213339887559413,0.5329672694206238,0.3976645469665527,-0.0084093837067484,0.5089142322540283,0.4580326676368713,-0.0236856453120708,0.5068058967590332,0.5174253582954407,-0.0237066987901926,0.5570065975189209,0.4981971979141235,0.0087691145017743,0.5739948749542236,0.3978462219238281,-0.0203195810317993,0.5450384616851807,0.4542087614536285,-0.0189386308193206,0.5390146970748901,0.5151274800300598,-0.0064876019023358,0.5960593819618225,0.5202571153640747,-0.0058511886745691,0.601256251335144,0.4409613609313965,-0.022865917533636,0.5737645626068115,0.4718424379825592,-0.016679311171174,0.562528133392334,0.5193190574645996,-0.0051364540122449
2023-08-01 15:55:48.205302,33,268,0.6632903218269348,0.633917510509491,-0.1510353088378906,0.3679443299770355,0.0498046875,0.90185546875,0.35595703125,0.5122755765914917,0.7002178430557251,-5.020509092901193e-07,0.446551501750946,0.6331685781478882,-0.0146540571004152,0.4164655804634094,0.5454839468002319,-0.0199985429644584,0.4330945014953613,0.4645672440528869,-0.03104511462152,0.4684637188911438,0.4111217260360718,-0.0382650904357433,0.4893942177295685,0.4871493279933929,0.0266594737768173,0.499920517206192,0.4073749482631683,-0.0005539948469959,0.4813301265239715,0.4452279210090637,-0.0219538528472185,0.4744290709495544,0.4966992735862732,-0.0312314126640558,0.524191677570343,0.4853644967079162,0.0208770260214805,0.5403339266777039,0.3873756825923919,-0.0093177184462547,0.5148547291755676,0.4375324249267578,-0.0262443833053112,0.5089765191078186,0.4982355535030365,-0.0274172145873308,0.560599684715271,0.4941886663436889,0.0083614094182848,0.5811465978622437,0.3936105370521545,-0.0201779454946517,0.552422821521759,0.4390294551849365,-0.0231553502380847,0.5434527397155762,0.4988815486431122,-0.0141125982627272,0.598967969417572,0.516269326210022,-0.0064353579655289,0.6114682555198669,0.4351004660129547,-0.0235341899096965,0.5837894082069397,0.4570052623748779,-0.0210344307124614,0.5674182772636414,0.5030111074447632,-0.0123895490542054
2023-08-01 15:55:48.256818,34,269,0.6649873852729797,0.6306530833244324,-0.1483916938304901,0.3715486526489258,0.00341796875,0.90869140625,0.33837890625,0.5119773745536804,0.7061781287193298,-3.294624377758737e-07,0.4455673694610595,0.6450907588005066,-0.0191117096692323,0.411885917186737,0.5511711835861206,-0.0236844420433044,0.4193013906478882,0.4641745984554291,-0.0324902795255184,0.4477461278438568,0.4023484885692596,-0.0367360152304172,0.4927292764186859,0.4821782112121582,0.0308028813451528,0.4997771084308624,0.4070677757263183,0.0074421381577849,0.4824658930301666,0.4141865968704223,-0.0136309843510389,0.4740247130393982,0.4508652091026306,-0.0231590662151575,0.5310009717941284,0.4786477088928222,0.0286417677998542,0.5487182140350342,0.3849905133247375,0.0026527584996074,0.5239650011062622,0.4019947350025177,-0.015812873840332,0.511116087436676,0.4539876580238342,-0.0193113014101982,0.566881537437439,0.4876834154129028,0.0188535470515489,0.5883665680885315,0.3983757495880127,-0.0051594460383057,0.5630420446395874,0.4121599793434143,-0.0142866224050521,0.5512943863868713,0.4615070521831512,-0.0107118161395192,0.6052144765853882,0.5085676908493042,0.0060596349649131,0.6238043904304504,0.4327989220619201,-0.0090782986953854,0.6028175354003906,0.4264234602451324,-0.0129873752593994,0.5851758718490601,0.4574103653430938,-0.0094866370782256
2023-08-01 15:55:48.316774,35,270,0.6680776476860046,0.6271247267723083,-0.1477212458848953,0.3722433745861053,-0.013671875,0.9033203125,0.39990234375,0.4985748529434204,0.7096899747848511,-6.694079068836345e-09,0.4408410787582397,0.6441430449485779,-0.0172166600823402,0.4069032669067383,0.5530757904052734,-0.0189366415143013,0.4023259580135345,0.4702233076095581,-0.0217848848551511,0.4071863889694214,0.4053705930709839,-0.0216035638004541,0.4913944602012634,0.4619529247283935,0.0239583048969507,0.4892043769359588,0.3895647823810577,0.0149283856153488,0.479330837726593,0.3538146615028381,-0.0003135049773845,0.4652576446533203,0.328465849161148,-0.0116359628736972,0.5342745780944824,0.45980104804039,0.0224700886756181,0.5408294200897217,0.3832375109195709,0.0171343181282281,0.5373998284339905,0.341199517250061,0.0034292570780962,0.5249391198158264,0.3290358185768127,-0.0061694690957665,0.571753203868866,0.4753547310829162,0.014791558496654,0.5872653722763062,0.4032686352729797,0.004187561571598,0.5866076946258545,0.364632099866867,-0.0068951230496168,0.572437584400177,0.3573183119297027,-0.0123375877737998,0.6065133810043335,0.5032598376274109,0.0043437653221189,0.6269569396972656,0.4459443092346191,-0.0091916406527161,0.6270958781242371,0.4072458148002624,-0.0183519087731838,0.6154942512512207,0.3892782032489776,-0.0218611545860767
2023-08-01 15:55:48.374226,36,271,0.6709436774253845,0.6239491105079651,-0.1473718434572219,0.3725635111331939,-0.06787109375,0.90087890625,0.36767578125,0.500354528427124,0.7065021395683289,5.1332030182038586e-08,0.4399543404579162,0.6487365961074829,-0.0184352081269025,0.4046112895011902,0.5567986369132996,-0.0234386101365089,0.3944104313850403,0.4746464490890503,-0.029009498655796,0.3955305516719818,0.4091838002204895,-0.0325060859322547,0.4913896322250366,0.4599641263484955,0.0133966747671365,0.488293707370758,0.3801260590553283,0.0021952267270535,0.4793629050254822,0.3350999653339386,-0.0141812516376376,0.4684319198131561,0.2960742712020874,-0.0274678487330675,0.5351523756980896,0.4574876129627228,0.0104945059865713,0.5412856340408325,0.3705686330795288,0.0032173516228795,0.5353466272354126,0.3139616549015045,-0.0114072551950812,0.521898627281189,0.2700121998786926,-0.0239550974220037,0.5722803473472595,0.4736035168170929,0.0018903925083577,0.590297520160675,0.3943552374839782,-0.0080097848549485,0.5871509313583374,0.3457502722740173,-0.020350769162178,0.57248455286026,0.3083109259605407,-0.0300154946744442,0.6054771542549133,0.5044167041778564,-0.0096590621396899,0.6308794021606445,0.4450994729995727,-0.0214500576257705,0.6328376531600952,0.4025962650775909,-0.0306217353790998,0.6221190690994263,0.3665311932563782,-0.0372172333300113
2023-08-01 15:55:48.422854,37,272,0.6731261014938354,0.6212363839149475,-0.1485283523797989,0.372700959444046,-0.03759765625,0.9267578125,0.30517578125,0.4986035823822021,0.7086648941040039,1.20601058029024e-07,0.438010036945343,0.6510111093521118,-0.0168025624006986,0.4037916958332062,0.5569074749946594,-0.0213919728994369,0.3924855589866638,0.4755421876907348,-0.0265924334526062,0.386383593082428,0.4103654026985168,-0.0303805712610483,0.4918832778930664,0.4560154676437378,0.0084646800532937,0.4878001511096954,0.3692048192024231,-0.0031380872242152,0.4809008836746216,0.3184944987297058,-0.01896140165627,0.4747237861156463,0.2708261907100677,-0.0324065797030925,0.5361190438270569,0.4532822966575622,0.0032688635401427,0.5413630604743958,0.357101559638977,-0.0044386778026819,0.5384647846221924,0.2923555672168731,-0.0186216700822114,0.5315446257591248,0.2348307371139526,-0.0312405861914157,0.5734575390815735,0.4701632261276245,-0.007019187323749,0.5911152362823486,0.3848402500152588,-0.0171579625457525,0.591067373752594,0.3274024128913879,-0.0294523760676383,0.5825261473655701,0.274880051612854,-0.0400199890136718,0.606178879737854,0.5032006502151489,-0.0200964976102113,0.6353772878646851,0.4433517158031463,-0.0317250043153762,0.6427324414253235,0.3978066742420196,-0.0403246246278286,0.6389709711074829,0.3528144359588623,-0.0473137535154819
2023-08-01 15:55:48.469249,38,273,0.6750034689903259,0.6191306710243225,-0.1520593613386154,0.3713830113410949,0.0078125,0.89892578125,0.48779296875,0.5009557008743286,0.7115786671638489,1.736775914196187e-07,0.4409413337707519,0.6538107395172119,-0.0171995740383863,0.4053546786308288,0.5569218397140503,-0.0217193458229303,0.3926878571510315,0.4772396087646484,-0.0265719126909971,0.381272405385971,0.4152599573135376,-0.0306457914412021,0.4913666248321533,0.4531019330024719,0.0030986731871962,0.4862877130508423,0.362193763256073,-0.0097072711214423,0.4808050990104675,0.3062323927879333,-0.0252520553767681,0.4774183332920074,0.2548539340496063,-0.0382016152143478,0.5359680652618408,0.4507029354572296,-0.0031086874660104,0.542258620262146,0.3466999530792236,-0.013251781463623,0.5421510338783264,0.2758491635322571,-0.0280172582715749,0.5400331020355225,0.2142927944660186,-0.0403514094650745,0.5736886858940125,0.4686021208763122,-0.0140282493084669,0.5928841829299927,0.3755917251110077,-0.0267410669475793,0.5964649319648743,0.3117193281650543,-0.0403276458382606,0.5942833423614502,0.2551429867744446,-0.0511140152812004,0.606383204460144,0.5019834637641907,-0.027522662654519,0.6380082368850708,0.4364050030708313,-0.0407499335706234,0.652374267578125,0.3848557770252228,-0.0498509742319583,0.6592565774917603,0.3347249031066894,-0.0569408610463142
2023-08-01 15:55:48.517907,39,274,0.6766406893730164,0.6173321008682251,-0.1537631899118423,0.3706956803798675,-0.0126953125,0.93115234375,0.2783203125,0.5005121231079102,0.7179813385009766,2.3217127420593897e-07,0.4396411478519439,0.660157322883606,-0.0169147495180368,0.4035200476646423,0.5651530027389526,-0.0212277062237262,0.3882157802581787,0.4873359203338623,-0.0260778106749057,0.3748547434806824,0.4269655346870422,-0.0303498245775699,0.4885711967945099,0.4509752690792084,0.0037724969442933,0.4845898151397705,0.356733500957489,-0.0079132942482829,0.4802584946155548,0.297601580619812,-0.0225683022290468,0.4786823391914367,0.2438892424106598,-0.0353470332920551,0.5334526896476746,0.4477991461753845,-0.0033640994224697,0.5408563613891602,0.339908242225647,-0.0130658503621816,0.542248547077179,0.2673726677894592,-0.0279802922159433,0.5420107841491699,0.2050767838954925,-0.0405980236828327,0.572091817855835,0.4662071764469147,-0.0151654370129108,0.5929457545280457,0.3694098591804504,-0.0285419784486293,0.6001158952713013,0.3027719855308532,-0.0435912460088729,0.6021314859390259,0.2441754192113876,-0.0556722916662693,0.6062166094779968,0.5012415051460266,-0.0294564720243215,0.6435748338699341,0.4363463819026947,-0.0436521619558334,0.6639981865882874,0.3852554559707641,-0.0539122372865676,0.6779826283454895,0.3355855047702789,-0.062068585306406
2023-08-01 15:55:48.578785,40,275,0.678490400314331,0.615723192691803,-0.1539277583360672,0.3699216246604919,-0.064453125,0.92333984375,0.33154296875,0.4986418485641479,0.7252828478813171,2.7108572453471425e-07,0.4384780526161194,0.6690207123756409,-0.0165035594254732,0.4006327092647552,0.5705273151397705,-0.0205716080963611,0.3818441927433014,0.4935535490512848,-0.0250343084335327,0.3633605241775512,0.438669741153717,-0.0293160025030374,0.4836926460266113,0.4461255669593811,0.0028228804003447,0.4799097180366516,0.3507934808731079,-0.008129664696753,0.4774872362613678,0.291004329919815,-0.0224539320915937,0.4786237478256225,0.237655222415924,-0.0351384878158569,0.5302160978317261,0.4435439705848694,-0.0050190924666821,0.5393365025520325,0.3343814015388489,-0.0138626536354422,0.5428072214126587,0.2611124515533447,-0.0286750141531229,0.5447139739990234,0.1984215974807739,-0.0413817353546619,0.5703073143959045,0.4633480608463287,-0.0172851886600255,0.5939702987670898,0.3663060069084167,-0.0301531869918108,0.6041367650032043,0.2982851862907409,-0.0456898398697376,0.6095190048217773,0.2378707826137542,-0.0584660731256008,0.6043139696121216,0.5004898309707642,-0.0319114588201046,0.642936110496521,0.4349771738052368,-0.0460796244442462,0.6666889786720276,0.3844357132911682,-0.0561332739889621,0.6852808594703674,0.3352865278720855,-0.0642814040184021
2023-08-01 15:55:48.639007,41,276,0.6804105639457703,0.61436927318573,-0.1546058058738708,0.3683599531650543,-0.05029296875,0.89013671875,0.4794921875,0.4984875321388244,0.7419015169143677,3.879170265008725e-07,0.4327489137649536,0.6877542734146118,-0.0178604703396558,0.3901192843914032,0.5931122899055481,-0.023642336949706,0.3650554418563843,0.5210211873054504,-0.0295675098896026,0.3327880501747131,0.4809874594211578,-0.0356231518089771,0.4706818163394928,0.4478645324707031,0.0001684653834672,0.4675073623657226,0.3490486741065979,-0.0097042247653007,0.4680045247077942,0.2877663969993591,-0.023387162014842,0.472308337688446,0.2349189519882202,-0.0357896424829959,0.5193343758583069,0.4438332319259643,-0.0073483972810208,0.5309104919433594,0.3316995203495025,-0.0137092545628547,0.5382386445999146,0.2592886090278625,-0.0264231972396373,0.5441968441009521,0.1985440552234649,-0.0378443896770477,0.5617849826812744,0.4650253653526306,-0.0193856991827487,0.5910781621932983,0.3660119771957397,-0.0309896748512983,0.6082504987716675,0.3007965087890625,-0.0462622977793216,0.6209454536437988,0.2432189583778381,-0.0591964311897754,0.5965046882629395,0.5060499906539917,-0.0339164361357688,0.6389608979225159,0.4458792805671692,-0.0474072583019733,0.666606068611145,0.4020435810089111,-0.0568466633558273,0.6904411315917969,0.3597114682197571,-0.0647564306855201
2023-08-01 15:55:48.687126,42,277,0.6821231245994568,0.6128937005996704,-0.1558658331632614,0.3671175539493561,0.0166015625,0.88720703125,0.4248046875,0.5004372000694275,0.746575117111206,4.122489372093696e-07,0.4367309808731079,0.6898521780967712,-0.0187904220074415,0.3920908570289612,0.5936884880065918,-0.0243667419999837,0.3632075190544128,0.5236007571220398,-0.0303146298974752,0.3327009081840515,0.4788838326931,-0.0361606106162071,0.4728920459747314,0.4471673965454101,0.0016158252255991,0.4709080755710602,0.3473564386367798,-0.0097738644108176,0.4715386927127838,0.2857966125011444,-0.0244750883430242,0.4747858643531799,0.2331452071666717,-0.0369697846472263,0.5208621621131897,0.4430667459964752,-0.0054708668030798,0.5338046550750732,0.3283838033676147,-0.0117076821625232,0.5421751737594604,0.256180077791214,-0.0233397763222455,0.5477637052536011,0.1981848180294037,-0.0336627885699272,0.5635956525802612,0.4642028510570526,-0.0177605021744966,0.5910120010375977,0.3655887246131897,-0.0287983231246471,0.6062904000282288,0.3005844354629516,-0.042111724615097,0.6164416074752808,0.2434272468090057,-0.0534167923033237,0.5990321636199951,0.5046130418777466,-0.0329450815916061,0.6407385468482971,0.4417219460010528,-0.045509185642004,0.6671470403671265,0.3983634114265442,-0.0532304123044014,0.690098762512207,0.3566690683364868,-0.0596406795084476
