Timestamp,Index,Frame ID,w,x,y,z,ax,ay,az,x_0,y_0,z_0,x_1,y_1,z_1,x_2,y_2,z_2,x_3,y_3,z_3,x_4,y_4,z_4,x_5,y_5,z_5,x_6,y_6,z_6,x_7,y_7,z_7,x_8,y_8,z_8,x_9,y_9,z_9,x_10,y_10,z_10,x_11,y_11,z_11,x_12,y_12,z_12,x_13,y_13,z_13,x_14,y_14,z_14,x_15,y_15,z_15,x_16,y_16,z_16,x_17,y_17,z_17,x_18,y_18,z_18,x_19,y_19,z_19,x_20,y_20,z_20
2023-08-01 15:55:51.443307,0,328,0.6890877485275269,0.6038246750831604,-0.1399420499801635,0.3754597902297973,-0.03955078125,0.91064453125,0.38525390625,0.5030301213264465,0.7560913562774658,4.653018663702824e-07,0.4416818022727966,0.6932363510131836,-0.0197507739067077,0.3999794721603393,0.5970142483711243,-0.0275185741484165,0.3742828667163849,0.5305195450782776,-0.0355704613029956,0.3411017656326294,0.4885265231132507,-0.0442245826125144,0.4828168749809265,0.4438805282115936,-0.0047523789107799,0.4828892350196838,0.3405928611755371,-0.0189441796392202,0.4848417341709137,0.2756104469299316,-0.0350518785417079,0.4898528456687927,0.2193141281604766,-0.0487902387976646,0.5310257077217102,0.4416185617446899,-0.0134694008156657,0.5502268075942993,0.3217138648033142,-0.0240543186664581,0.5623750686645508,0.2441766709089279,-0.0389817245304584,0.5723189115524292,0.1802270114421844,-0.0518071725964546,0.5718598365783691,0.4665563404560089,-0.0270545687526464,0.6072386503219604,0.3634482026100158,-0.0430364087224006,0.6262186765670776,0.296323299407959,-0.0602175518870353,0.639887809753418,0.2352209389209747,-0.0741869658231735,0.6044365763664246,0.5127858519554138,-0.0432446710765361,0.654891312122345,0.4524096548557281,-0.060628741979599,0.6869267225265503,0.4072021543979645,-0.0717454925179481,0.7146321535110474,0.3617466688156128,-0.0807438567280769
2023-08-01 15:55:51.506500,1,329,0.6880091428756714,0.60356205701828,-0.1377195715904235,0.3786683678627014,-0.05517578125,0.8994140625,0.3935546875,0.5068352222442627,0.7565120458602905,4.74838344644013e-07,0.4448238015174866,0.6942297220230103,-0.0211268831044435,0.401819109916687,0.597545862197876,-0.0297351442277431,0.3751488924026489,0.5300157070159912,-0.0383744351565837,0.3414686918258667,0.4868232011795044,-0.047452837228775,0.4827873110771179,0.4432211518287658,-0.0059303953312337,0.4826362431049347,0.339356392621994,-0.0203141644597053,0.4846478104591369,0.2740069627761841,-0.0366232730448246,0.4894177913665771,0.2173859179019928,-0.0505004152655601,0.5314632058143616,0.4405480027198791,-0.0141452578827738,0.549782395362854,0.3203257322311401,-0.0248006787151098,0.5617648363113403,0.2430967837572097,-0.0397068411111831,0.5715757012367249,0.1792288720607757,-0.0524852648377418,0.5727871060371399,0.4652936458587646,-0.0273500140756368,0.6063727736473083,0.3626216351985931,-0.0434791669249534,0.6248379945755005,0.2947112917900085,-0.0609355010092258,0.638372004032135,0.2325050234794616,-0.0750865414738655,0.6057187914848328,0.5111918449401855,-0.0432690754532814,0.65504390001297,0.450804054737091,-0.0608350783586502,0.6870388388633728,0.4060753583908081,-0.0720715373754501,0.7148758172988892,0.3608182072639465,-0.0811070427298545
2023-08-01 15:55:51.566791,2,330,0.6860073208808899,0.6044349074363708,-0.1367104947566986,0.3812645375728607,-0.162109375,0.92578125,0.3740234375,0.5049497485160828,0.7544977068901062,4.628660974503873e-07,0.4434075653553009,0.690839409828186,-0.0195141732692718,0.4014246463775635,0.5930011868476868,-0.0266371946781873,0.3750109672546386,0.5255189538002014,-0.0340967737138271,0.3415690660476684,0.4841543138027191,-0.0420813523232936,0.4837209582328796,0.4422599673271179,-0.0030629148241132,0.4834685027599334,0.3378897309303283,-0.0162648614495992,0.4848101139068603,0.2726854681968689,-0.0317850448191165,0.4889455437660217,0.2161143124103546,-0.0451832897961139,0.5318353176116943,0.4396871328353882,-0.0115361781790852,0.5501051545143127,0.3195840418338775,-0.0210502818226814,0.5612344741821289,0.2418969571590423,-0.0355294533073902,0.57005774974823,0.1777260601520538,-0.0481090694665908,0.5728027820587158,0.4640416204929352,-0.0249359849840402,0.6071193218231201,0.3612273335456848,-0.0396251901984214,0.6253387928009033,0.2929158210754394,-0.0565597265958786,0.6383926272392273,0.2308457195758819,-0.0706148743629455,0.6052283048629761,0.5091975927352905,-0.0409993641078472,0.6543573141098022,0.4490010142326355,-0.0573319196701049,0.6856757402420044,0.4039524495601654,-0.0681385472416877,0.7129169702529907,0.3588037192821502,-0.0770805776119232
2023-08-01 15:55:51.630054,3,331,0.6829404234886169,0.6063535809516907,-0.13904470205307,0.382876306772232,0.03369140625,0.921875,0.419921875,0.5045754909515381,0.7534573078155518,4.355827911695087e-07,0.4438971281051636,0.6896076202392578,-0.0186493135988712,0.4025687575340271,0.5905861258506775,-0.025265509262681,0.3766751587390899,0.5227894186973572,-0.0323295034468174,0.3426700830459595,0.4804489910602569,-0.0401548035442829,0.4841673076152801,0.4413340389728546,-0.0025670586619526,0.4841380417346954,0.3390153646469116,-0.0156680196523666,0.4856171607971191,0.274260938167572,-0.0313377231359481,0.4896187782287597,0.2180462479591369,-0.0450088344514369,0.5320584177970886,0.4383242130279541,-0.0115661220625042,0.5507813096046448,0.3190587162971496,-0.0212128236889839,0.5620061755180359,0.2422172874212265,-0.0360089763998985,0.5704997777938843,0.1778094470500946,-0.0489152036607265,0.5725857615470886,0.462505578994751,-0.0253747664391994,0.6073167324066162,0.3598809838294983,-0.0408227555453777,0.625954270362854,0.2922001481056213,-0.0583403892815113,0.6391834616661072,0.229865163564682,-0.0727365463972091,0.604114830493927,0.5079464912414551,-0.0416699200868606,0.6529191732406616,0.4475797116756439,-0.0591342039406299,0.6849617958068848,0.40335813164711,-0.0704667493700981,0.712709903717041,0.3586498498916626,-0.0797189846634864
2023-08-01 15:55:51.690940,4,332,0.681145191192627,0.6053170561790466,-0.1343768239021301,0.389326810836792,-0.04150390625,0.9072265625,0.3330078125,0.5097368359565735,0.7496681213378906,3.451127099651785e-07,0.4481052458286285,0.6875346302986145,-0.0169959049671888,0.4043400287628174,0.58945631980896,-0.0225811582058668,0.3771181106567383,0.5189395546913147,-0.0296346899121999,0.3473510146141052,0.47290700674057,-0.0368998236954212,0.4858725965023041,0.4476069808006286,0.0043843458406627,0.4822405576705932,0.3496228158473968,-0.0074241422116756,0.4810939133167267,0.2871981859207153,-0.0226600356400012,0.4829319715499878,0.2330111265182495,-0.0357955060899257,0.5295183658599854,0.4405714571475982,-0.0044270595535635,0.5406771302223206,0.3230664134025574,-0.0125835305079817,0.5467396974563599,0.2485020905733108,-0.0255083851516246,0.5510975122451782,0.1862720251083374,-0.0367987863719463,0.5681940317153931,0.4583744406700134,-0.0184663273394107,0.5959652662277222,0.3546752631664276,-0.0315837077796459,0.610821545124054,0.2865872979164123,-0.0471371561288833,0.6212979555130005,0.2257836461067199,-0.060125458985567,0.6001154780387878,0.4962950050830841,-0.0352981910109519,0.6454932689666748,0.4340255260467529,-0.0499592535197734,0.6754562854766846,0.3880794644355774,-0.0599911138415336,0.7014524936676025,0.3437302708625793,-0.0683856159448623
2023-08-01 15:55:51.737864,5,333,0.6797611117362976,0.6058717966079712,-0.1334891468286514,0.3911839127540588,-0.07373046875,0.8994140625,0.396484375,0.5081061720848083,0.7439620494842529,3.190459665347589e-07,0.4473502039909363,0.6837348341941833,-0.0147396130487322,0.404993861913681,0.5874254703521729,-0.0192949082702398,0.3786172270774841,0.5178715586662292,-0.0257027205079793,0.3491019904613495,0.4717170894145965,-0.0327917300164699,0.4857238233089447,0.4494234025478363,0.0055834823288023,0.4808809459209442,0.3534369468688965,-0.0056084645912051,0.4778585135936737,0.2910493612289428,-0.0205254331231117,0.4780797660350799,0.2363541424274444,-0.0336400382220745,0.5283286571502686,0.4416676759719848,-0.0044808471575379,0.5374583601951599,0.3252478837966919,-0.0122942710295319,0.5422816872596741,0.2508291602134704,-0.0255560763180255,0.5457212924957275,0.1878358721733093,-0.0374551080167293,0.5661475658416748,0.4578795731067657,-0.0194248501211404,0.5927896499633789,0.3553917407989502,-0.0322401337325573,0.6062052249908447,0.2845356464385986,-0.0481713637709617,0.6151193380355835,0.22079399228096,-0.0619099214673042,0.597190260887146,0.493588775396347,-0.0369126722216606,0.6410755515098572,0.4307663440704345,-0.0517335459589958,0.6703152656555176,0.3828845620155334,-0.0621803626418113,0.6954846382141113,0.3363033533096313,-0.0711867287755012
2023-08-01 15:55:51.798884,6,334,0.6772318482398987,0.6082361936569214,-0.1342781037092209,0.3916312158107757,-0.02685546875,0.90966796875,0.375,0.5081008076667786,0.7391741275787354,2.943214383321902e-07,0.4472682476043701,0.67906254529953,-0.0168879479169845,0.4047996401786804,0.5862531661987305,-0.0233833733946084,0.3799503445625305,0.5160357356071472,-0.0312656126916408,0.3559594750404358,0.4637297987937927,-0.0394493602216243,0.4839721918106079,0.4510951638221741,0.0022243543062359,0.4789323508739471,0.3560923337936401,-0.0113380085676908,0.4751572608947754,0.2955576777458191,-0.0279103182256221,0.4744217991828918,0.2406522333621978,-0.042082279920578,0.5270854830741882,0.4430561661720276,-0.007249881979078,0.5361586213111877,0.3288327157497406,-0.0181176606565713,0.5394238829612732,0.2552807927131653,-0.0337641797959804,0.5413298010826111,0.1911936998367309,-0.0471525080502033,0.5649442076683044,0.4589262306690216,-0.0215372443199157,0.5905153751373291,0.356171190738678,-0.0365138053894043,0.6016578078269958,0.2855636477470398,-0.0527032874524593,0.607903003692627,0.2210569381713867,-0.0661405101418495,0.5968225598335266,0.4945711493492126,-0.0383969880640506,0.6379085779190063,0.4286932349205017,-0.0538510493934154,0.6634842753410339,0.3772675991058349,-0.0637726634740829,0.684180736541748,0.3266993761062622,-0.072156935930252
2023-08-01 15:55:51.848910,7,335,0.6769342422485352,0.6070129871368408,-0.1297617107629776,0.3955466151237488,-0.04248046875,0.91015625,0.2841796875,0.5086458325386047,0.7380868196487427,2.707345174712828e-07,0.4477423131465912,0.676925003528595,-0.0162921883165836,0.406383216381073,0.5816086530685425,-0.0215543378144502,0.3827545046806335,0.5077427625656128,-0.0281741227954626,0.3579500317573547,0.4554541409015655,-0.0351330675184726,0.4846585392951965,0.4539937674999237,0.0044274819083511,0.479206770658493,0.3597587347030639,-0.0081784650683403,0.4748429656028747,0.300013780593872,-0.0244289655238389,0.4733603894710541,0.245286226272583,-0.0384647138416767,0.5278695225715637,0.4455076456069946,-0.0047425883822143,0.535417377948761,0.3320446610450744,-0.0142556810751557,0.5380865931510925,0.2584591507911682,-0.0294372420758008,0.5392438173294067,0.1948661208152771,-0.0427150055766105,0.5657734274864197,0.4603064358234405,-0.0187268201261758,0.5881757736206055,0.3584405183792114,-0.0320605188608169,0.5975343585014343,0.2876381576061249,-0.0475781187415123,0.6019975543022156,0.2236610651016235,-0.0607705190777778,0.5982995629310608,0.493783950805664,-0.0353467054665088,0.6358405947685242,0.425846517086029,-0.0492417216300964,0.6588133573532104,0.3738525509834289,-0.0585103407502174,0.6768486499786377,0.3236180543899536,-0.0666510090231895
2023-08-01 15:55:51.908371,8,336,0.6769380569458008,0.6078348159790039,-0.1338370591402053,0.3929113745689392,0.04736328125,0.91650390625,0.4052734375,0.5093541145324707,0.735245943069458,2.040159046146073e-07,0.4488650560379028,0.6747888326644897,-0.0146932825446128,0.4076220393180847,0.5781933665275574,-0.0187198314815759,0.3847651481628418,0.5033714175224304,-0.0243168510496616,0.3599386215209961,0.4504640698432922,-0.030237603932619,0.4863038063049316,0.455100804567337,0.0074388128705322,0.4801076352596283,0.3637137413024902,-0.0047705550678074,0.4740109145641327,0.3066115975379944,-0.0211255215108394,0.4696182906627655,0.2535266578197479,-0.035192172974348,0.5288239121437073,0.4470964968204498,-0.0018555093556642,0.5361612439155579,0.3370572328567505,-0.0112268039956688,0.5363120436668396,0.2651012539863586,-0.0269048865884542,0.534029483795166,0.2022539973258972,-0.0405945517122745,0.5655407309532166,0.4610938727855682,-0.0159090142697095,0.5867873430252075,0.3618345260620117,-0.0284622740000486,0.593229353427887,0.2924273014068603,-0.0435479916632175,0.593925952911377,0.2297061383724212,-0.0564232617616653,0.5973052978515625,0.4926159083843231,-0.0324991047382354,0.6326346397399902,0.4238938391208648,-0.045102622359991,0.6520200967788696,0.3706025779247284,-0.0538172759115695,0.6655310988426208,0.3190301060676574,-0.0617053024470806
2023-08-01 15:55:51.953534,9,337,0.6772111654281616,0.6077542304992676,-0.1335979104042053,0.3926467895507812,-0.0361328125,0.92041015625,0.29638671875,0.5056937336921692,0.7351502776145935,-1.9630869019238162e-07,0.4466549158096313,0.6589062809944153,-0.0058935144916176,0.4096364080905914,0.5607436895370483,-0.0076579512096941,0.3898274302482605,0.4814667403697967,-0.014100469648838,0.369512677192688,0.4192527830600738,-0.0186952799558639,0.489388108253479,0.4575055837631225,0.0341811068356037,0.4912539720535278,0.3811905980110168,0.0160046592354774,0.4789060950279236,0.3558731079101562,-0.007012034766376,0.4604764580726623,0.3532285988330841,-0.0207212623208761,0.5287607312202454,0.4521751701831817,0.0246515218168497,0.5355402827262878,0.3609297275543213,0.0135750500485301,0.5244542956352234,0.3188654482364654,-0.0031075486913323,0.5033040642738342,0.3077112436294555,-0.0140522932633757,0.5638835430145264,0.465501606464386,0.0087375594303011,0.577972412109375,0.3812139332294464,-0.0003075401182286,0.5674208402633667,0.3352754712104797,-0.0082596726715564,0.5443152785301208,0.3150853514671325,-0.0131005737930536,0.5976218581199646,0.4976588487625122,-0.0098361978307366,0.6177677512168884,0.4315739572048187,-0.0164033900946378,0.6110917925834656,0.3888640999794006,-0.0192298125475645,0.5904043316841125,0.3625429272651672,-0.0202524382621049
2023-08-01 15:55:51.999711,10,338,0.6770401000976562,0.6091516613960266,-0.1360824108123779,0.3899135589599609,0.01611328125,0.904296875,0.45849609375,0.5020698308944702,0.7252757549285889,-1.420747537395073e-07,0.4467501640319824,0.6552673578262329,-0.0096753994002938,0.4098415970802307,0.5587430596351624,-0.014140329323709,0.3899613916873932,0.4810652434825897,-0.0223252959549427,0.370969295501709,0.41968435049057,-0.028128819540143,0.4880887866020202,0.4573205411434173,0.0263456720858812,0.4915662109851837,0.3804085254669189,0.0050121541135013,0.4779021739959717,0.3525081872940063,-0.0191778857260942,0.4566188156604767,0.3502586185932159,-0.0329032279551029,0.5273880958557129,0.4530747234821319,0.0186902768909931,0.5372093915939331,0.3633749485015869,0.0049447016790509,0.5261003375053406,0.3206283450126648,-0.0127472598105669,0.502282440662384,0.3097903728485107,-0.0241962727159261,0.5627769827842712,0.4667836427688598,0.0045730490237474,0.5808914303779602,0.3834955096244812,-0.007189733441919,0.570987343788147,0.3398203551769256,-0.017046021297574,0.5458769202232361,0.3236651420593261,-0.0226288866251707,0.5961251854896545,0.4968591630458832,-0.0121493097394704,0.6178264617919922,0.4307724833488464,-0.0218585543334484,0.6130561828613281,0.3868324756622314,-0.0276926849037408,0.5925428867340088,0.3593536019325256,-0.0303978528827428
2023-08-01 15:55:52.050029,11,339,0.6764429211616516,0.6101948022842407,-0.136745199561119,0.3890860974788666,-0.03271484375,0.9404296875,0.341796875,0.5037874579429626,0.7219800353050232,-1.628147430210447e-07,0.4465501010417938,0.6583513021469116,-0.0146409152075648,0.4086330533027649,0.5612677335739136,-0.0200201962143182,0.3888967931270599,0.480162501335144,-0.0289068408310413,0.3739959001541137,0.4154060781002044,-0.0342473722994327,0.4880892038345337,0.4604045152664184,0.0246171317994594,0.4865456223487854,0.378102034330368,0.0006803383002988,0.471658855676651,0.3548533916473388,-0.0246536545455455,0.4538397192955017,0.3686414957046509,-0.0374379754066467,0.5255143642425537,0.45505291223526,0.0198250245302915,0.5317931175231934,0.3606266677379608,0.0027448979672044,0.5189283490180969,0.3248196244239807,-0.0168048832565546,0.4971269369125366,0.3412293791770935,-0.0268335118889808,0.5619128942489624,0.4681022763252258,0.0080651994794607,0.5777141451835632,0.3775951564311981,-0.0055541521869599,0.5656159520149231,0.3386478126049042,-0.0161544512957334,0.5416674017906189,0.3492317795753479,-0.0196476373821496,0.5986731052398682,0.4957728981971741,-0.006928130518645,0.6169381141662598,0.4273061752319336,-0.0184997171163558,0.6088782548904419,0.3858542740345001,-0.0255164746195077,0.5869113206863403,0.3789008557796478,-0.0268556606024503
2023-08-01 15:55:52.112612,12,340,0.676595151424408,0.6103312969207764,-0.1371279805898666,0.3884722292423248,-0.0595703125,0.92333984375,0.35107421875,0.5013547539710999,0.7145882844924927,-3.030911841506168e-07,0.4438824951648712,0.6512835621833801,-0.0150858424603939,0.410730242729187,0.558745265007019,-0.0198047775775194,0.399330586194992,0.475401759147644,-0.0294250752776861,0.3942553997039795,0.4049949645996094,-0.035172414034605,0.482678472995758,0.4643270373344421,0.0288451444357633,0.4831967949867248,0.3870938122272491,0.0026736413128674,0.4703069627285003,0.3862990140914917,-0.0228515230119228,0.4627487659454345,0.420253038406372,-0.0353747010231018,0.520386278629303,0.4569126963615417,0.0234114602208137,0.5294046998023987,0.3533635139465332,-0.0005669782403856,0.5112611651420593,0.3500077724456787,-0.0212471727281808,0.4975393414497375,0.3950959146022796,-0.0288045946508646,0.556480348110199,0.4662571549415588,0.0106322038918733,0.5735641121864319,0.369756281375885,-0.0080651454627513,0.551893413066864,0.362354576587677,-0.0183142069727182,0.5331527590751648,0.4000333547592163,-0.018850889056921,0.5951018333435059,0.4925128221511841,-0.0055008549243211,0.6150139570236206,0.4175959825515747,-0.016845017671585,0.5961296558380127,0.3931351602077484,-0.0222036261111497,0.5705880522727966,0.4086788892745971,-0.0217898394912481
2023-08-01 15:55:52.176885,13,341,0.6765316128730774,0.6120113134384155,-0.1402580440044403,0.3848047852516174,0.09912109375,0.88330078125,0.486328125,0.5054897665977478,0.7161585688591003,-5.149659614289703e-07,0.44423907995224,0.6489917635917664,-0.0172852184623479,0.4107409119606018,0.5553842186927795,-0.0235217697918415,0.4111413955688476,0.467139184474945,-0.0353837572038173,0.4267643094062805,0.3988466262817383,-0.0426059253513813,0.4801387786865234,0.4639061391353607,0.0278427898883819,0.4903621077537536,0.3800405263900757,-0.0003880422154907,0.4721438586711883,0.4123563170433044,-0.0242351312190294,0.4660141766071319,0.4653176963329315,-0.035439446568489,0.5152608752250671,0.4615637063980102,0.0224395394325256,0.5306668877601624,0.3578061163425445,-0.0070772334001958,0.5046916604042053,0.3960953652858734,-0.026409339159727,0.4956114292144775,0.4557215273380279,-0.0309871807694435,0.5502445697784424,0.4716645777225494,0.0094505622982978,0.5696982741355896,0.3696586489677429,-0.0150666274130344,0.5419323444366455,0.3979043662548065,-0.0223296005278825,0.5310873985290527,0.4529687762260437,-0.0188758950680494,0.5886449813842773,0.4945839643478393,-0.0067277415655553,0.6039780974388123,0.4112128913402557,-0.020371563732624,0.5793452858924866,0.416992038488388,-0.0219121165573596,0.5615987181663513,0.4574380218982696,-0.0179978515952825
2023-08-01 15:55:52.233404,14,342,0.6764811277389526,0.6125898957252502,-0.1409772783517837,0.383708506822586,0.017578125,0.92041015625,0.34375,0.5048461556434631,0.7170259952545166,-5.455797236209037e-07,0.444730669260025,0.6483421325683594,-0.016546431928873,0.4124570488929748,0.556410014629364,-0.0236091613769531,0.4145726263523102,0.4689320623874664,-0.0368391200900077,0.4391846656799316,0.4029110670089721,-0.0457655265927314,0.4762347936630249,0.4719886481761932,0.0273982193320989,0.4843655526638031,0.39141446352005,-0.0034574051387608,0.4666192531585693,0.4326123595237732,-0.0283819884061813,0.4627252221107483,0.4886384904384613,-0.039684347808361,0.511089563369751,0.4663999676704407,0.0209916327148675,0.5267791152000427,0.3605121970176697,-0.0116396592929959,0.5006552338600159,0.4072605967521667,-0.0309857260435819,0.4935673177242279,0.4682943522930145,-0.0341048911213874,0.5470528602600098,0.4742967188358307,0.0070513910613954,0.5653800964355469,0.3706161379814148,-0.0205174814909696,0.5371702313423157,0.4073761403560638,-0.026701821014285,0.5282301306724548,0.4644809365272522,-0.0210426300764083,0.5859350562095642,0.4957022070884704,-0.0098163625225424,0.5996828079223633,0.4097237586975097,-0.0240649189800024,0.5745834112167358,0.421854704618454,-0.023840494453907,0.5588511824607849,0.464920312166214,-0.018024181947112
2023-08-01 15:55:52.281306,15,343,0.6765500903129578,0.6123373508453369,-0.1410291343927383,0.3839712142944336,-0.0341796875,0.91064453125,0.31103515625,0.508701741695404,0.718216598033905,-5.379328626986535e-07,0.4461078643798828,0.6474080085754395,-0.0175696834921836,0.414478987455368,0.5563172101974487,-0.0262704417109489,0.4223304986953735,0.4704860746860504,-0.0412011481821537,0.4579612016677856,0.4120696485042572,-0.0522909276187419,0.4728026092052459,0.4802837669849396,0.024856261909008,0.4773648083209991,0.4038108885288238,-0.0055206604301929,0.4616858959197998,0.44854336977005,-0.0304985418915748,0.4593776166439056,0.5019365549087524,-0.0425665155053138,0.5086127519607544,0.4724889993667602,0.0186881683766841,0.5222936868667603,0.3691019415855407,-0.0143285123631358,0.5006392598152161,0.4232857823371887,-0.0341268070042133,0.4959595799446106,0.4845344722270965,-0.0378862656652927,0.5459840893745422,0.4781022071838379,0.0054034222848713,0.562635600566864,0.3734753727912903,-0.0239220261573791,0.5379330515861511,0.4193200170993805,-0.0296358037739992,0.5300635695457458,0.4820015132427215,-0.0232339147478342,0.585395097732544,0.4967244863510132,-0.0106412628665566,0.5973158478736877,0.4119563400745392,-0.0260545723140239,0.5741002559661865,0.4274183809757232,-0.0252316407859325,0.5588505864143372,0.4719468951225281,-0.018910638988018
2023-08-01 15:55:52.327933,16,344,0.6755645275115967,0.6130555272102356,-0.147013708949089,0.3823120296001434,-0.01318359375,0.8974609375,0.43603515625,0.5114635825157166,0.7191551923751831,-5.514200438483385e-07,0.4492334723472595,0.6466363668441772,-0.014438172802329,0.418427973985672,0.5536375641822815,-0.0230693966150283,0.4314723610877991,0.470354288816452,-0.0384702160954475,0.472900778055191,0.4248955845832824,-0.0489667318761348,0.4863455891609192,0.4799320697784424,0.0219640899449586,0.5013790726661682,0.3868859410285949,-0.009913170710206,0.479571133852005,0.4360105395317077,-0.0327876470983028,0.4716175496578216,0.4940153658390045,-0.0421806015074253,0.5188360810279846,0.4781889021396637,0.0152073204517364,0.5340477228164673,0.3747644126415252,-0.0189736224710941,0.5089811682701111,0.4340254068374634,-0.0347413048148155,0.5044336318969727,0.4949684143066406,-0.0347399488091468,0.5522425174713135,0.4835523664951324,0.0014975926605984,0.5688746571540833,0.3762474060058594,-0.0261398665606975,0.5417445302009583,0.4254678189754486,-0.0263384748250246,0.5343930125236511,0.48868528008461,-0.0158456265926361,0.5868978500366211,0.4995099902153015,-0.0150764686986804,0.5989767909049988,0.4136352837085724,-0.0279058404266834,0.574274480342865,0.4306541681289673,-0.0239258091896772,0.5598841309547424,0.475717544555664,-0.0149871287867426
2023-08-01 15:55:52.388734,17,345,0.6732649803161621,0.6147825121879578,-0.1538039892911911,0.3809213936328888,0.04541015625,0.9072265625,0.39990234375,0.512043833732605,0.7205808162689209,-5.352852667783736e-07,0.4474663734436035,0.6463315486907959,-0.0096348477527499,0.4167401492595672,0.5537742972373962,-0.0153676439076662,0.4361255764961242,0.4761893451213836,-0.0289395134896039,0.4812740087509155,0.4366054832935333,-0.0393322110176086,0.4784657061100006,0.485127717256546,0.0291046760976314,0.4828521013259887,0.4049848914146423,0.0017107435269281,0.4661441147327423,0.449849933385849,-0.0205997973680496,0.4636736512184143,0.5026757121086121,-0.0308668371289968,0.5128219723701477,0.4795688688755035,0.0201985370367765,0.523138701915741,0.3803237080574035,-0.0104324808344244,0.502113938331604,0.4368162453174591,-0.0272905007004737,0.5001829266548157,0.4976705908775329,-0.0286423806101083,0.5491145253181458,0.4841929972171783,0.0050584091804921,0.5606712102890015,0.379780113697052,-0.0217837654054164,0.5362884402275085,0.4301128983497619,-0.0238697417080402,0.5314555764198303,0.4950510561466217,-0.014602436684072,0.5869112014770508,0.5012218952178955,-0.0122929764911532,0.5949735045433044,0.4144529998302459,-0.0253888349980115,0.5712500810623169,0.4330888986587524,-0.0210156068205833,0.5577723383903503,0.4810836911201477,-0.0117583507671952
2023-08-01 15:55:52.436795,18,346,0.6719374656677246,0.6157529354095459,-0.1563756167888641,0.380650907754898,-0.03515625,0.9501953125,0.30078125,0.515944242477417,0.7226683497428894,-5.305766421770386e-07,0.4510359764099121,0.6516838669776917,-0.0079872664064168,0.4164669811725616,0.5588696002960205,-0.0136538306251168,0.4344436824321747,0.4831520318984985,-0.0271757990121841,0.484031617641449,0.4517176747322082,-0.0380409397184848,0.4735918641090393,0.4937714040279388,0.0257200337946414,0.4696518182754516,0.4135650992393493,-0.0002989885979332,0.454975426197052,0.4602531194686889,-0.0213414747267961,0.4560927450656891,0.5080838203430176,-0.0314788334071636,0.5106731653213501,0.4871708154678345,0.016180757433176,0.5166234970092773,0.3886907696723938,-0.0116587057709693,0.4968459606170654,0.4443004131317138,-0.0264057200402021,0.4960750639438629,0.4992266297340393,-0.0277441944926977,0.5491589903831482,0.4906364381313324,0.0010649632895365,0.5578552484512329,0.3828580975532532,-0.0229241866618394,0.5350061058998108,0.4369392693042755,-0.0216811913996934,0.5318391919136047,0.5007256269454956,-0.0115949911996722,0.5884914398193359,0.507373571395874,-0.0163006614893674,0.5933108329772949,0.4199495911598205,-0.0271569602191448,0.5683998465538025,0.4413206577301025,-0.0208217967301607,0.5554189682006836,0.4873574078083038,-0.0111900931224226
2023-08-01 15:55:52.484399,19,347,0.6711645126342773,0.616258978843689,-0.1605003476142883,0.3794769644737243,0.0224609375,0.904296875,0.41748046875,0.5154690742492676,0.7417213320732117,-7.042699508019723e-07,0.452984869480133,0.6722475290298462,-0.0058004823513329,0.4126823246479034,0.5714570879936218,-0.0085528278723359,0.4310338497161865,0.495450884103775,-0.0183344334363937,0.4837481677532196,0.5027511119842529,-0.0239841938018798,0.4721522033214569,0.5057692527770996,0.0224595312029123,0.4698912799358368,0.4262917041778564,-0.0102823842316865,0.4557817578315735,0.4961987435817718,-0.0274776015430688,0.4610078036785126,0.5344658493995667,-0.0343832150101661,0.5081163644790649,0.5085060596466064,0.0114155802875757,0.5049408078193665,0.4256092309951782,-0.0239028353244066,0.4914575815200805,0.5039654970169067,-0.0294695924967527,0.5015007257461548,0.5328430533409119,-0.0222317650914192,0.5464658141136169,0.5153830051422119,-0.0062887710519135,0.5410852432250977,0.431950956583023,-0.0371321141719818,0.525938868522644,0.5074844360351562,-0.0245016887784004,0.5352134108543396,0.5394991636276245,-0.00528319273144,0.5878662467002869,0.5323427319526672,-0.0260718651115894,0.575284481048584,0.4592069983482361,-0.036751165986061,0.5592808723449707,0.5089336633682251,-0.0219899080693721,0.5659686326980591,0.5426567792892456,-0.006191533524543
2023-08-01 15:55:52.534396,20,348,0.6708850860595703,0.6166245341300964,-0.1633581221103668,0.3781551420688629,-0.03466796875,0.92333984375,0.396484375,0.5168558955192566,0.7336571216583252,-6.470232847277657e-07,0.4534279406070709,0.6715563535690308,-0.0061567001976072,0.4118957221508026,0.5733193159103394,-0.0088480059057474,0.4316697120666504,0.4979178309440613,-0.0176231749355793,0.4860608577728271,0.5016527771949768,-0.0231660120189189,0.4682252109050751,0.5179785490036011,0.0177509747445583,0.460026741027832,0.4451009035110473,-0.0119702201336622,0.4486480951309204,0.5115572810173035,-0.0274577755481004,0.4562152624130249,0.544694721698761,-0.0341754294931888,0.5051339864730835,0.5161240100860596,0.0081731881946325,0.4995220303535461,0.435207188129425,-0.0245702397078275,0.4861215949058532,0.5127874612808228,-0.0284273717552423,0.4971942901611328,0.5421842336654663,-0.0204921867698431,0.5434415340423584,0.5197198390960693,-0.0073772328905761,0.5359633564949036,0.4386299252510071,-0.0363817699253559,0.5210279226303101,0.5149312019348145,-0.0236169304698705,0.5314760208129883,0.5476173758506775,-0.0047929203137755,0.5858591794967651,0.5328978300094604,-0.0247817803174257,0.5690293312072754,0.4640686810016632,-0.0359826162457466,0.5535188913345337,0.5139705538749695,-0.022439956665039,0.5623257160186768,0.5449978709220886,-0.0076889102347195
2023-08-01 15:55:52.596480,21,349,0.6699074506759644,0.6175035238265991,-0.1661972850561142,0.3772159516811371,0.0634765625,0.91748046875,0.3671875,0.5162784457206726,0.7283042669296265,-6.223337436495058e-07,0.4541013240814209,0.6703670024871826,-0.0083009516820311,0.4129411578178406,0.5735321044921875,-0.0110264280810952,0.431316077709198,0.5004599690437317,-0.0187065452337265,0.4826163053512573,0.5069738626480103,-0.0225275792181491,0.4746759235858917,0.5162181854248047,0.0144303813576698,0.4691019356250763,0.4439262449741363,-0.0158779583871364,0.4549643993377685,0.5102995038032532,-0.030808912590146,0.4598894119262695,0.5427420139312744,-0.0366385132074356,0.5097611546516418,0.5175922513008118,0.0066367099061608,0.5032480359077454,0.4396916627883911,-0.0258332844823598,0.4883683621883392,0.5152591466903687,-0.0282998029142618,0.5000993013381958,0.5420522093772888,-0.019304210320115,0.5453937649726868,0.5240355134010315,-0.0073721972294151,0.5379509925842285,0.4468735456466675,-0.0358239114284515,0.5217709541320801,0.5208157300949097,-0.0221750885248184,0.5325027704238892,0.5508861541748047,-0.0027342496905475,0.5852453112602234,0.5395087003707886,-0.0234920065850019,0.5702418088912964,0.4735444486141205,-0.0346216112375259,0.5544611811637878,0.5210726857185364,-0.021517863497138,0.5632855892181396,0.5495155453681946,-0.0069672125391662
2023-08-01 15:55:52.643269,22,350,0.6689350008964539,0.6184209585189819,-0.1676119863986969,0.3768124878406524,0.01708984375,0.90576171875,0.3837890625,0.5193809866905212,0.7278878688812256,-6.375861971719132e-07,0.4554417729377746,0.6757935285568237,-0.0090823546051979,0.4135954976081848,0.5773831605911255,-0.0115146012976765,0.4327583014965057,0.5028330087661743,-0.0183849465101957,0.4837435483932495,0.5103708505630493,-0.0210474468767642,0.4744375944137573,0.5193319320678711,0.0132267931476235,0.4661465287208557,0.451609343290329,-0.0161660481244325,0.4526660740375519,0.5176395773887634,-0.030115008354187,0.4591817855834961,0.5473625659942627,-0.0358702540397644,0.5098386406898499,0.5187230110168457,0.005940708797425,0.5008183717727661,0.4443831741809845,-0.0268502235412597,0.4865460693836212,0.5205314755439758,-0.0285365022718906,0.4992996752262115,0.5456932187080383,-0.0188096277415752,0.5452516078948975,0.5243171453475952,-0.0075056455098092,0.5351117849349976,0.4520534873008728,-0.0361937619745731,0.5198497176170349,0.5268878936767578,-0.0221998747438192,0.5320807099342346,0.5543265342712402,-0.0026313650887459,0.5854556560516357,0.5391609072685242,-0.0231417790055274,0.5670979022979736,0.4772978723049164,-0.0350513607263565,0.5527154207229614,0.5255427360534668,-0.0225510355085134,0.5638616681098938,0.5519430637359619,-0.0084226001054048
2023-08-01 15:55:52.694482,23,351,0.6681106090545654,0.6186559200286865,-0.1661957651376724,0.37851282954216,-0.03125,0.91162109375,0.37255859375,0.5204626321792603,0.7270934581756592,-6.180426908031222e-07,0.455235868692398,0.6748405694961548,-0.0110088624060153,0.4138622879981994,0.5749971866607666,-0.0140012865886092,0.4348042905330658,0.5026957392692566,-0.0209304001182317,0.4850206673145294,0.5124956369400024,-0.0233512744307518,0.4778262972831726,0.5195493698120117,0.0110410954803228,0.4673758745193481,0.4524099230766296,-0.0187647920101881,0.4544732272624969,0.5192521810531616,-0.0326462537050247,0.4620529115200043,0.5463259816169739,-0.0384796038269996,0.5129541158676147,0.5194279551506042,0.004683603066951,0.5013843178749084,0.4468454718589782,-0.0284051168709993,0.4870729148387909,0.5233345627784729,-0.0296669211238622,0.5007416009902954,0.5455653667449951,-0.0197719726711511,0.5476192235946655,0.5256604552268982,-0.008038499392569,0.5356091856956482,0.4545580744743347,-0.0365348532795906,0.5202713012695312,0.5299723744392395,-0.0218596011400222,0.5335216522216797,0.5557610392570496,-0.0020334597211331,0.5871346592903137,0.5405121445655823,-0.023224277421832,0.5675427317619324,0.4808929562568664,-0.035177107900381,0.5529969930648804,0.5290124416351318,-0.0227904915809631,0.5649173259735107,0.5541603565216064,-0.0087965801358222
2023-08-01 15:55:52.760346,24,352,0.6674337983131409,0.6189565658569336,-0.1661808639764785,0.3792214095592499,0.00634765625,0.92431640625,0.3505859375,0.5205649137496948,0.7288411855697632,-6.125177378635271e-07,0.4554316401481628,0.6756795048713684,-0.0096993846818804,0.4155734181404114,0.5770928859710693,-0.0123182283714413,0.437421441078186,0.5074166655540466,-0.0189740359783172,0.4864597618579864,0.5180335640907288,-0.0214332640171051,0.4806509017944336,0.5208309888839722,0.0114767029881477,0.4718024432659149,0.4558902084827423,-0.0185084585100412,0.4563121795654297,0.5206703543663025,-0.0322966910898685,0.4626397788524627,0.5492905378341675,-0.0378650873899459,0.5145143270492554,0.5216454267501831,0.0045776618644595,0.5038930773735046,0.4510915279388428,-0.028470067307353,0.4878744781017303,0.5252940058708191,-0.0297075454145669,0.5014349222183228,0.5476109385490417,-0.0199010465294122,0.5483061075210571,0.5289767384529114,-0.0085664326325058,0.5360217094421387,0.461786687374115,-0.0378974825143814,0.5197979211807251,0.5355246663093567,-0.0238671377301216,0.5331366062164307,0.560015082359314,-0.0044009326957166,0.5867282152175903,0.5456003546714783,-0.0238774847239255,0.5668044686317444,0.48835289478302,-0.036793902516365,0.5523467659950256,0.5361200571060181,-0.0247963443398475,0.564359724521637,0.5606364607810974,-0.0109684783965349
2023-08-01 15:55:52.810773,25,353,0.667567253112793,0.6187437772750854,-0.1652009487152099,0.3797615468502044,0.025390625,0.9326171875,0.3740234375,0.5198767781257629,0.7268797159194946,-5.960103521829296e-07,0.455860286951065,0.6742427945137024,-0.008952154777944,0.4165377020835876,0.5767076015472412,-0.0114150885492563,0.4378576576709747,0.5083680152893066,-0.0180977284908294,0.4872632920742035,0.5179793834686279,-0.0207883715629577,0.4786836206912994,0.5203317999839783,0.0125544192269444,0.4685699045658111,0.4578146636486053,-0.0167721286416053,0.4543792903423309,0.5224683284759521,-0.0304789189249277,0.4619748890399933,0.5496636629104614,-0.0361648388206958,0.512467086315155,0.5211971998214722,0.005095396656543,0.5019093155860901,0.4516349136829376,-0.0279575604945421,0.4863934814929962,0.5255778431892395,-0.0298133641481399,0.500186026096344,0.547827959060669,-0.0201923754066228,0.5463793277740479,0.5284103155136108,-0.0084625063464045,0.5342886447906494,0.462074875831604,-0.0378506816923618,0.5183494091033936,0.5353980660438538,-0.0244569443166255,0.5316852927207947,0.559294581413269,-0.0052543100900948,0.5851230621337891,0.5444139242172241,-0.0240511018782854,0.5644444227218628,0.487899899482727,-0.0371500886976718,0.5501996278762817,0.5366024971008301,-0.0252235475927591,0.5621262788772583,0.5611424446105957,-0.0112934187054634
2023-08-01 15:55:52.863015,26,354,0.667928159236908,0.619362473487854,-0.1653858572244644,0.3780337870121002,0.08251953125,0.93994140625,0.3271484375,0.5185375809669495,0.7245611548423767,-6.002425720907922e-07,0.4559158384799957,0.6737291812896729,-0.0082822563126683,0.4171447455883026,0.5759440660476685,-0.0099994083866477,0.4376909434795379,0.5081099271774292,-0.0159787833690643,0.4861741065979004,0.5180071592330933,-0.0179769247770309,0.4822310507297516,0.5172067880630493,0.0129035348072648,0.4732589721679687,0.4556114971637726,-0.0159628745168447,0.4569938778877258,0.5190147161483765,-0.0290567837655544,0.4635146856307983,0.5473341345787048,-0.0342997014522552,0.5154337286949158,0.5193873643875122,0.0054242461919784,0.5043261647224426,0.4511967599391937,-0.0267027784138917,0.4871343970298767,0.5239558815956116,-0.0279082972556352,0.5014580488204956,0.5464109182357788,-0.0182306040078401,0.5485711693763733,0.5285297632217407,-0.0081337774172425,0.5359171032905579,0.4634296000003814,-0.0369458757340908,0.5185190439224243,0.5364024639129639,-0.022934665903449,0.5320675373077393,0.56004798412323,-0.0035990616306662,0.5865836143493652,0.5463483333587646,-0.0236552096903324,0.5651178359985352,0.490124374628067,-0.0365871302783489,0.5500525832176208,0.5385082960128784,-0.0245326124131679,0.5620455741882324,0.5628644227981567,-0.0106393340975046
2023-08-01 15:55:52.922836,27,355,0.6689120531082153,0.618726372718811,-0.1632483601570129,0.3782649040222168,0.0146484375,0.890625,0.38134765625,0.5179752111434937,0.7262628674507141,-6.056775987417495e-07,0.4569795131683349,0.675238847732544,-0.0073057170957326,0.4201651215553283,0.5763974785804749,-0.0081704948097467,0.4407666623592376,0.5082584619522095,-0.0133125679567456,0.4878702163696289,0.5170626044273376,-0.0145019898191094,0.4828711450099945,0.516640305519104,0.0142246754840016,0.4746256172657013,0.4553788006305694,-0.014098803512752,0.4594685435295105,0.5174612998962402,-0.0269485618919134,0.466181218624115,0.5465590953826904,-0.0319047681987285,0.515762448310852,0.5189269185066223,0.0065201255492866,0.505553126335144,0.4508067071437835,-0.024867333471775,0.489014208316803,0.5230552554130554,-0.0255399439483881,0.5028376579284668,0.5473954081535339,-0.015299716964364,0.5489685535430908,0.5285830497741699,-0.0072304867208004,0.5357928276062012,0.46457239985466,-0.0357771329581737,0.5189463496208191,0.5365734696388245,-0.0224545802921056,0.5327039361000061,0.5612389445304871,-0.0035470663569867,0.5868881940841675,0.5476544499397278,-0.0228313747793436,0.5643980503082275,0.4935609698295593,-0.0360390916466712,0.549423336982727,0.5408638119697571,-0.0248717628419399,0.561809778213501,0.5649288892745972,-0.011584005318582
2023-08-01 15:55:52.970949,28,356,0.6693794131278992,0.6193239688873291,-0.1551685780286789,0.3798573017120361,-0.04736328125,0.9130859375,0.42626953125,0.5165672898292542,0.7262867093086243,-5.998595611345081e-07,0.4564018249511719,0.674483597278595,-0.0070543540641665,0.4197998642921448,0.5758494138717651,-0.0081603731960058,0.4399624466896057,0.5080576539039612,-0.0138034764677286,0.4861632287502289,0.518215000629425,-0.0157518833875656,0.4830136597156524,0.5165350437164307,0.0151858944445848,0.4718957245349884,0.4554877281188965,-0.0125190364196896,0.4582305550575256,0.517173171043396,-0.025564881041646,0.4668693244457245,0.544812023639679,-0.0310988072305917,0.5160362720489502,0.518196702003479,0.0069023044779896,0.5040165781974792,0.4496276974678039,-0.0242786630988121,0.4879115521907806,0.5216576457023621,-0.0254487227648496,0.5021779537200928,0.5454960465431213,-0.0157213248312473,0.5490702986717224,0.5274847745895386,-0.0073906281031668,0.5342375636100769,0.462056040763855,-0.0361752286553382,0.5179027318954468,0.5347733497619629,-0.0231338329613208,0.5324057936668396,0.5594364404678345,-0.0044578062370419,0.5865726470947266,0.5466412901878357,-0.0235155001282691,0.5632880926132202,0.4915542900562286,-0.0372624509036541,0.5483640432357788,0.5402447581291199,-0.0260646101087331,0.5609612464904785,0.5651240944862366,-0.0127283567562699
2023-08-01 15:55:53.030787,29,357,0.6700088977813721,0.6207911968231201,-0.1501078456640243,0.3783834278583526,0.0341796875,0.92578125,0.35400390625,0.5167450308799744,0.7207804322242737,-5.486350005412532e-07,0.4548275172710418,0.6680931448936462,-0.009752414189279,0.4187550544738769,0.571815550327301,-0.0131365712732076,0.4397272169589996,0.5029944181442261,-0.0204096287488937,0.4902057349681854,0.502171516418457,-0.0235588476061821,0.4841563105583191,0.5147902965545654,0.0112914545461535,0.4752369225025177,0.4483896493911743,-0.0170932561159133,0.4593855142593384,0.5085024833679199,-0.0307979136705398,0.4688539803028106,0.5375286936759949,-0.0365637764334678,0.517333984375,0.5167672634124756,0.0043284194543957,0.5089938044548035,0.4425902366638183,-0.0274367518723011,0.4899928867816925,0.5124908089637756,-0.030187364667654,0.5053287148475647,0.5369082093238831,-0.0217840019613504,0.5500619411468506,0.5251520872116089,-0.00849065836519,0.5406702160835266,0.4481666088104248,-0.037724208086729,0.5211354494094849,0.5178486704826355,-0.0250484179705381,0.5362229347229004,0.5458396673202515,-0.0064853481017053,0.5864025950431824,0.5420222282409668,-0.0232941955327987,0.5652835965156555,0.4800624251365661,-0.0381952747702598,0.5474269986152649,0.5269882678985596,-0.0274723339825868,0.5595296025276184,0.5553985238075256,-0.01402357686311
2023-08-01 15:55:53.078891,30,358,0.6715885996818542,0.6205632090568542,-0.1453767716884613,0.3778037428855896,-0.05078125,0.919921875,0.3818359375,0.5173294544219971,0.7196077108383179,-5.484963025992329e-07,0.4543986320495605,0.6675773859024048,-0.0094399424269795,0.418734073638916,0.5713759064674377,-0.0115517610684037,0.4398715496063232,0.5003423690795898,-0.0182670783251523,0.4912727177143097,0.4953410625457763,-0.0213051661849021,0.4807378947734833,0.518318235874176,0.0170726776123046,0.476934403181076,0.4466162323951721,-0.0092540299519896,0.459765076637268,0.5018966197967529,-0.0230563879013061,0.4661746323108673,0.5381465554237366,-0.0282487086951732,0.5137632489204407,0.5167257189750671,0.010504794307053,0.5125707387924194,0.4351412951946258,-0.019415758550167,0.4928286671638489,0.50172358751297,-0.0240707080811262,0.5042774677276611,0.5372352004051208,-0.0162401162087917,0.5472974181175232,0.5217298269271851,-0.0019263377180323,0.5447782278060913,0.4365667402744293,-0.0297204852104187,0.5237230062484741,0.5032193064689636,-0.0199115760624408,0.5334407091140747,0.5421728491783142,-0.0024267639964818,0.5839550495147705,0.5371273756027222,-0.0163479279726743,0.5699337720870972,0.465901643037796,-0.0305290669202804,0.5495851039886475,0.5097613334655762,-0.0208457726985216,0.5557012557983398,0.5465260744094849,-0.0077076414600014
2023-08-01 15:55:53.126711,31,359,0.6722255349159241,0.6198982000350952,-0.1436524540185928,0.3784218430519104,-0.04443359375,0.90673828125,0.39013671875,0.5203849077224731,0.7172011733055115,-4.840018732465978e-07,0.4541077613830566,0.6642090678215027,-0.0129439439624547,0.4172852635383606,0.5720484852790833,-0.0175154451280832,0.4385883212089538,0.4988994598388672,-0.0268000159412622,0.4900337755680084,0.4764194190502167,-0.0328103676438331,0.4809685945510864,0.5189696550369263,0.0176901426166296,0.4805372059345245,0.4399859011173248,-0.0066423746757209,0.4618852138519287,0.4881816208362579,-0.0228132829070091,0.4651031494140625,0.5315996408462524,-0.0300382692366838,0.5150901079177856,0.5143222212791443,0.0123722348362207,0.5192903876304626,0.4218994379043579,-0.0157566145062446,0.4973558187484741,0.4789153039455414,-0.0256586894392967,0.5027482509613037,0.5295542478561401,-0.0221487712115049,0.5497201085090637,0.516235888004303,0.0013523075031116,0.5524402260780334,0.4199089109897613,-0.0255849864333868,0.5285235047340393,0.4776952266693115,-0.0209214743226766,0.5310581922531128,0.5328502058982849,-0.0068955556489527,0.5866020917892456,0.5302853584289551,-0.0119139533489942,0.5781216621398926,0.4521505832672119,-0.0280778817832469,0.5543732047080994,0.4888396859169006,-0.0215033218264579,0.5519023537635803,0.5366057753562927,-0.010241343639791
2023-08-01 15:55:53.172259,32,360,0.6721642017364502,0.619351863861084,-0.1426939815282821,0.3797855377197265,-0.01220703125,0.9287109375,0.35302734375,0.5164309740066528,0.7162030339241028,-4.486422824356851e-07,0.4512437582015991,0.6621946096420288,-0.014300306327641,0.4162273108959198,0.5719560384750366,-0.0196103062480688,0.4331392049789428,0.4945323169231415,-0.0300134308636188,0.4780300557613373,0.4582157731056213,-0.0364957563579082,0.4879833459854126,0.5029376149177551,0.0209909174591302,0.5001075863838196,0.4201279878616333,-0.00320775504224,0.4774640202522278,0.4566144943237304,-0.0209351237863302,0.4703295230865478,0.502604603767395,-0.0288027059286832,0.5206441879272461,0.5007220506668091,0.0162800606340169,0.5338062047958374,0.4062354564666748,-0.0102158933877944,0.5065019726753235,0.4532589912414551,-0.0219642333686351,0.5019688606262207,0.5081567764282227,-0.0204023197293281,0.5537327527999878,0.5058804750442505,0.0053326524794101,0.5653649568557739,0.4079364538192749,-0.0190824996680021,0.5361313223838806,0.4547194838523865,-0.0176124777644872,0.5297251343727112,0.5126340389251709,-0.0064802733249962,0.588690996170044,0.5236258506774902,-0.0082094678655266,0.5900052785873413,0.4422751665115356,-0.0226911474019289,0.5617430210113525,0.4688939750194549,-0.0183772295713424,0.5483182668685913,0.5180900692939758,-0.0090314131230115
2023-08-01 15:55:53.217976,33,361,0.6720286011695862,0.6185622215270996,-0.1421267539262771,0.3815208077430725,0.0107421875,0.921875,0.38720703125,0.5153658390045166,0.7171299457550049,-4.265505140210736e-07,0.4493656754493713,0.6641575694084167,-0.0144226923584938,0.4181647598743438,0.5761120319366455,-0.0192541386932134,0.4283480942249298,0.4948603510856628,-0.0292582437396049,0.4576348960399627,0.442057728767395,-0.0353327021002769,0.4951581656932831,0.4988633394241333,0.0221675764769315,0.507808268070221,0.4127296805381775,-0.0025546567048877,0.4861308634281158,0.4320422410964966,-0.0209203343838453,0.4780161082744598,0.4758817851543426,-0.0285814888775348,0.5272893309593201,0.496490329504013,0.0164890643209218,0.543696939945221,0.3953969478607178,-0.0118850748986005,0.514779806137085,0.4299946427345276,-0.0260710567235946,0.5063831806182861,0.4859861135482788,-0.0255979467183351,0.5598387122154236,0.502116322517395,0.0044630374759435,0.5758746266365051,0.4021527767181396,-0.0201902110129594,0.545595645904541,0.436980128288269,-0.0219848193228244,0.5374947786331177,0.4919352531433105,-0.0133579997345805,0.5950191617012024,0.5189279317855835,-0.0102215940132737,0.5993683338165283,0.438930869102478,-0.0247512646019458,0.572023868560791,0.4558331966400146,-0.0225828886032104,0.5591680407524109,0.5001107454299927,-0.0147923566401004
2023-08-01 15:55:53.264204,34,362,0.6723483800888062,0.6175451278686523,-0.1409847289323806,0.3830260336399078,-0.01904296875,0.93701171875,0.341796875,0.5114700794219971,0.721207857131958,-3.421995700136904e-07,0.4469091892242431,0.6668111681938171,-0.0157972909510135,0.4139687418937683,0.5766485333442688,-0.0195887256413698,0.4195080399513244,0.492548257112503,-0.0272701457142829,0.4417877793312073,0.4317536354064941,-0.0308781117200851,0.4974526166915893,0.4914160668849945,0.0278373043984174,0.5011193752288818,0.4163981974124908,0.0088893035426735,0.4795980751514435,0.4104065299034118,-0.0105741657316684,0.466164082288742,0.4340872764587402,-0.0205684602260589,0.5323675870895386,0.4859196841716766,0.0242731478065252,0.5431408882141113,0.3949367702007293,0.0060488102026283,0.5189040303230286,0.3985122442245483,-0.0093835601583123,0.5058547854423523,0.4389552474021911,-0.0141549734398722,0.5654945969581604,0.492735356092453,0.0140486434102058,0.5814536809921265,0.4006267786026001,-0.0014078529784455,0.5558808445930481,0.4020448923110962,-0.007151688914746,0.5430694818496704,0.4415371119976043,-0.0055520860478281,0.6010296940803528,0.5128769278526306,0.0005729678669013,0.6116889119148254,0.4376817047595978,-0.0100104873999953,0.5862851738929749,0.4277295470237732,-0.0119405696168541,0.5659977793693542,0.455696702003479,-0.00919134542346
2023-08-01 15:55:53.310308,35,363,0.6728642582893372,0.6165283918380737,-0.1398640125989914,0.3841673135757446,0.00634765625,0.923828125,0.3818359375,0.5119235515594482,0.7184131741523743,-5.4018563844238094e-08,0.449771910905838,0.6608054041862488,-0.0145378820598125,0.4132334589958191,0.5738617777824402,-0.0171142034232616,0.4075780808925628,0.493550181388855,-0.0213173534721136,0.4106694459915161,0.4307015240192413,-0.0231510065495967,0.4987260699272156,0.4757771790027618,0.0214259307831525,0.4957137703895569,0.399029016494751,0.0121461590752005,0.4845695793628692,0.3574491739273071,-0.0040233028121292,0.4703022241592407,0.3238943219184875,-0.0173722505569458,0.5378248691558838,0.4714623689651489,0.0179020427167415,0.5370596051216125,0.3875596523284912,0.0096694761887192,0.5261756181716919,0.3408662378787994,-0.0069206482730805,0.5077638626098633,0.3126731514930725,-0.0200447048991918,0.5736629962921143,0.4820765852928161,0.0090098017826676,0.5843517780303955,0.4020475745201111,-0.0015312380855903,0.5779590606689453,0.3619114756584167,-0.0142058320343494,0.5596402883529663,0.3425851464271545,-0.0230146776884794,0.6097471117973328,0.5057028532028198,-0.0025521479547023,0.6251075863838196,0.4427698254585266,-0.0144091472029685,0.6200015544891357,0.4026561677455902,-0.0236112214624881,0.6028273105621338,0.3774323463439941,-0.0294632464647293
2023-08-01 15:55:53.356976,36,364,0.6740586757659912,0.6148656010627747,-0.1379292905330658,0.3854355812072754,-0.04150390625,0.9052734375,0.32275390625,0.5125717520713806,0.7170883417129517,-2.96813453815048e-08,0.4494930803775787,0.6608576774597168,-0.0150829935446381,0.4127277135848999,0.5722993016242981,-0.0192600842565298,0.4047130942344665,0.4936012327671051,-0.0248127877712249,0.4077351689338684,0.4319014251232147,-0.0283472202718257,0.500953733921051,0.4724306166172027,0.0162927210330963,0.4973993599414825,0.391890287399292,0.0053821355104446,0.4864107072353363,0.3487644791603088,-0.0113359410315752,0.4726957082748413,0.3115891814231872,-0.025042425841093,0.5404196381568909,0.4669069051742553,0.0118488622829318,0.5402636528015137,0.3779699206352234,0.0031018401496112,0.5285600423812866,0.3242932856082916,-0.0130024040117859,0.5100908875465393,0.2812409698963165,-0.0262925364077091,0.5756736993789673,0.4775392711162567,0.002170240972191,0.5866284370422363,0.3922454714775085,-0.0083607044070959,0.5771766304969788,0.3440042734146118,-0.0205948464572429,0.5565515756607056,0.3070096373558044,-0.0299630295485258,0.6103379130363464,0.5024080276489258,-0.0102159855887293,0.6273455023765564,0.434495747089386,-0.0217737089842557,0.6218052506446838,0.3904226124286651,-0.0302404407411813,0.6037208437919617,0.3538646697998047,-0.0362096317112445
2023-08-01 15:55:53.403951,37,365,0.6749671697616577,0.6137900352478027,-0.1376125514507293,0.3856732845306396,-0.0205078125,0.9228515625,0.37158203125,0.512272834777832,0.7189873456954956,2.6337929170949792e-08,0.4503467977046966,0.6634024977684021,-0.015958160161972,0.4135805964469909,0.5714542865753174,-0.0203222632408142,0.4046686291694641,0.4932051301002502,-0.0256784502416849,0.4042242169380188,0.4312202036380768,-0.029351245611906,0.501036524772644,0.4690544605255127,0.0109718246385455,0.4949003756046295,0.3852887749671936,-0.0001896158210001,0.485912412405014,0.3378342092037201,-0.0162044614553451,0.4770517647266388,0.2933974862098694,-0.0298147797584533,0.541711688041687,0.4634540379047394,0.0056411959230899,0.5407213568687439,0.3708353042602539,-0.0030443011783063,0.53297358751297,0.3103722929954529,-0.0179455857723951,0.5208654403686523,0.2569501996040344,-0.0309512950479984,0.5771965980529785,0.4756287038326263,-0.0047895731404423,0.5901793837547302,0.389655590057373,-0.0158441327512264,0.5859057903289795,0.3373886346817016,-0.0276235360652208,0.5724748969078064,0.2914448976516723,-0.0372797213494777,0.6100558638572693,0.5026106834411621,-0.0180030111223459,0.6306790709495544,0.4351084530353546,-0.030495436862111,0.631643533706665,0.387851744890213,-0.0390565618872642,0.6218870878219604,0.3430811762809753,-0.0455947965383529
2023-08-01 15:55:53.452108,38,366,0.6775307655334473,0.6112203001976013,-0.1363632977008819,0.3857030272483825,-0.0146484375,0.9091796875,0.38037109375,0.5128397941589355,0.7193882465362549,1.1355604101481732e-07,0.4510888755321502,0.6613436937332153,-0.0166572500020265,0.4146308302879333,0.570144534111023,-0.0221070796251297,0.4038629531860351,0.4932502210140228,-0.0282778777182102,0.3999753594398498,0.4300123453140259,-0.0330044701695442,0.5001370310783386,0.4642726182937622,0.0061708306893706,0.495024025440216,0.3775311112403869,-0.0073279277421534,0.4876935184001922,0.3257394731044769,-0.0244749840348958,0.480871707201004,0.2782427668571472,-0.0382573716342449,0.5408888459205627,0.4592334926128387,0.0005040236283093,0.5430504083633423,0.3608478903770447,-0.0094905542209744,0.5376799702644348,0.2952379584312439,-0.0244036670774221,0.5287877321243286,0.2377808690071106,-0.0369537360966205,0.5760831236839294,0.4726863205432892,-0.0100315883755683,0.5909637212753296,0.3836291134357452,-0.0212245341390371,0.5891349911689758,0.3258143067359924,-0.0326356999576091,0.5796317458152771,0.2750484943389892,-0.0420529805123806,0.6074349880218506,0.5019722580909729,-0.0234405510127544,0.6329595446586609,0.4367589354515075,-0.0349976941943168,0.6396012306213379,0.3884042501449585,-0.0424748584628105,0.6370638012886047,0.3426374197006225,-0.0482212118804454
2023-08-01 15:55:53.498239,39,367,0.6807113885879517,0.6086904406547546,-0.1357262432575225,0.3843257427215576,-0.07470703125,0.9130859375,0.36572265625,0.5132334232330322,0.7206295132637024,1.6986953710329544e-07,0.4511344730854034,0.6608773469924927,-0.0158060546964406,0.4138995409011841,0.5682300925254822,-0.0205029621720314,0.4016326069831848,0.4918797016143799,-0.0259834546595811,0.3943126797676086,0.429412305355072,-0.0306505560874938,0.4993821382522583,0.460154116153717,0.004685862455517,0.4943749010562897,0.3704282343387604,-0.0085284477099776,0.4886637032032013,0.3149239420890808,-0.0248938016593456,0.4848668575286865,0.2635390758514404,-0.0383713617920875,0.5410942435264587,0.4549857079982757,-0.0024738297797739,0.5446217060089111,0.3518015146255493,-0.0135993100702762,0.5426710844039917,0.2820979356765747,-0.0293437838554382,0.5392163395881653,0.2209159433841705,-0.0422639735043048,0.5767489671707153,0.4692107737064361,-0.0142309861257672,0.5931124687194824,0.3747432827949524,-0.0276484750211238,0.5949179530143738,0.3098086714744568,-0.0416386052966117,0.5914897322654724,0.2521368861198425,-0.0526414737105369,0.6084010004997253,0.4990894496440887,-0.0285017527639865,0.6378426551818848,0.4292382597923279,-0.0424034893512725,0.6503658890724182,0.3760944306850433,-0.0516758300364017,0.6561293005943298,0.3249768316745758,-0.0587000548839569
2023-08-01 15:55:53.546239,40,368,0.6831095814704895,0.6077699661254883,-0.1372695118188858,0.3809645473957062,0.015625,0.91748046875,0.4267578125,0.5129449367523193,0.722616970539093,2.196931916387257e-07,0.4517299234867096,0.6645019054412842,-0.0141009958460927,0.4155452847480774,0.5687079429626465,-0.0173595417290925,0.4019001722335815,0.492619514465332,-0.0216238312423229,0.3888509273529053,0.4358238279819488,-0.0255680363625288,0.4986946582794189,0.4542139768600464,0.0054838280193507,0.4936784505844116,0.3622949719429016,-0.0059058172628283,0.4893322587013244,0.3049123287200928,-0.0208077467978,0.4876097738742828,0.2528307437896728,-0.03363499045372,0.5413479804992676,0.4489606022834778,-0.0027601218316704,0.546215295791626,0.342129647731781,-0.0122562022879719,0.5466276407241821,0.2697041928768158,-0.0272105615586042,0.5454190373420715,0.207670658826828,-0.0398423410952091,0.5778106451034546,0.4646601676940918,-0.0153604019433259,0.596293568611145,0.3671070337295532,-0.0279384981840848,0.6018240451812744,0.3001173436641693,-0.042654313147068,0.6026548147201538,0.2414136230945587,-0.0546498224139213,0.6098268628120422,0.4963551163673401,-0.0302785951644182,0.6439785957336426,0.4280526340007782,-0.0436037518084049,0.6623092889785767,0.3757565021514892,-0.0533380322158336,0.6747553944587708,0.3255957961082458,-0.0612205266952514
2023-08-01 15:55:53.595622,41,369,0.6856629252433777,0.6055675148963928,-0.1352648586034774,0.3806017637252807,-0.05029296875,0.90478515625,0.3984375,0.5126864314079285,0.7257977724075317,1.91108100011661e-07,0.4527924656867981,0.6654181480407715,-0.0142768407240509,0.4166091680526733,0.5693074464797974,-0.0170841701328754,0.4024522304534912,0.4930876791477203,-0.0211967881768941,0.3890959620475769,0.435630053281784,-0.0249043311923742,0.4994199872016907,0.4535990357398987,0.0087440107017755,0.4936929941177368,0.3625105619430542,-0.0026952556800097,0.4889355301856994,0.3057234287261963,-0.0182134490460157,0.4869220554828644,0.253414511680603,-0.031498372554779,0.5417386293411255,0.4485471248626709,0.0007090609869919,0.5474368929862976,0.3423033952713012,-0.0085434382781386,0.5471927523612976,0.2719939351081848,-0.0237624291330575,0.545162558555603,0.2099116742610931,-0.0366940796375274,0.5778875946998596,0.463777482509613,-0.0119794998317956,0.5976916551589966,0.367682009935379,-0.0242807529866695,0.6023831963539124,0.3028024435043335,-0.0380855128169059,0.6018004417419434,0.2443835884332656,-0.0494070574641227,0.6091858744621277,0.4954197406768799,-0.0272065307945013,0.6440091133117676,0.4289706349372864,-0.0398560427129268,0.6621258854866028,0.3766344785690307,-0.0486597344279289,0.6742187738418579,0.3251056969165802,-0.0559141114354133
2023-08-01 15:55:53.662857,42,370,0.6871816515922546,0.6046374440193176,-0.1360580772161483,0.3790554702281952,-0.06982421875,0.90185546875,0.43896484375,0.511999249458313,0.7258296012878418,2.5221032728950377e-07,0.4520571827888489,0.6668534278869629,-0.0146214785054326,0.4147086143493652,0.571125328540802,-0.0176816433668136,0.3982560634613037,0.4958552718162536,-0.0216646455228328,0.3817048370838165,0.4400341808795929,-0.0254319477826356,0.4987485408782959,0.4490830600261688,0.006360569037497,0.493396133184433,0.3557661175727844,-0.0037979376502335,0.4891771972179413,0.2980256378650665,-0.0180201902985572,0.4884255826473236,0.2453386932611465,-0.0304911322891712,0.5422341227531433,0.4444855451583862,-0.0017022128449752,0.5503665804862976,0.3358725011348724,-0.0097328098490834,0.5530569553375244,0.263162612915039,-0.023968307301402,0.5541325211524963,0.201145589351654,-0.0364215783774852,0.5788357257843018,0.4613379836082458,-0.0143027566373348,0.6004250049591064,0.3650607466697693,-0.026012860238552,0.6081140041351318,0.2979962229728699,-0.0409414209425449,0.6111800074577332,0.239201158285141,-0.053405538201332,0.6104421615600586,0.4942634999752044,-0.0293501056730747,0.6481971740722656,0.4267818331718445,-0.0422743484377861,0.6704243421554565,0.3745169341564178,-0.0522701926529407,0.687244176864624,0.3240843415260315,-0.060621902346611
2023-08-01 15:55:53.714486,43,371,0.6889733076095581,0.6027436256408691,-0.137371227145195,0.3783453106880188,0.0400390625,0.90380859375,0.40185546875,0.506921112537384,0.7285374999046326,4.404102753596817e-07,0.4443150460720062,0.6730214953422546,-0.0151030048727989,0.404798150062561,0.5761532783508301,-0.0190415643155574,0.3808113932609558,0.506960928440094,-0.023210410028696,0.3505913317203522,0.4651944637298584,-0.0277629978954792,0.4922440946102142,0.4341590404510498,0.0007468906696885,0.4922810196876526,0.3343974947929382,-0.007426437921822,0.4937448799610138,0.2724543809890747,-0.019690029323101,0.4981811940670013,0.2196674942970276,-0.0312856324017047,0.5385545492172241,0.4313089251518249,-0.0078385360538959,0.5561324954032898,0.3151956796646118,-0.0129755660891532,0.5680346488952637,0.2411575764417648,-0.024675078690052,0.5767147541046143,0.1821059286594391,-0.0355295985937118,0.5781549215316772,0.453856885433197,-0.0205767396837472,0.6109540462493896,0.3534075617790222,-0.0320153906941413,0.6291074156761169,0.2874807119369507,-0.0478915125131607,0.6426307559013367,0.2291470468044281,-0.0614835619926452,0.6100360751152039,0.4954196810722351,-0.0354045033454895,0.6586074829101562,0.4343879222869873,-0.0513280257582664,0.6901772618293762,0.3900560140609741,-0.0631958171725273,0.717431902885437,0.3467975854873657,-0.0726769641041755
2023-08-01 15:55:53.760037,44,372,0.6894009709358215,0.6021697521209717,-0.1373432129621505,0.3784902095794678,-0.044921875,0.89599609375,0.4072265625,0.5100685954093933,0.7386678457260132,4.0200026774073205e-07,0.447543203830719,0.6778025031089783,-0.018153166398406,0.4065858721733093,0.5792242884635925,-0.0239915736019611,0.3824284672737121,0.5076878666877747,-0.0302558951079845,0.3527988791465759,0.459733247756958,-0.0368313081562519,0.4932148158550262,0.4354535937309265,0.0002052554773399,0.493189126253128,0.3359661698341369,-0.011237327940762,0.4953644871711731,0.27338308095932,-0.026204265654087,0.5001358985900879,0.220149427652359,-0.0392329469323158,0.5397924184799194,0.4327854216098785,-0.0081073958426713,0.558748185634613,0.3172841966152191,-0.0156393125653266,0.5705769062042236,0.2429649829864502,-0.0286083705723285,0.5790457725524902,0.1830546259880066,-0.0401417650282382,0.5798325538635254,0.4553901851177215,-0.0213650166988372,0.6124196648597717,0.3541145324707031,-0.0343737863004207,0.6293137073516846,0.2884079813957214,-0.0498209632933139,0.6412310004234314,0.2297116219997406,-0.0627891942858696,0.6117298007011414,0.4978366196155548,-0.0372729413211345,0.6588504910469055,0.436265230178833,-0.0526474900543689,0.6895590424537659,0.3921770453453064,-0.062727577984333,0.7163558602333069,0.3490585684776306,-0.0709591433405876
2023-08-01 15:55:53.831664,45,373,0.6900410652160645,0.601695716381073,-0.1384350657463073,0.3776789009571075,-0.0419921875,0.9130859375,0.4375,0.5081718564033508,0.7422069311141968,4.350022777543927e-07,0.4459926784038543,0.6800429821014404,-0.0192702934145927,0.4041701853275299,0.5826102495193481,-0.026401899755001,0.3781470060348511,0.5134191513061523,-0.0339283607900142,0.3486665487289428,0.4653201997280121,-0.0417902581393718,0.4913386106491089,0.4368738234043121,-0.0015430285129696,0.4919599592685699,0.336584210395813,-0.0136088654398918,0.4937405586242676,0.273654580116272,-0.0288077555596828,0.4982574582099914,0.2194189429283142,-0.0420303642749786,0.5382012724876404,0.434429794549942,-0.009912509471178,0.5587296485900879,0.3185382485389709,-0.018024269491434,0.5712129473686218,0.2435047477483749,-0.031441830098629,0.5807658433914185,0.1823143362998962,-0.0434944257140159,0.5776283144950867,0.4573103785514831,-0.0233365576714277,0.612846851348877,0.3567851185798645,-0.0370661616325378,0.6312220096588135,0.291035532951355,-0.0529658012092113,0.6443771123886108,0.2316092848777771,-0.0663460940122604,0.6081830263137817,0.5002346038818359,-0.0394906960427761,0.6568354964256287,0.4395816624164581,-0.055533517152071,0.688261866569519,0.395332396030426,-0.0659177079796791,0.7157657742500305,0.3513729274272918,-0.0744490399956703
2023-08-01 15:55:53.888264,46,374,0.6901044249534607,0.6012848615646362,-0.1392716914415359,0.3779098689556122,-0.06787109375,0.921875,0.4345703125,0.5048627257347107,0.7462238669395447,4.7302023631345946e-07,0.4417452216148376,0.6840944290161133,-0.0206771939992904,0.3988156914710998,0.5898065567016602,-0.0297140758484601,0.3704922795295715,0.5232818722724915,-0.0388351902365684,0.338373601436615,0.4766865670681,-0.04848388209939,0.4852091670036316,0.4374405443668365,-0.0054821581579744,0.4857450723648071,0.3355860114097595,-0.018780218437314,0.4875022768974304,0.2717800438404083,-0.0346533618867397,0.492253839969635,0.2165965437889099,-0.0483988150954246,0.5326747894287109,0.4353500306606293,-0.0138611877337098,0.5544060468673706,0.3187680840492248,-0.0236040167510509,0.5677746534347534,0.2427717894315719,-0.0384168960154056,0.5786940455436707,0.181090772151947,-0.0514654926955699,0.5722286105155945,0.459745854139328,-0.0271700508892536,0.6111660599708557,0.3592956662178039,-0.0430432744324207,0.6329646110534668,0.2940526008605957,-0.0608030296862125,0.6491470336914062,0.2352039217948913,-0.0752749666571617,0.6024438738822937,0.5047087669372559,-0.0430740937590599,0.653896152973175,0.4453157186508178,-0.0612574070692062,0.6873313188552856,0.4021076560020447,-0.07306769490242,0.7164637446403503,0.3589939475059509,-0.0824284628033638
2023-08-01 15:55:53.947227,47,375,0.689795970916748,0.601881206035614,-0.1411005556583404,0.3768436908721924,-0.00390625,0.904296875,0.3798828125,0.5057262182235718,0.747736930847168,4.673903504226473e-07,0.4429060518741607,0.6871384382247925,-0.0207246039062738,0.3997131884098053,0.5931728482246399,-0.0297093335539102,0.371597021818161,0.5249996781349182,-0.0387843549251556,0.3389085233211517,0.4771424531936645,-0.0483266673982143,0.4838421046733856,0.4377457499504089,-0.0047521912492811,0.4847950637340545,0.3360887467861175,-0.0177061036229133,0.4860050082206726,0.2719914317131042,-0.0337249636650085,0.4898664951324463,0.2157517373561859,-0.0478079095482826,0.531622588634491,0.4342365264892578,-0.0130194574594497,0.5532063841819763,0.3169140815734863,-0.022140372544527,0.5662290453910828,0.2417165637016296,-0.0366707146167755,0.5764193534851074,0.1800720691680908,-0.0496820956468582,0.5719441175460815,0.4582586586475372,-0.0262203142046928,0.6112310886383057,0.3575352728366852,-0.0414663478732109,0.6333242654800415,0.2922095358371734,-0.0586967207491397,0.6492767930030823,0.2330674231052398,-0.072973221540451,0.6029985547065735,0.5033460259437561,-0.0420766472816467,0.6542853116989136,0.4423452019691467,-0.0599042288959026,0.6880728602409363,0.3989050388336181,-0.0711471512913703,0.7174092531204224,0.3555253744125366,-0.0801059603691101
2023-08-01 15:55:54.006912,48,376,0.6899160742759705,0.601848304271698,-0.1415553390979766,0.3765059113502502,-0.03759765625,0.90283203125,0.3916015625,0.5043613314628601,0.7485451698303223,4.613257260643877e-07,0.4422712326049804,0.6864986419677734,-0.0203815475106239,0.3996022641658783,0.5910204648971558,-0.0288666263222694,0.3712406158447265,0.5230870246887207,-0.037549752742052,0.3379129767417907,0.4771591424942016,-0.0467589311301708,0.4842008054256439,0.4374754428863525,-0.0037621005903929,0.484856516122818,0.3359407484531402,-0.0163913145661354,0.4855684041976928,0.2720972895622253,-0.0321309119462966,0.4888013303279876,0.2160717248916626,-0.0459598712623119,0.5322529077529907,0.4341081380844116,-0.0121490536257624,0.5539612770080566,0.3168643712997436,-0.0207874216139316,0.5664547085762024,0.240937739610672,-0.0349411964416503,0.5760815143585205,0.1789147555828094,-0.047680027782917,0.5725334882736206,0.4579170942306518,-0.0255215223878622,0.6119727492332458,0.3570964932441711,-0.0400473326444625,0.6333867907524109,0.2911383509635925,-0.0568563044071197,0.6487162709236145,0.2316118776798248,-0.070951446890831,0.6030573844909668,0.5026971697807312,-0.0416059680283069,0.6539374589920044,0.4425439536571502,-0.0588398016989231,0.6872215270996094,0.398808091878891,-0.0698192119598388,0.7162628769874573,0.3553400635719299,-0.078668788075447
