Timestamp,Index,Frame ID,w,x,y,z,ax,ay,az,x_0,y_0,z_0,x_1,y_1,z_1,x_2,y_2,z_2,x_3,y_3,z_3,x_4,y_4,z_4,x_5,y_5,z_5,x_6,y_6,z_6,x_7,y_7,z_7,x_8,y_8,z_8,x_9,y_9,z_9,x_10,y_10,z_10,x_11,y_11,z_11,x_12,y_12,z_12,x_13,y_13,z_13,x_14,y_14,z_14,x_15,y_15,z_15,x_16,y_16,z_16,x_17,y_17,z_17,x_18,y_18,z_18,x_19,y_19,z_19,x_20,y_20,z_20
2023-08-01 15:55:34.036574,0,24,0.7428221106529236,0.4760837256908417,-0.1782626956701278,0.4356397092342376,0.0048828125,0.71484375,0.53369140625,0.5634172558784485,0.9826455116271972,-5.676176897395635e-07,0.5150567889213562,0.9509006142616272,-0.0108914263546466,0.4765082001686096,0.8712455034255981,-0.0172822903841733,0.4673618078231811,0.8029344081878662,-0.0265192613005638,0.4764036834239959,0.7505495548248291,-0.0339242704212665,0.5237215161323547,0.7790728807449341,-0.000755394285079,0.5166188478469849,0.7152218818664551,-0.0282146055251359,0.4890607595443725,0.7405217885971069,-0.0486315973103046,0.475252091884613,0.7862006425857544,-0.0580552443861961,0.5608829259872437,0.7825982570648193,-0.0079691810533404,0.547838032245636,0.7260409593582153,-0.0360716842114925,0.5208727717399597,0.7790202498435974,-0.0479558296501636,0.5140532851219177,0.8370714783668518,-0.0484728030860424,0.5980498194694519,0.7991946935653687,-0.0190563313663005,0.5864174365997314,0.7416876554489136,-0.0443605743348598,0.5598423480987549,0.7929648160934448,-0.042909488081932,0.5518295764923096,0.8495410680770874,-0.0343381240963935,0.6359927654266357,0.8256977796554565,-0.0313995815813541,0.6247268319129944,0.7745673656463623,-0.0488486848771572,0.6013497710227966,0.8038115501403809,-0.0446030385792255,0.5915069580078125,0.8447123169898987,-0.0357582494616508
2023-08-01 15:55:34.100210,1,25,0.7249538898468018,0.4996231496334076,-0.1778056919574737,0.4395493865013122,0.07763671875,0.7958984375,0.5517578125,0.5702672600746155,0.9588063955307008,-3.085440312133869e-07,0.5204028487205505,0.9251736998558044,-0.0189513619989156,0.4863418340682983,0.8424922823905945,-0.0277823358774185,0.4724684655666351,0.7743964791297913,-0.0392556861042976,0.4752106666564941,0.7141244411468506,-0.0470209419727325,0.5353187918663025,0.7589299082756042,0.0050741103477776,0.532924473285675,0.6791915893554688,-0.0238845460116863,0.5101377964019775,0.6913327574729919,-0.0436865948140621,0.4994296133518219,0.7286645174026489,-0.05127789452672,0.5681652426719666,0.756686270236969,0.0014891104074195,0.5628479719161987,0.6686640381813049,-0.0288920383900403,0.5349511504173279,0.702900230884552,-0.0423815697431564,0.528438925743103,0.7541840076446533,-0.0418270379304885,0.6024043560028076,0.7666690349578857,-0.0079713715240359,0.6023880839347839,0.6786285638809204,-0.0349669754505157,0.573373556137085,0.7128214836120605,-0.0368281491100788,0.5656387805938721,0.7632375359535217,-0.0283289290964603,0.6385689973831177,0.786840558052063,-0.019763296470046,0.6418524980545044,0.7182751893997192,-0.0379699058830738,0.6188640594482422,0.7268060445785522,-0.0381006523966789,0.6076900362968445,0.7604206800460815,-0.0312218833714723
2023-08-01 15:55:34.161432,2,26,0.7134605050086975,0.5136787295341492,-0.1822512447834015,0.4403325021266937,0.09423828125,0.7978515625,0.60986328125,0.570197582244873,0.9377959966659546,-3.070871343879844e-07,0.5226051211357117,0.9008644819259644,-0.0168998688459396,0.4901407063007355,0.8107036352157593,-0.024127909913659,0.4777986407279968,0.7397706508636475,-0.0345590077340602,0.4816126227378845,0.6800379753112793,-0.0414670705795288,0.5399245619773865,0.7234491109848022,0.0076764039695262,0.539585292339325,0.6386604905128479,-0.0204882677644491,0.5184966921806335,0.6452516913414001,-0.0403458178043365,0.5070325136184692,0.6789745092391968,-0.0480441600084304,0.5719980001449585,0.7222124338150024,0.0029102708213031,0.5719658136367798,0.6233016848564148,-0.0268948152661323,0.5446426868438721,0.6506074070930481,-0.0407700985670089,0.5344728231430054,0.7007085084915161,-0.0406023487448692,0.6051989197731018,0.7342451214790344,-0.0076661850325763,0.6121084690093994,0.6357851028442383,-0.0335228443145751,0.5832639932632446,0.6623083353042603,-0.037092700600624,0.5720518827438354,0.7105247378349304,-0.0301543194800615,0.6393426060676575,0.7578971982002258,-0.0205456707626581,0.6476936340332031,0.6794854402542114,-0.0373310148715972,0.6237690448760986,0.6815718412399292,-0.0385158658027648,0.6084346175193787,0.7121050953865051,-0.0330689698457717
2023-08-01 15:55:34.220210,3,27,0.7031953930854797,0.5225591659545898,-0.1863428801298141,0.4446621239185333,0.04931640625,0.8115234375,0.61962890625,0.5709041357040405,0.9189783334732056,-3.086959452502924e-07,0.5213441252708435,0.8709755539894104,-0.0138600086793303,0.4907886087894439,0.7785687446594238,-0.0204885229468345,0.4801509082317352,0.7067632675170898,-0.0310174003243446,0.4871429800987243,0.6506693363189697,-0.0378189571201801,0.5411226153373718,0.6876358389854431,0.0119207426905632,0.5410457253456116,0.6078530550003052,-0.0174739640206098,0.5178713202476501,0.6160479784011841,-0.0394196435809135,0.5052595138549805,0.652901828289032,-0.0483924373984336,0.5726717114448547,0.6858748197555542,0.0054811961017549,0.5781005620956421,0.5868617296218872,-0.0238293707370758,0.5491617321968079,0.6039540767669678,-0.0389669500291347,0.5362117290496826,0.6521626114845276,-0.0401513874530792,0.6053466796875,0.699722409248352,-0.0069240783341228,0.6171967387199402,0.6057616472244263,-0.0301683004945516,0.5871039628982544,0.6170924305915833,-0.0361621156334877,0.5723572373390198,0.6580653190612793,-0.0320871360599994,0.6389082670211792,0.7271347045898438,-0.0217925291508436,0.651408314704895,0.6526345610618591,-0.0354953408241272,0.6285000443458557,0.6423497796058655,-0.0383177548646926,0.6098783612251282,0.6623534560203552,-0.0349909998476505
2023-08-01 15:55:34.283150,4,28,0.6850866079330444,0.5364246964454651,-0.1981092393398285,0.4512844085693359,0.0703125,0.77490234375,0.4951171875,0.5685684084892273,0.868909478187561,-1.0826955332277068e-07,0.5138179063796997,0.8099414110183716,-0.0080832298845052,0.4841428399085998,0.7229831218719482,-0.0101904338225722,0.4789101183414459,0.6484721899032593,-0.015958447009325,0.4777648448944092,0.5881401300430298,-0.0188201740384101,0.5379744172096252,0.6229087710380554,0.0271415114402771,0.5317225456237793,0.5486783981323242,0.0089216195046901,0.5132155418395996,0.5283195972442627,-0.0126243438571691,0.4923584759235382,0.5358235239982605,-0.0244480594992637,0.570245087146759,0.615136444568634,0.0204559061676263,0.5677977800369263,0.5340275168418884,0.0083789974451065,0.5488829016685486,0.5032787919044495,-0.0079175140708684,0.5237181186676025,0.5092970132827759,-0.0169699732214212,0.6025609970092773,0.6247469782829285,0.0081035383045673,0.6093652844429016,0.5435788631439209,-0.0019822688773274,0.5948202610015869,0.5095567107200623,-0.0106700025498867,0.5715699791908264,0.5093701481819153,-0.0144357932731509,0.6350439786911011,0.6500974297523499,-0.0066791432909667,0.6443996429443359,0.5835570096969604,-0.0151758501306176,0.6333860158920288,0.5457291603088379,-0.0196816027164459,0.6120604872703552,0.5317236185073853,-0.0202865190804004
2023-08-01 15:55:34.347022,5,29,0.6673065423965454,0.5494974255561829,-0.1979225575923919,0.4621484875679016,0.06298828125,0.85546875,0.46484375,0.5700122117996216,0.853489875793457,-1.867981893610704e-07,0.5136294960975647,0.7933999300003052,-0.0026530891191214,0.4846746623516083,0.7059637904167175,-0.0016759387217462,0.4794501066207886,0.6331055760383606,-0.005466598086059,0.4762009680271148,0.574148952960968,-0.0075048021972179,0.5370550751686096,0.6127166748046875,0.0314282029867172,0.5295301675796509,0.540937066078186,0.0146463168784976,0.5086407661437988,0.5160294771194458,-0.0057353009469807,0.4836116731166839,0.5116796493530273,-0.0175427589565515,0.5696128606796265,0.6027764678001404,0.0219731535762548,0.5657699704170227,0.5193365216255188,0.0116054508835077,0.5457553863525391,0.4807657599449157,-0.004122732207179,0.5183699131011963,0.470214307308197,-0.0139439962804317,0.6020095944404602,0.610474705696106,0.0072543327696621,0.6050595641136169,0.5270474553108215,-0.0018769376911222,0.5885304808616638,0.4893810153007507,-0.0108895935118198,0.5624045133590698,0.4773182272911072,-0.015789346769452,0.6344199776649475,0.6331722140312195,-0.009440247900784,0.6428160071372986,0.564342737197876,-0.0170077048242092,0.6324805617332458,0.524101734161377,-0.0213333629071712,0.6112402081489563,0.5014135241508484,-0.022911924868822
2023-08-01 15:55:34.411084,6,30,0.6478379964828491,0.5596078634262085,-0.2029702216386795,0.4753399193286896,0.10595703125,0.908203125,0.435546875,0.5729343295097351,0.8014695048332214,-8.891053226989244e-08,0.5147489905357361,0.7500272393226624,-0.0065283537842333,0.4813213050365448,0.6606643199920654,-0.0053028538823127,0.4724985063076019,0.5840662121772766,-0.0077108643017709,0.4658167362213135,0.5246226787567139,-0.0084410747513175,0.5335321426391602,0.5694151520729065,0.0296831894665956,0.5253708958625793,0.5001215934753418,0.0162959191948175,0.5075932741165161,0.4728898406028747,-0.0022513491567224,0.485786885023117,0.4587985277175903,-0.0144357085227966,0.5661959052085876,0.5556020736694336,0.0225648134946823,0.560943067073822,0.4731470346450805,0.0147043336182832,0.5411016941070557,0.4273140728473663,-0.0007559997029602,0.5154327750205994,0.3962620198726654,-0.0122839519754052,0.5976450443267822,0.5597777366638184,0.009945792146027,0.5998679399490356,0.4783808290958404,0.0010535278124734,0.5827853083610535,0.4331145286560058,-0.0109336152672767,0.5566306114196777,0.4028995633125305,-0.0192454196512699,0.6293246746063232,0.5786003470420837,-0.0048134312964975,0.6361600756645203,0.5100053548812866,-0.0126792266964912,0.6228927969932556,0.4684162735939026,-0.0189037192612886,0.5982758402824402,0.4386917352676391,-0.0231224559247493
2023-08-01 15:55:34.468826,7,31,0.6378264427185059,0.5612008571624756,-0.2087440639734268,0.4844140410423279,0.1142578125,0.8955078125,0.3984375,0.5676667094230652,0.7770686745643616,-7.96277461745376e-08,0.5108699798583984,0.7260727286338806,-0.0062835928983986,0.4799118041992187,0.6405382752418518,-0.0036259554326534,0.4731796681880951,0.5668063163757324,-0.004849296528846,0.4674707651138305,0.5092694163322449,-0.0047755814157426,0.5324420928955078,0.5517098903656006,0.0309185441583395,0.5247670412063599,0.483752578496933,0.0174271818250417,0.5054296851158142,0.4545427560806274,-0.0010037280153483,0.4816723763942718,0.4368813037872314,-0.0131290629506111,0.5657494068145752,0.5367603898048401,0.0234985891729593,0.5637800693511963,0.4530217349529266,0.0155488513410091,0.545128583908081,0.4038732647895813,3.1970994314178824e-05,0.5207301378250122,0.3660186529159546,-0.0115986829623579,0.5965788960456848,0.5395022630691528,0.0104017574340105,0.6032139658927917,0.4568369388580322,0.0004058442427776,0.5883961319923401,0.41100013256073,-0.0116072315722703,0.5647993683815002,0.3777791559696197,-0.0195410344749689,0.6260759234428406,0.5556545257568359,-0.0048607876524329,0.6361033916473389,0.4862194955348968,-0.013437888585031,0.625163197517395,0.4435098171234131,-0.0194789990782737,0.6030099391937256,0.4107488095760345,-0.0235523674637079
2023-08-01 15:55:34.531005,8,32,0.6311501860618591,0.5559587478637695,-0.2130450308322906,0.4971629977226257,0.17578125,0.84423828125,0.4775390625,0.5655920505523682,0.7718847393989563,-1.542420449140991e-07,0.5109909176826477,0.7235276699066162,-0.0057265791110694,0.4801977872848511,0.6361476182937622,-0.0042067570611834,0.4718600511550903,0.5627973079681396,-0.0066452017053961,0.4683264195919037,0.5071367025375366,-0.0079446909949183,0.5341660380363464,0.5486039519309998,0.0269113965332508,0.5263566970825195,0.4786025881767273,0.0114821996539831,0.5059616565704346,0.4520195722579956,-0.0075506391003727,0.481852114200592,0.4382516741752624,-0.0196133181452751,0.566112220287323,0.5349071025848389,0.0188803486526012,0.5631973743438721,0.4498096704483032,0.0097976326942443,0.5433787107467651,0.3998205065727234,-0.0061665228568017,0.5177811980247498,0.3622840642929077,-0.0183466020971536,0.5966498851776123,0.5390112996101379,0.0054808757267892,0.6048169732093811,0.4563116133213043,-0.0052230199798941,0.589616596698761,0.4106358885765075,-0.0183924660086631,0.5647931098937988,0.378045916557312,-0.0273264981806278,0.6258566975593567,0.5562369227409363,-0.0098228054121136,0.6364719867706299,0.4853800237178802,-0.0188921708613634,0.6254645586013794,0.4435858130455017,-0.0258544106036424,0.6026575565338135,0.4119462370872497,-0.030850289389491
2023-08-01 15:55:34.597063,9,33,0.6302235722541809,0.5529394745826721,-0.2084652632474899,0.5036054253578186,0.28076171875,0.8095703125,0.4248046875,0.5601294040679932,0.7642734050750732,-1.3680993049547396e-07,0.5056837201118469,0.7154785990715027,-0.004618736449629,0.4749308824539184,0.6277082562446594,-0.0015889790374785,0.4666466414928436,0.5544660687446594,-0.0024891241919249,0.461605429649353,0.4985039234161377,-0.0023311097174882,0.5299172401428223,0.5418991446495056,0.0291185323148965,0.5205796360969543,0.4736653566360473,0.0162487924098968,0.5010496377944946,0.444897711277008,-0.0012151261325925,0.4789673388004303,0.4275193214416504,-0.0128712030127644,0.5619606375694275,0.5274997353553772,0.0209450181573629,0.5570549368858337,0.4439635276794433,0.0144626135006546,0.538798451423645,0.3912591338157654,0.0001637125824345,0.5156587362289429,0.3494014143943786,-0.0114488704130053,0.5923376083374023,0.530690610408783,0.0074670207686722,0.5977410078048706,0.4486081302165985,-0.0015370243927463,0.5839251279830933,0.4019573032855987,-0.0137666417285799,0.5611529350280762,0.3654290437698364,-0.022643519565463,0.6218172907829285,0.546968400478363,-0.0078744068741798,0.6317510604858398,0.4787483513355255,-0.0163454432040452,0.6226957440376282,0.4364661574363708,-0.0230754520744085,0.6023217439651489,0.4019506275653839,-0.028184600174427
2023-08-01 15:55:34.655408,10,34,0.6315586566925049,0.5530932545661926,-0.1968666911125183,0.5064237117767334,0.27392578125,0.8251953125,0.45458984375,0.5103656649589539,0.7340816855430603,4.920311624800888e-08,0.4561965465545654,0.6873978972434998,-0.0088929561898112,0.4280335903167724,0.6048765182495117,-0.0078728683292865,0.4206152558326721,0.5362831950187683,-0.0097341695800423,0.4137917757034302,0.4839324355125427,-0.0107129151001572,0.4821995794773102,0.512504518032074,0.0214657317847013,0.4711827039718628,0.4443249702453613,0.0093409214168787,0.4521297216415405,0.4052938818931579,-0.0066673466935753,0.431580126285553,0.374268501996994,-0.0180016886442899,0.513748288154602,0.497932106256485,0.0148052824661135,0.5067680478096008,0.4149708747863769,0.0063916416838765,0.4899112582206726,0.3575592041015625,-0.0071535524912178,0.4709366261959076,0.307445228099823,-0.0174746681004762,0.5443150401115417,0.4999496936798095,0.0030850633047521,0.5482347011566162,0.4186438620090484,-0.0066718109883368,0.5357264280319214,0.3666530251502991,-0.0172497630119323,0.517642080783844,0.3220438957214355,-0.024753276258707,0.5740614533424377,0.5149030089378357,-0.0110535286366939,0.58626788854599,0.4497033953666687,-0.0196050871163606,0.5818048715591431,0.4039658606052398,-0.0254792794585227,0.5689491033554077,0.3622481822967529,-0.0296588502824306
2023-08-01 15:55:34.709928,11,35,0.6354951858520508,0.5568986535072327,-0.1868790239095688,0.5010848045349121,0.2890625,0.84423828125,0.41259765625,0.4957892894744873,0.7248899936676025,-9.529073530245569e-09,0.4413658678531647,0.6803118586540222,-0.0085889855399727,0.4133853018283844,0.5944942235946655,-0.0065319626592099,0.4092380106449127,0.5249785780906677,-0.0071722934953868,0.4029610455036163,0.4766592383384704,-0.0071868821978569,0.4694665074348449,0.5077071189880371,0.0184811726212501,0.4565694630146026,0.4383656680583954,0.0070535074919462,0.4391618967056274,0.3968285322189331,-0.0078179566189646,0.4208130836486816,0.3631756901741028,-0.0187837909907102,0.5022022724151611,0.493750661611557,0.0112467026337981,0.4950684905052185,0.4065686166286468,0.0033241135533899,0.479927122592926,0.3465432524681091,-0.0096097122877836,0.4620814323425293,0.2968266904354095,-0.0196971632540226,0.5325577259063721,0.4966104626655578,-0.000565466354601,0.5368075966835022,0.4143317937850952,-0.0106913708150386,0.529133677482605,0.3605643808841705,-0.021893672645092,0.5151901841163635,0.3149847686290741,-0.0299666170030832,0.5611038208007812,0.5121625065803528,-0.0145433330908417,0.5761321783065796,0.4485862553119659,-0.0240509063005447,0.5755417943000793,0.4012444615364074,-0.0305233933031559,0.5669276714324951,0.3592737913131714,-0.0353981629014015
2023-08-01 15:55:34.771939,12,36,0.6440046429634094,0.5593586564064026,-0.1762183159589767,0.4912464022636413,0.095703125,0.87109375,0.43017578125,0.4823378920555115,0.7230007648468018,3.9750858604747925e-08,0.4302480518817901,0.6775332093238831,-0.01042718347162,0.4034365713596344,0.5914014577865601,-0.0092393634840846,0.3971534073352813,0.522502064704895,-0.0102017689496278,0.3842191398143768,0.4771138429641723,-0.0107208183035254,0.4599597454071045,0.5024800896644592,0.0155395800247788,0.4487075507640838,0.4315700531005859,0.0045204604975879,0.4328298270702362,0.3864843845367431,-0.0097436364740133,0.415885716676712,0.347275972366333,-0.0209116693586111,0.4935523569583893,0.49073526263237,0.0084390146657824,0.4891159832477569,0.4030907154083252,-0.000484675168991,0.4769979417324066,0.3415822982788086,-0.0138454120606184,0.461963802576065,0.2897839248180389,-0.0242046751081943,0.52385014295578,0.4968727529048919,-0.0031236447393894,0.5305535793304443,0.4144473671913147,-0.0149164628237485,0.5257560610771179,0.3593752384185791,-0.026617657393217,0.514966607093811,0.3115685284137726,-0.0348097458481788,0.551081120967865,0.5158651471138,-0.0168676152825355,0.5677366256713867,0.451658546924591,-0.0280562620609998,0.5709794163703918,0.4025559723377228,-0.0350881442427635,0.5677112936973572,0.357255607843399,-0.0402826406061649
2023-08-01 15:55:34.831676,13,37,0.6540240049362183,0.5594916939735413,-0.1699890792369842,0.4799220860004425,0.0625,0.86181640625,0.4990234375,0.4767962098121643,0.7243222594261169,8.893614733551659e-08,0.4227218925952911,0.6801270246505737,-0.0101319216191768,0.3957010209560394,0.5911596417427063,-0.0082866949960589,0.3884419202804565,0.5202735066413879,-0.008671548217535,0.3730106949806213,0.4739449024200439,-0.0087463231757283,0.4525156617164612,0.5005210638046265,0.0164892263710498,0.4418818354606628,0.4265731275081634,0.006790876854211,0.4272353053092956,0.3786864280700683,-0.0064575872384011,0.4120148420333862,0.3365674316883087,-0.0171389132738113,0.4867641627788543,0.4893536865711212,0.0091507025063037,0.4843523800373077,0.3988628983497619,0.0006989226676523,0.474667876958847,0.3339108228683471,-0.0127668641507625,0.4625909328460693,0.279229462146759,-0.0232766512781381,0.5166162252426147,0.4964971244335174,-0.0026209310162812,0.5252571702003479,0.4121010899543762,-0.0140388337895274,0.5222259163856506,0.3546991944313049,-0.026555061340332,0.5141380429267883,0.3048701286315918,-0.0355647802352905,0.5428757071495056,0.5163653492927551,-0.0165230892598629,0.5627527236938477,0.4513126909732818,-0.0275464672595262,0.5694827437400818,0.4013802707195282,-0.0350672453641891,0.5705252885818481,0.3550078272819519,-0.0407975502312183
2023-08-01 15:55:34.894436,14,38,0.6643162965774536,0.5566805005073547,-0.1642597317695617,0.4709662795066833,0.14404296875,0.8349609375,0.50146484375,0.4712601900100708,0.7266499996185303,1.3258565445539716e-07,0.4166010320186615,0.6814780235290527,-0.0094591546803712,0.3893270492553711,0.5902168154716492,-0.0072432770393788,0.3812839984893799,0.5184640288352966,-0.0072345593944191,0.3658807575702667,0.4694790840148926,-0.0071050585247576,0.4452382326126098,0.4957273006439209,0.0171671826392412,0.4350593388080597,0.419937402009964,0.0082947062328457,0.4232276082038879,0.3699682652950287,-0.0044390666298568,0.4122927188873291,0.3241684436798095,-0.015201412141323,0.4807512164115906,0.4854389727115631,0.0090031512081623,0.480234831571579,0.3928117156028747,0.0011779280612245,0.4726514220237732,0.3262641429901123,-0.0123125622048974,0.4627979397773742,0.269515722990036,-0.0231991056352853,0.5111504793167114,0.4944012463092804,-0.0035478558856993,0.5231907367706299,0.4096949696540832,-0.0145292654633522,0.5216283202171326,0.3510898947715759,-0.02717293985188,0.5147203803062439,0.299720823764801,-0.0367058590054512,0.5373491644859314,0.5163350701332092,-0.0181538071483373,0.5595073103904724,0.4503118991851806,-0.0292576570063829,0.5684400200843811,0.4004036486148834,-0.036875482648611,0.5716362595558167,0.3533068895339966,-0.0429051518440246
2023-08-01 15:55:34.951356,15,39,0.674289345741272,0.5541749596595764,-0.1582025289535522,0.4617315828800201,0.15576171875,0.912109375,0.48388671875,0.4551776349544525,0.7385213971138,2.93724866651246e-07,0.4005531966686249,0.6918569803237915,-0.015720160678029,0.3723158240318298,0.5968928337097168,-0.0181722454726696,0.3651576638221741,0.5225414037704468,-0.020818755030632,0.3470130264759063,0.4734538197517395,-0.0235053598880767,0.4293971061706543,0.4921124279499054,0.0035243027377873,0.4259819686412811,0.4085301458835602,-0.0071829981170594,0.4226034879684448,0.3550719022750854,-0.0207029171288013,0.4214743971824646,0.3056371808052063,-0.0324133448302745,0.4671622216701507,0.4859612584114074,-0.0025928518734872,0.4770436882972717,0.3897814750671386,-0.0115148061886429,0.4807842969894409,0.3238540589809418,-0.0252821557223796,0.4831719696521759,0.2662877738475799,-0.0367412492632865,0.4982616901397705,0.5008370876312256,-0.0128281945362687,0.5187464952468872,0.4128672778606415,-0.0241027120500803,0.5274558663368225,0.3539921045303345,-0.0368876233696937,0.5322943925857544,0.3015944957733154,-0.0473789237439632,0.5240935683250427,0.5304937362670898,-0.0254374984651803,0.5506311655044556,0.4654812216758728,-0.037011157721281,0.5653535723686218,0.4179839789867401,-0.0445547439157962,0.577256441116333,0.3721062541007995,-0.0509232282638549
2023-08-01 15:55:35.011940,16,40,0.680812418460846,0.5545234680175781,-0.1594693660736084,0.4511848390102386,0.17431640625,0.916015625,0.4921875,0.4520908892154693,0.748683512210846,3.129042909222335e-07,0.3974558711051941,0.6987259984016418,-0.0151274958625435,0.3702936768531799,0.6030131578445435,-0.0179836321622133,0.3607646226882934,0.5289297699928284,-0.0212950389832258,0.3398939967155456,0.4802557826042175,-0.0246016327291727,0.4248183369636535,0.4918927550315857,0.0044046319089829,0.4225672483444214,0.4073770642280578,-0.0059421430341899,0.4207299947738647,0.3535571098327636,-0.0191371068358421,0.4220655262470245,0.3037196695804596,-0.0307111460715532,0.4629581868648529,0.4860472083091736,-0.0024701664224267,0.4735694229602813,0.3873814940452575,-0.0106234271079301,0.4791159033775329,0.3209657669067383,-0.0238751284778118,0.483552873134613,0.2636885941028595,-0.0352679826319217,0.494507759809494,0.502351701259613,-0.0134895434603095,0.5161351561546326,0.4154635369777679,-0.024236487224698,0.5251697897911072,0.3562411665916443,-0.0372458472847938,0.5298523306846619,0.3025959730148315,-0.0483185462653636,0.5204120874404907,0.533754825592041,-0.0268924254924058,0.5491749048233032,0.4712268114089966,-0.0377024076879024,0.5646077394485474,0.4252017736434936,-0.0452325567603111,0.5761218070983887,0.3799653053283691,-0.0520201511681079
2023-08-01 15:55:35.080275,17,41,0.6831020712852478,0.5580381751060486,-0.1625520437955856,0.4422011077404022,0.0771484375,0.865234375,0.51025390625,0.4476618766784668,0.763236939907074,2.8533958129628445e-07,0.392551988363266,0.7114384174346924,-0.0161073748022317,0.3652501702308655,0.6120949387550354,-0.017687464132905,0.3558772802352905,0.5374906063079834,-0.0198492165654897,0.3361870050430298,0.4911531209945678,-0.02176627330482,0.4216345548629761,0.5010162591934204,0.0067496802657842,0.4198318123817444,0.41420578956604,-0.0039032406639307,0.4182094931602478,0.3590799570083618,-0.0173000544309616,0.4202779829502105,0.3091436922550201,-0.0287625696510076,0.4601995348930359,0.4955202639102936,0.0004771288367919,0.4681213498115539,0.396524429321289,-0.0070659145712852,0.4720089733600616,0.3296141028404236,-0.0191548652946949,0.4755929112434387,0.2732663154602051,-0.0293360706418752,0.4929888546466827,0.5128628611564636,-0.0105007356032729,0.5127147436141968,0.4246610999107361,-0.0208032634109258,0.5237608551979065,0.368169754743576,-0.0315242409706115,0.5310884714126587,0.3178126513957977,-0.0405950583517551,0.5201530456542969,0.5461795926094055,-0.024289658293128,0.5472102761268616,0.4841643571853637,-0.0346576236188411,0.5639124512672424,0.4402285516262054,-0.0406050570309162,0.5779514908790588,0.3975408673286438,-0.0459383465349674
2023-08-01 15:55:35.143195,18,42,0.6835959553718567,0.5627036690711975,-0.1618178635835647,0.4357478022575378,-0.0556640625,0.81982421875,0.51025390625,0.4520034790039062,0.7667829990386963,2.848318843007292e-07,0.3962774574756622,0.7148762345314026,-0.0153802279382944,0.3662500083446502,0.6157124042510986,-0.0160962101072073,0.3564928770065307,0.5402708053588867,-0.0175601318478584,0.3381300866603851,0.4932008385658264,-0.0186681542545557,0.4242061078548431,0.5045138597488403,0.0092736324295401,0.4220840632915497,0.4181015491485595,5.114573650644161e-05,0.4199580550193786,0.3630052208900451,-0.0126586547121405,0.421296089887619,0.3131545186042785,-0.0238791927695274,0.4624609053134918,0.4988632798194885,0.0029803398065268,0.4702549278736114,0.3983663916587829,-0.0030937797855585,0.4747215211391449,0.3319641947746277,-0.0145615637302398,0.4786519408226013,0.2766952216625213,-0.0246803387999534,0.4952394068241119,0.5153116583824158,-0.0081379655748605,0.5143256187438965,0.4271902441978454,-0.0171893462538719,0.5238911509513855,0.3697574734687805,-0.0282125025987625,0.5295032262802124,0.3190584778785705,-0.0379232428967952,0.5231989622116089,0.5468791723251343,-0.0220777597278356,0.5508994460105896,0.4849683046340942,-0.0315229035913944,0.5677800178527832,0.4408761858940124,-0.0378634296357631,0.5815263986587524,0.3982376456260681,-0.0438453182578086
2023-08-01 15:55:35.198078,19,43,0.6846818923950195,0.5648994445800781,-0.1569058299064636,0.4329894483089447,0.0380859375,0.923828125,0.39111328125,0.4565746486186981,0.7656649947166443,2.942627759239258e-07,0.4006666839122772,0.7142164707183838,-0.0161136705428361,0.3679633140563965,0.6169845461845398,-0.0177888367325067,0.3563479483127594,0.5414884686470032,-0.0202661734074354,0.3392557501792907,0.4920003414154053,-0.022172475233674,0.4273685216903686,0.5050557255744934,0.0089842500165104,0.4255484342575073,0.4190027117729187,-0.0010041883215308,0.4239197969436645,0.3644413948059082,-0.0143150659278035,0.4259882271289825,0.3149351477622986,-0.0258523393422365,0.4660473465919494,0.4987547993659973,0.0029977329540997,0.4732339680194855,0.3989858031272888,-0.0034981130156666,0.4768800437450409,0.333107590675354,-0.0150334322825074,0.480400949716568,0.2778434753417969,-0.0252697560936212,0.4996568560600281,0.5142514705657959,-0.0079531697556376,0.5179948210716248,0.4258441030979156,-0.0171819776296615,0.5272416472434998,0.3691000044345855,-0.0273675303906202,0.5327727198600769,0.3191455006599426,-0.0364717878401279,0.528766393661499,0.5454677939414978,-0.0218711476773023,0.5564634203910828,0.4833554327487945,-0.0309150069952011,0.5730645060539246,0.4391268193721771,-0.0364107079803943,0.5865921378135681,0.3963117599487304,-0.0417711995542049
2023-08-01 15:55:35.258258,20,44,0.6851601600646973,0.5662164688110352,-0.1574427783489227,0.4303094744682312,0.01318359375,0.8837890625,0.44384765625,0.4612392485141754,0.7650525569915771,2.639477827415249e-07,0.4050247073173523,0.7156946659088135,-0.0143239898607134,0.3729777038097381,0.6145719289779663,-0.0136262672021985,0.3625069260597229,0.5370996594429016,-0.0138702932745218,0.3456607162952423,0.4909286499023437,-0.0138058420270681,0.4327355623245239,0.5057364106178284,0.0108917504549026,0.4293117821216583,0.419594794511795,0.0026581340935081,0.4270786345005035,0.3646227717399597,-0.0092614768072962,0.4283448457717895,0.3160431385040283,-0.019908869639039,0.4715378582477569,0.4991613626480102,0.004794334527105,0.4797083437442779,0.398323118686676,0.0004086107655894,0.4835721850395202,0.3329332768917084,-0.0095476666465401,0.48664391040802,0.2797162234783172,-0.0187132488936185,0.5050725340843201,0.514091968536377,-0.0061454004608094,0.5234143733978271,0.423924833536148,-0.0135777397081255,0.5315651893615723,0.3675844967365265,-0.0232014115899801,0.5359573364257812,0.3186336755752563,-0.032220285385847,0.5339347720146179,0.544675886631012,-0.0199114307761192,0.5613366365432739,0.4828668534755707,-0.0279647652059793,0.5771021842956543,0.439128041267395,-0.0333517082035541,0.589566171169281,0.3972859978675842,-0.0388657376170158
2023-08-01 15:55:35.322613,21,45,0.6878370642662048,0.56432044506073,-0.1546861678361892,0.4295285642147064,0.0107421875,0.845703125,0.5009765625,0.4763077199459076,0.7752343416213989,2.3143624616750458e-07,0.4186441302299499,0.7244210839271545,-0.0111840199679136,0.3898995518684387,0.6242457628250122,-0.006110924296081,0.3834902048110962,0.5467805862426758,-0.0025991760194301,0.369401603937149,0.498808890581131,0.0018156343139708,0.4518925547599792,0.5117782950401306,0.0219000820070505,0.4493234753608703,0.4242098331451416,0.0183013398200273,0.4472306966781616,0.3700234293937683,0.0082280505448579,0.4476933181285858,0.3210180401802063,-0.0011954696383327,0.4916382730007171,0.5044955015182495,0.0160114634782075,0.5013393759727478,0.4050453901290893,0.017910111695528,0.506536602973938,0.3416457176208496,0.0112302871420979,0.508956789970398,0.2905404269695282,0.0044085588306188,0.5256398916244507,0.5194002985954285,0.0049195848405361,0.5429502129554749,0.4308968782424927,0.0038196537643671,0.5506919026374817,0.3755363821983337,-0.0016158130019903,0.5543251633644104,0.3266749978065491,-0.0081422608345747,0.5556758046150208,0.5499449372291565,-0.0093093970790505,0.5822138786315918,0.4899086356163025,-0.012176776304841,0.5985780954360962,0.4496751427650451,-0.0136401010677218,0.6128816604614258,0.4114956855773926,-0.0161338578909635
2023-08-01 15:55:35.383480,22,46,0.690169632434845,0.5628489851951599,-0.1537384092807769,0.4280553758144378,0.0009765625,0.84228515625,0.52099609375,0.4751734733581543,0.7761515974998474,2.275045005717402e-07,0.4199058711528778,0.7255392074584961,-0.0107615729793906,0.3908439874649048,0.6271829605102539,-0.0069263451732695,0.3833934068679809,0.5500199794769287,-0.0049409256316721,0.3676766157150268,0.5031755566596985,-0.0020879697985947,0.4523956775665283,0.5162478089332581,0.0209876224398612,0.4489045739173889,0.4304949045181274,0.0162899252027273,0.4467110633850097,0.3783380687236786,0.0064922249875962,0.4481315016746521,0.3320130407810211,-0.0024385470896959,0.4913031458854675,0.5095794796943665,0.0142723936587572,0.4981994926929474,0.4096528887748718,0.0138999475166201,0.5020842552185059,0.3451585173606872,0.0067911893129348,0.5052435398101807,0.2931248545646667,-2.36844471146469e-06,0.5249487161636353,0.5249162316322327,0.0023645258042961,0.542090117931366,0.4348378777503967,-0.001802779501304,0.5504270792007446,0.3805591464042663,-0.0085316868498921,0.5551919341087341,0.3329896330833435,-0.0151868155226111,0.5550519824028015,0.5559085607528687,-0.0124416928738355,0.5823813080787659,0.495072454214096,-0.0180680826306343,0.5983168482780457,0.4538004696369171,-0.0215004496276378,0.6116944551467896,0.4139766097068786,-0.025150591507554
2023-08-01 15:55:35.446437,23,47,0.692970335483551,0.5599049925804138,-0.1506170779466629,0.4285008013248443,0.0009765625,0.857421875,0.52001953125,0.4760657846927643,0.7772417664527893,2.393913121068181e-07,0.4194471538066864,0.7292399406433105,-0.0122842472046613,0.391203224658966,0.6300124526023865,-0.0088171865791082,0.3838560581207275,0.5510500073432922,-0.0070120613090693,0.3643437325954437,0.5080709457397461,-0.0044808313250541,0.4524933397769928,0.5204657912254333,0.0200010426342487,0.4488618373870849,0.4346955716609955,0.0152486953884363,0.4464485943317413,0.3811373114585876,0.005347573198378,0.447445273399353,0.3335318863391876,-0.0038621814455837,0.49179208278656,0.5136426687240601,0.0137666352093219,0.4985741972923279,0.4138820767402649,0.0131490593776106,0.5022957921028137,0.3488820195198059,0.0061660194769501,0.5051056742668152,0.296282947063446,-0.0005781262880191,0.5254144072532654,0.5287331938743591,0.0021851568017154,0.5419864654541016,0.4387009739875793,-0.0024642087519168,0.5497118234634399,0.3836040496826172,-0.009096342138946,0.5541853308677673,0.3351089358329773,-0.0156540460884571,0.556070864200592,0.5590377449989319,-0.0124830044806003,0.5834076404571533,0.4982883036136627,-0.0183794312179088,0.5992962718009949,0.4569578170776367,-0.0218849815428257,0.6127277612686157,0.4168774485588074,-0.0257050935178995
2023-08-01 15:55:35.515199,24,48,0.6982676982879639,0.5562870502471924,-0.1479370892047882,0.4255366623401642,0.0224609375,0.884765625,0.517578125,0.4744083881378174,0.7835812568664551,2.2760850981740083e-07,0.417789489030838,0.7338699698448181,-0.009970492683351,0.391264408826828,0.6317905187606812,-0.0046116039156913,0.3855524659156799,0.5520169138908386,-0.0012895335676148,0.3660473227500915,0.5079752802848816,0.0027771946042776,0.4536535143852234,0.5249455571174622,0.0236412230879068,0.4505515098571777,0.4389743506908417,0.0203241575509309,0.4484968185424804,0.3853533864021301,0.0108951637521386,0.4498274028301239,0.3375011384487152,0.0017996556125581,0.4925047159194946,0.5179686546325684,0.0166128519922494,0.4982686936855316,0.4176326394081116,0.0170876272022724,0.5017468333244324,0.351861834526062,0.0099128866568207,0.5042486786842346,0.2987627387046814,0.0029410964343696,0.526130199432373,0.5327969193458557,0.0043787341564893,0.5422911643981934,0.4414361119270324,0.000492830411531,0.5500472187995911,0.3854871988296509,-0.0066657182760536,0.5542268753051758,0.3363763093948364,-0.0137138934805989,0.5570264458656311,0.5626091361045837,-0.0107583785429596,0.5852518677711487,0.5002835392951965,-0.0161161068826913,0.6013985872268677,0.458363801240921,-0.0198561064898967,0.6146640777587891,0.4179663062095642,-0.0239449553191661
2023-08-01 15:55:35.574811,25,49,0.7012383937835693,0.5545444488525391,-0.1435059905052185,0.4244422912597656,-0.044921875,0.87939453125,0.5048828125,0.4800833165645599,0.8078765869140625,2.046465255034491e-07,0.420701116323471,0.7574329972267151,-0.0098697915673255,0.3940203189849853,0.6514034271240234,-0.0042691850103437,0.3873727321624756,0.5678916573524475,-0.0008546187309548,0.3665891885757446,0.5213159918785095,0.0034097044263035,0.456407755613327,0.5438125729560852,0.0252343192696571,0.4519390761852264,0.4557422697544098,0.0223143696784973,0.4501060247421264,0.4005598723888397,0.0126885315403342,0.4519758224487304,0.3516600728034973,0.0033320060465484,0.4941115975379944,0.5351784825325012,0.018018377944827,0.4973746538162231,0.4318302869796753,0.0194796714931726,0.4989382922649383,0.3640415668487549,0.0125850001350045,0.499486356973648,0.3103135526180267,0.0058376165106892,0.5282434821128845,0.5499762296676636,0.0054755331948399,0.5413527488708496,0.4542459845542907,0.0029555195942521,0.5485126972198486,0.3952189981937408,-0.0042816759087145,0.5528336763381958,0.3441174030303955,-0.0117366164922714,0.5599324107170105,0.5807549357414246,-0.0101000145077705,0.585896909236908,0.5159571766853333,-0.0145099461078643,0.6012066006660461,0.473355621099472,-0.0181313231587409,0.6147608160972595,0.4332753419876098,-0.0222725737839937
2023-08-01 15:55:35.629938,26,50,0.7032902240753174,0.5540897250175476,-0.1408943980932235,0.4225117564201355,-0.03662109375,0.8740234375,0.48681640625,0.4807444810867309,0.8133370280265808,2.4190066483242845e-07,0.422132670879364,0.7605838775634766,-0.012803697027266,0.3948661684989929,0.6568466424942017,-0.0101735834032297,0.3888145089149475,0.5728272199630737,-0.0093779247254133,0.3669843673706054,0.5262700915336609,-0.0078120199032127,0.457512229681015,0.5463234782218933,0.0210710745304822,0.452614277601242,0.4586738348007202,0.0155429812148213,0.4490660429000854,0.4033228754997253,0.0042746113613247,0.449356734752655,0.3531432449817657,-0.0062715890817344,0.4960186183452606,0.5392688512802124,0.0142215760424733,0.4990829527378082,0.4353342056274414,0.0125206708908081,0.5005831122398376,0.3678951859474182,0.0038190754130482,0.5016120672225952,0.3115913569927215,-0.0043240394443273,0.5298537015914917,0.5551316738128662,0.0018172704149037,0.5432927012443542,0.4600503444671631,-0.0040775556117296,0.5501903891563416,0.4001790881156921,-0.012633629143238,0.5540092587471008,0.3472572565078735,-0.0207199584692716,0.5621669888496399,0.5864951014518738,-0.0137228285893797,0.5898187160491943,0.5212797522544861,-0.0202160812914371,0.6055669188499451,0.4768360257148742,-0.0247007124125957,0.6184536814689636,0.4334867894649505,-0.0295338630676269
2023-08-01 15:55:35.691221,27,51,0.7053036689758301,0.5517679452896118,-0.1376027166843414,0.4232781529426574,-0.0556640625,0.87060546875,0.5,0.4841485023498535,0.8178423643112183,2.33400811566753e-07,0.4248917400836944,0.7639990448951721,-0.0118413362652063,0.3972442150115967,0.6596218347549438,-0.0084221111610531,0.3910071849822998,0.5751344561576843,-0.0070608356036245,0.3701200187206268,0.528196394443512,-0.0050237667746841,0.4608708620071411,0.5498860478401184,0.0217822585254907,0.4557161033153534,0.4612152874469757,0.0163516923785209,0.4520035088062286,0.404994398355484,0.0052886004559695,0.4521785080432892,0.354065328836441,-0.0051378742791712,0.4993545114994049,0.5426005125045776,0.0143983392044901,0.5023500323295593,0.4382228255271911,0.0124773597344756,0.5040438771247864,0.3699108362197876,0.0037256809882819,0.505470335483551,0.3128559589385986,-0.0044057709164917,0.5330753326416016,0.5584090352058411,0.0014910412719473,0.5464563369750977,0.4640730619430542,-0.0047458033077418,0.5535024404525757,0.4035028219223022,-0.0136625757440924,0.5574946403503418,0.3496396541595459,-0.021968787536025,0.5651665925979614,0.5899404287338257,-0.0144741311669349,0.5932326912879944,0.5247302055358887,-0.0213903058320283,0.6090553402900696,0.4797066450119018,-0.0263281967490911,0.6218109130859375,0.4354674220085144,-0.0314965359866619
2023-08-01 15:55:35.759125,28,52,0.7071800231933594,0.5492844581604004,-0.1360128819942474,0.4238907694816589,-0.048828125,0.88134765625,0.51416015625,0.4879595339298248,0.8238341808319092,2.37289810911534e-07,0.4289643168449402,0.7691581845283508,-0.0117465583607554,0.4009660482406616,0.6620845794677734,-0.0080398404970765,0.3938928842544555,0.5762172937393188,-0.0064508435316383,0.3724648356437683,0.5290887951850891,-0.0040770559571683,0.463643342256546,0.5525145530700684,0.0227497611194849,0.4582473337650299,0.4638029932975769,0.0175204314291477,0.4545592665672302,0.4077901840209961,0.0064999847672879,0.4547843039035797,0.3571253418922424,-0.0038694441318511,0.5025457143783569,0.5451660752296448,0.0153260044753551,0.5052870512008667,0.4401752650737762,0.0138829192146658,0.5068303942680359,0.3716555535793304,0.0054443166591227,0.507951021194458,0.3142708539962768,-0.0024324904661625,0.5369254946708679,0.5612092614173889,0.0023241613525897,0.550842821598053,0.4659790992736816,-0.0032758086454123,0.5577951669692993,0.404615581035614,-0.0117201022803783,0.5613261461257935,0.350122720003128,-0.0197485741227865,0.5696609020233154,0.5932474732398987,-0.0138074522837996,0.5984312295913696,0.5277334451675415,-0.0201611649245023,0.614305853843689,0.4819928407669067,-0.0246149059385061,0.6267348527908325,0.4372503161430359,-0.0294379517436027
2023-08-01 15:55:35.816729,29,53,0.7079456448554993,0.5481946468353271,-0.1355474144220352,0.4241728484630584,-0.05322265625,0.8779296875,0.54931640625,0.4940946698188782,0.8358048796653748,2.1394414773112658e-07,0.4336227774620056,0.7801876068115234,-0.0123269390314817,0.4076735377311706,0.669655978679657,-0.009405200369656,0.4033639132976532,0.5823709964752197,-0.0084352744743227,0.381320059299469,0.535171389579773,-0.0072057489305734,0.4720268249511719,0.563514232635498,0.0191361866891384,0.4674489200115204,0.4737230837345123,0.0120791411027312,0.4644681215286255,0.4160386919975281,-0.0004705797764472,0.4649056196212768,0.3639646470546722,-0.0121614150702953,0.5118973255157471,0.556401789188385,0.0107906581833958,0.5152922868728638,0.4494202733039856,0.0066350158303976,0.5167050361633301,0.3788277208805084,-0.0048398887738585,0.5177728533744812,0.3194560408592224,-0.0150704421103,0.5464437007904053,0.572874128818512,-0.0027137885335832,0.5610591173171997,0.4740554094314575,-0.0106524173170328,0.5673832893371582,0.4099783599376678,-0.0211494378745555,0.5708003640174866,0.3527725040912628,-0.0310509353876113,0.5785161852836609,0.606000542640686,-0.0191545262932777,0.6060833930969238,0.540573000907898,-0.0277666393667459,0.622392475605011,0.4940971732139587,-0.0332756601274013,0.6359055042266846,0.4489137530326843,-0.0390668250620365
2023-08-01 15:55:35.880977,30,54,0.7079264521598816,0.5480725169181824,-0.1344323754310608,0.4247171878814697,-0.06494140625,0.87060546875,0.5234375,0.4951587617397308,0.8358974456787109,2.564712815456005e-07,0.435758113861084,0.7773917317390442,-0.0136310504749417,0.4081741869449615,0.672789454460144,-0.0128093659877777,0.4007039070129394,0.588129997253418,-0.0136954532936215,0.3798760175704956,0.5377036929130554,-0.0138530954718589,0.4739113748073578,0.5609665513038635,0.0164232105016708,0.4694662988185882,0.4700737595558166,0.0079603707417845,0.4663174450397491,0.4125974774360657,-0.0049740332178771,0.4670030772686004,0.360300600528717,-0.0164624713361263,0.5126643776893616,0.5552557706832886,0.009063527919352,0.5163168907165527,0.4496773779392242,0.0039881384000182,0.5185326337814331,0.3805165886878967,-0.0067900489084422,0.5208970904350281,0.3212939500808716,-0.0162870585918426,0.5469853281974792,0.5721176862716675,-0.0036267654504626,0.5602341890335083,0.4758998155593872,-0.0121156862005591,0.5680520534515381,0.4134154021739959,-0.0223860908299684,0.5732294321060181,0.3577492237091064,-0.0315058045089244,0.5792944431304932,0.6051186919212341,-0.0194012578576803,0.6086693406105042,0.5388923287391663,-0.027975145727396,0.6260582804679871,0.4927188754081726,-0.033670712262392,0.6403786540031433,0.4482296407222748,-0.0391777977347373
2023-08-01 15:55:35.944183,31,55,0.7071710824966431,0.5489598512649536,-0.1336306929588318,0.4250822961330414,-0.078125,0.8603515625,0.5244140625,0.4948818385601043,0.8358285427093506,2.547798203522689e-07,0.4355062246322632,0.7772993445396423,-0.0135368080809712,0.4081001281738281,0.6724445819854736,-0.0125418966636061,0.4007654190063476,0.587819516658783,-0.0132464682683348,0.3796619176864624,0.5378538966178894,-0.0132554415613412,0.4738368690013885,0.5609285235404968,0.0165013372898101,0.4694137871265411,0.4702467918395996,0.0081279845908284,0.4662722647190094,0.4128265082836151,-0.0047448892146348,0.4669393599033355,0.3605600595474243,-0.0162192620337009,0.5126241445541382,0.5552579760551453,0.0091269658878445,0.5162584781646729,0.4498022794723511,0.0040490138344466,0.5184562802314758,0.3806998133659363,-0.0067611644044518,0.5208134651184082,0.3213966786861419,-0.0162846371531486,0.5469438433647156,0.5721325874328613,-0.0035572492051869,0.5601807236671448,0.4759761989116668,-0.012142033316195,0.5679974555969238,0.4135094285011291,-0.0224958881735801,0.5731691718101501,0.3577788770198822,-0.0316569022834301,0.579247772693634,0.6051470041275024,-0.0193011872470378,0.6086589097976685,0.5389550924301147,-0.0279914122074842,0.6260860562324524,0.4928005039691925,-0.0337630733847618,0.6403849124908447,0.4482966065406799,-0.0393236689269542
2023-08-01 15:55:36.004698,32,56,0.7065027952194214,0.5489437580108643,-0.1337892413139343,0.4261631071567535,-0.07177734375,0.87646484375,0.462890625,0.4986109733581543,0.831152081489563,2.3627268319614814e-07,0.4402132928371429,0.7743748426437378,-0.0127664282917976,0.4119983613491058,0.6680245399475098,-0.0105311125516891,0.4053586721420288,0.5825077891349792,-0.0100184017792344,0.3826784491539001,0.5369938611984253,-0.0089417500421404,0.4778221845626831,0.5576510429382324,0.0178160723298788,0.4732241928577423,0.4687851071357727,0.0112044420093297,0.4701226949691772,0.4126350283622741,-0.0005694234278053,0.470722883939743,0.3613962531089782,-0.0116146486252546,0.5168188214302063,0.551886260509491,0.010320165194571,0.5201866626739502,0.4463821053504944,0.0069498703815042,0.5215638279914856,0.3779005408287048,-0.0026317690499126,0.5229300856590271,0.3198531866073608,-0.0115840006619691,0.551186740398407,0.5688355565071106,-0.0024738123174756,0.5650667548179626,0.4724906086921692,-0.0100381216034293,0.5719247460365295,0.4097758531570434,-0.0200059413909912,0.5762023329734802,0.353403627872467,-0.0292192585766315,0.5834190249443054,0.6016626954078674,-0.0182910952717065,0.613548219203949,0.5363679528236389,-0.0268538687378168,0.6312841176986694,0.4900288581848144,-0.032947015017271,0.6456595063209534,0.4443153440952301,-0.0389790274202823
2023-08-01 15:55:36.066435,33,57,0.7062363028526306,0.5461165308952332,-0.1392899304628372,0.4284687042236328,-0.0185546875,0.88037109375,0.513671875,0.4972973465919494,0.8299195766448975,2.352195878074781e-07,0.4395167529582977,0.7726136445999146,-0.0129384500905871,0.4127048254013061,0.6674966812133789,-0.0115422829985618,0.4065411984920501,0.5832117199897766,-0.0118106007575988,0.3849349617958069,0.5357238054275513,-0.0114910742267966,0.4779269695281982,0.5543825030326843,0.0161747727543115,0.4733194708824157,0.4650506675243377,0.0081785814836621,0.4699359834194183,0.408214658498764,-0.0046322918497025,0.4703191518783569,0.3561024069786072,-0.0162710864096879,0.5166997909545898,0.5496435761451721,0.0086082555353641,0.5191607475280762,0.4456520080566406,0.0038276454433798,0.5207211971282959,0.3778360486030578,-0.0068631996400654,0.5225489139556885,0.3185935914516449,-0.0164292380213737,0.5510234236717224,0.5671709179878235,-0.0040964190848171,0.5636275410652161,0.4719849824905395,-0.0125083113089203,0.5712900161743164,0.4100773334503174,-0.022637415677309,0.5763300061225891,0.3542419075965881,-0.0317433513700962,0.5833965539932251,0.60039222240448,-0.0198005475103855,0.6126877665519714,0.5343431234359741,-0.0283189937472343,0.6305829882621765,0.4884766042232513,-0.0339019000530242,0.6453522443771362,0.4437527358531952,-0.0394121259450912
2023-08-01 15:55:36.128739,34,58,0.7061340808868408,0.5442406535148621,-0.1449540704488754,0.4291444718837738,0.00732421875,0.87646484375,0.5078125,0.4945172369480133,0.8292948007583618,2.2795369147843306e-07,0.4364794194698334,0.7700533866882324,-0.0114957094192504,0.410288393497467,0.6658458113670349,-0.0094893481582403,0.4048858880996704,0.5813959240913391,-0.0093657067045569,0.3831516802310943,0.5327755212783813,-0.0087568694725632,0.4752090871334076,0.5521471500396729,0.0186572521924972,0.4700431227684021,0.4641931653022766,0.0114017054438591,0.4667315483093261,0.4083244204521179,-0.0012323601404204,0.4668654203414917,0.3563803732395172,-0.0129748787730932,0.5147351026535034,0.5475969910621643,0.0103655084967613,0.5175727009773254,0.4443110823631286,0.0058096889406442,0.5189903974533081,0.3769882917404175,-0.0053566680289804,0.5201379060745239,0.3176024854183197,-0.0154348341748118,0.5489798784255981,0.5656870603561401,-0.0029814632143825,0.5616956949234009,0.4710049033164978,-0.0115385623648762,0.568376898765564,0.4098012447357178,-0.0220558941364288,0.5722606778144836,0.354404479265213,-0.031488548964262,0.581047534942627,0.5996378064155579,-0.0191645640879869,0.6101223230361938,0.5334163308143616,-0.0280588995665311,0.6276983022689819,0.4869013428688049,-0.0340400636196136,0.6421348452568054,0.4412248730659485,-0.0398813933134079
2023-08-01 15:55:36.194986,35,59,0.7061574459075928,0.5405889749526978,-0.1528558582067489,0.4309758245944977,-0.02734375,0.87548828125,0.50634765625,0.4910420775413513,0.8196336030960083,2.589230803096143e-07,0.4297084808349609,0.7644213438034058,-0.0150093436241149,0.4006693065166473,0.6602990627288818,-0.0150476293638348,0.3958892524242401,0.5748685002326965,-0.0160645265132188,0.374214768409729,0.5238761901855469,-0.0167070142924785,0.4576515555381775,0.547986626625061,0.0112983956933021,0.4478768706321716,0.4605327844619751,0.0017000157386064,0.4427528083324432,0.4047159552574157,-0.0113094532862305,0.4409627914428711,0.3537283539772033,-0.0225106235593557,0.4990165531635284,0.5388734340667725,0.0047588655725121,0.4997823238372803,0.4308030903339386,-0.0017394113820046,0.4987921714782715,0.3601788282394409,-0.0132449883967638,0.4977975487709045,0.3014372289180755,-0.0229985080659389,0.5352488160133362,0.5539371371269226,-0.0067093898542225,0.5474928617477417,0.4576532244682312,-0.0171837676316499,0.5525320172309875,0.3918768763542175,-0.0295510794967412,0.5553427338600159,0.3343919515609741,-0.0397693961858749,0.5679025650024414,0.585906445980072,-0.0209154449403285,0.5965409874916077,0.5191636681556702,-0.0311851724982261,0.6139646172523499,0.4715900719165802,-0.0381381139159202,0.6283929944038391,0.4266065061092376,-0.04440164193511
2023-08-01 15:55:36.251598,36,60,0.7045674920082092,0.5395792126655579,-0.1601034104824066,0.4322102665901184,0.001953125,0.8330078125,0.525390625,0.489175796508789,0.8188133239746094,2.3700923179603706e-07,0.4279765784740448,0.7624509930610657,-0.0126333571970462,0.3994759619235992,0.6572457551956177,-0.0109974034130573,0.3933175206184387,0.5718545913696289,-0.0111558279022574,0.3705918788909912,0.5232633948326111,-0.0109233390539884,0.4548862278461456,0.5441659092903137,0.0169736966490745,0.4425535798072815,0.456223726272583,0.0084594758227467,0.4345846176147461,0.3994587957859039,-0.0040609166026115,0.4300870895385742,0.3474729061126709,-0.0154192149639129,0.4957462847232818,0.5349567532539368,0.0087474454194307,0.4943585991859436,0.4288724064826965,0.0024599581956863,0.4925090074539184,0.3592254221439361,-0.0095808841288089,0.4905131161212921,0.2991370558738708,-0.0199021231383085,0.5318266153335571,0.5501412153244019,-0.0046148393303155,0.5426322221755981,0.4520348906517029,-0.0159690100699663,0.5480764508247375,0.3880440592765808,-0.0288758352398872,0.5504984855651855,0.3312464356422424,-0.0394402332603931,0.5653436779975891,0.581718921661377,-0.0205480400472879,0.5951117873191833,0.5147513151168823,-0.0322300940752029,0.6135170459747314,0.4673858284950256,-0.0401045493781566,0.6280776262283325,0.4221625924110412,-0.047013908624649
2023-08-01 15:55:36.312259,37,61,0.7023019194602966,0.5408819913864136,-0.1642847210168838,0.4326998293399811,0.01416015625,0.83740234375,0.5302734375,0.4881314635276794,0.8174455165863037,2.2795718734869297e-07,0.4271692633628845,0.760201096534729,-0.0110496431589126,0.3972194790840149,0.655139684677124,-0.0096067516133189,0.3893168568611145,0.5704666376113892,-0.0102141527459025,0.364963173866272,0.5204910039901733,-0.0106514142826199,0.4505070149898529,0.540230929851532,0.0167036168277263,0.4377909898757934,0.452556312084198,0.0079881884157657,0.4291820526123047,0.396303117275238,-0.0047205835580825,0.4235341250896454,0.3441740572452545,-0.0163237638771533,0.4920534491539001,0.5303714871406555,0.0073674404993653,0.4904862642288208,0.4243923425674438,0.0007267737528309,0.4877157509326935,0.3551806211471557,-0.0117712253704667,0.4842095375061035,0.2953605651855469,-0.0225715078413486,0.528459370136261,0.5456302762031555,-0.0068401163443923,0.5399227142333984,0.4474788308143616,-0.018569117411971,0.5445263981819153,0.3830639719963074,-0.0319723300635814,0.5452727675437927,0.3257179856300354,-0.0430348180234432,0.561458945274353,0.5778935551643372,-0.0233571454882621,0.591695249080658,0.5097633600234985,-0.0355311557650566,0.6096393465995789,0.4608085751533508,-0.0438289791345596,0.6228259801864624,0.4138983488082886,-0.0511108599603176
2023-08-01 15:55:36.373180,38,62,0.6998733878135681,0.5442183017730713,-0.1677148789167404,0.4311325550079345,0.0390625,0.8291015625,0.51220703125,0.4866430461406708,0.8134282231330872,2.421330975721503e-07,0.4260120391845703,0.7560381889343262,-0.0126145025715231,0.3946872651576996,0.6522967219352722,-0.0119773345068097,0.3850828111171722,0.5685069561004639,-0.0130716888234019,0.3607373237609863,0.5185498595237732,-0.013832539319992,0.4476260840892792,0.5357432961463928,0.0148361586034297,0.4339854419231415,0.4473136961460113,0.0055845286697149,0.4247335493564605,0.390645682811737,-0.0073493961244821,0.4190160036087036,0.3380652368068695,-0.0190020594745874,0.4887876808643341,0.5253311395645142,0.0063922018744051,0.4865356981754303,0.4193490147590637,-0.0004851830017287,0.4838909208774566,0.3501689434051513,-0.0127915302291512,0.4807090163230896,0.2899039089679718,-0.0234549455344676,0.5255134701728821,0.5399749279022217,-0.0070576397702097,0.5357083082199097,0.4420602321624756,-0.0188579689711332,0.540374219417572,0.3780862390995025,-0.0320195481181144,0.5413819551467896,0.3210216164588928,-0.0427771769464015,0.5592020750045776,0.5713984370231628,-0.023005997762084,0.5892702341079712,0.5022842288017273,-0.0351286120712757,0.6073839664459229,0.4533445835113525,-0.0433807931840419,0.6210083365440369,0.4068259596824646,-0.0505248084664344
2023-08-01 15:55:36.438799,39,63,0.6990869045257568,0.5494613647460938,-0.164851889014244,0.4268414676189422,0.02685546875,0.8291015625,0.5341796875,0.4818458557128906,0.8004627823829651,2.513619392630062e-07,0.4210340976715088,0.7469432950019836,-0.0122808748856186,0.3881732225418091,0.6421248912811279,-0.0106864431872963,0.378724992275238,0.5584850907325745,-0.0104800490662455,0.3549391031265259,0.5125089287757874,-0.0101327337324619,0.4409435093402862,0.5251953601837158,0.0120539860799908,0.4250897765159607,0.4359204173088074,0.0026137514505535,0.4150513112545013,0.379091739654541,-0.0094597339630126,0.4087746143341064,0.3279022872447967,-0.0200838148593902,0.4819155633449554,0.5132968425750732,0.0039291908033192,0.4773152470588684,0.4034821987152099,-0.003234694013372,0.4718765318393707,0.3315704762935638,-0.0146486368030309,0.466495156288147,0.2726744413375854,-0.0242461003363132,0.5184782147407532,0.5270576477050781,-0.0089471489191055,0.5293822884559631,0.4278684556484222,-0.0208097957074642,0.5321731567382812,0.36082524061203,-0.0343175828456878,0.5322840809822083,0.3030505180358886,-0.0452502369880676,0.5513012409210205,0.5588561296463013,-0.0241468828171491,0.5822261571884155,0.4905091524124145,-0.0366219095885753,0.6003336310386658,0.4403039813041687,-0.0455523952841758,0.6143287420272827,0.3928634524345398,-0.0531288497149944
2023-08-01 15:55:36.499624,40,64,0.6991789937019348,0.5545036196708679,-0.1585059612989425,0.4225521683692932,0.03271484375,0.85888671875,0.53173828125,0.4785546660423279,0.796924352645874,2.2612925931753125e-07,0.4169000685214996,0.7415190935134888,-0.0109393475577235,0.3835043907165527,0.6385943293571472,-0.0097481431439518,0.3743011653423309,0.5547158122062683,-0.0107845468446612,0.3486370742321014,0.5087342858314514,-0.0118831004947423,0.4351298213005066,0.5200396776199341,0.0155156617984175,0.4196663498878479,0.4325828850269317,0.0053077531047165,0.410231739282608,0.3761497437953949,-0.0084674898535013,0.4043606519699096,0.323599100112915,-0.0207871254533529,0.4772036671638489,0.5079643130302429,0.0055646495893597,0.4723620116710663,0.4004450142383575,-0.0027507087215781,0.4685969650745392,0.329830527305603,-0.0164652131497859,0.4646224677562713,0.2684322297573089,-0.0281148180365562,0.5147711634635925,0.5212433338165283,-0.009218025021255,0.5244297385215759,0.4226337075233459,-0.0227380767464637,0.5279807448387146,0.3571365475654602,-0.0374659672379493,0.5276006460189819,0.2989540994167328,-0.0492331124842166,0.5498007535934448,0.5526795983314514,-0.0262450538575649,0.5804024338722229,0.4842142760753631,-0.0396607778966426,0.5976487994194031,0.4346440732479095,-0.048838373273611,0.6093294620513916,0.3873957395553589,-0.0567404180765152
2023-08-01 15:55:36.559877,41,65,0.6992551684379578,0.559979259967804,-0.1524776518344879,0.4173920154571533,0.00537109375,0.857421875,0.52001953125,0.4779458045959472,0.7940366864204407,2.2839864755042075e-07,0.4160800874233246,0.7400485277175903,-0.0116717144846916,0.3831005692481994,0.6349639892578125,-0.009762872941792,0.3734727501869201,0.5498477220535278,-0.0099990088492631,0.3472966253757477,0.5078584551811218,-0.0101279029622673,0.4364925920963287,0.5183100700378418,0.0165085550397634,0.4195224046707153,0.4310535788536072,0.0071805040352046,0.4087128937244415,0.3741521537303924,-0.0058170594274997,0.4022301733493805,0.3217678666114807,-0.0177548322826623,0.4774544835090637,0.5061357617378235,0.0071073612198233,0.471276581287384,0.3986712992191314,-0.0005628532962873,0.4669898748397827,0.3279590606689453,-0.0134747112169861,0.4631917774677276,0.2665592133998871,-0.0244488324970006,0.5146766304969788,0.5192269086837769,-0.0073052272200584,0.5229091644287109,0.4195601940155029,-0.0205404050648212,0.5263175368309021,0.3546671271324157,-0.0347615890204906,0.5265033841133118,0.2968104481697082,-0.046134777367115,0.5498510003089905,0.5504451394081116,-0.0241047199815511,0.5805104970932007,0.4831475913524627,-0.037284318357706,0.5984991788864136,0.4343582391738891,-0.0462728030979633,0.6117472052574158,0.3875389397144317,-0.0541068948805332
2023-08-01 15:55:36.625628,42,66,0.6984220147132874,0.5643109679222107,-0.1497608125209808,0.4139218032360077,-0.0244140625,0.83544921875,0.5078125,0.4862878620624542,0.7889510989189148,2.213296284026001e-07,0.4247121512889862,0.734852135181427,-0.013433426618576,0.3904923796653747,0.6284277439117432,-0.0113049075007438,0.3804770708084106,0.5447067022323608,-0.0105662886053323,0.357366144657135,0.5002164244651794,-0.0096308272331953,0.4477916657924652,0.5152276158332825,0.0133657176047563,0.4319639503955841,0.4259006977081299,0.0048584062606096,0.4212364554405212,0.3696199655532837,-0.0077276034280657,0.4150445163249969,0.3172841966152191,-0.0194385442882776,0.4885183870792389,0.5042824149131775,0.0056537650525569,0.4851833581924438,0.3953641057014465,-0.0004514375177677,0.4807896912097931,0.3247501254081726,-0.0128955654799938,0.4766715466976166,0.263479083776474,-0.0238833948969841,0.5256887674331665,0.5176229476928711,-0.0069681764580309,0.5375158786773682,0.4165939092636108,-0.0180544834583997,0.5404402613639832,0.3515909314155578,-0.0319263637065887,0.5401559472084045,0.2929566204547882,-0.0437373518943786,0.5607304573059082,0.5486161112785339,-0.0221751723438501,0.5926836729049683,0.4829767346382141,-0.0344657078385353,0.6113035678863525,0.4344052970409393,-0.0436790511012077,0.6257713437080383,0.3871205449104309,-0.0518591925501823
2023-08-01 15:55:36.683713,43,67,0.6967316269874573,0.5677806735038757,-0.1493839770555496,0.4121586084365845,-0.04833984375,0.85107421875,0.4638671875,0.4883016645908355,0.7895198464393616,1.997943712694905e-07,0.428507387638092,0.7334122061729431,-0.0109131438657641,0.3957045972347259,0.6265495419502258,-0.0076719634234905,0.3853629529476166,0.5435954332351685,-0.0063908919692039,0.3633092045783996,0.499565452337265,-0.0048574125394225,0.4526247382164001,0.5111958384513855,0.016320900991559,0.4362596273422241,0.4224570393562317,0.0079088229686021,0.4253693521022796,0.3646142184734344,-0.0043381918221712,0.4191176891326904,0.3125251531600952,-0.0157166104763746,0.4935828149318695,0.5012986063957214,0.0074412757530808,0.489487886428833,0.3947313725948334,0.0008605088223703,0.4862388074398041,0.3249719738960266,-0.0110824238508939,0.4833196997642517,0.2639150023460388,-0.0212181117385625,0.5312733054161072,0.5155616402626038,-0.0062876199372112,0.5417784452438354,0.4155546128749847,-0.0181987714022398,0.5456646680831909,0.351225733757019,-0.0314760729670524,0.5462964773178101,0.2930468320846557,-0.042307075113058,0.5668473243713379,0.5479562878608704,-0.0223709270358085,0.5991390943527222,0.4819490909576416,-0.0351406894624233,0.6180108785629272,0.4329878687858581,-0.0439849682152271,0.6326290369033813,0.3852989673614502,-0.0515142679214477
2023-08-01 15:55:36.745085,44,68,0.6950910687446594,0.5695599317550659,-0.1490327715873718,0.4126004576683044,-0.046875,0.89013671875,0.45703125,0.4927899539470672,0.7870285511016846,2.045235873993079e-07,0.4324996471405029,0.7299227714538574,-0.0117215299978852,0.3990449011325836,0.6246300935745239,-0.0093029020354151,0.3887100219726562,0.5417869091033936,-0.0088605321943759,0.367500901222229,0.4939295947551727,-0.008071188814938,0.4562532901763916,0.5111907124519348,0.0155128445476293,0.4399217963218689,0.4223130047321319,0.0059093874879181,0.4297868609428406,0.3638342320919037,-0.0070174010470509,0.4246533513069153,0.3109228312969208,-0.018864506855607,0.4970801770687103,0.500160276889801,0.0066577130928635,0.4923910498619079,0.3929435014724731,-0.0012221825309097,0.4898697435855865,0.3229322135448456,-0.0139061585068702,0.4882639348506927,0.2614514827728271,-0.0245422665029764,0.5348833203315735,0.5136575698852539,-0.0071419370360672,0.5457198619842529,0.4131396114826202,-0.0203909464180469,0.551145613193512,0.3493939042091369,-0.0341537781059742,0.5533068776130676,0.2914699018001556,-0.0451327227056026,0.570901095867157,0.5460782051086426,-0.0233292113989591,0.603317379951477,0.4808534979820251,-0.0372512005269527,0.6225571036338806,0.432570606470108,-0.046534989029169,0.6372504830360413,0.3853935003280639,-0.0542319416999816
2023-08-01 15:55:36.812181,45,69,0.6933214068412781,0.5686553716659546,-0.1509429216384887,0.4161163866519928,0.0419921875,0.90185546875,0.52294921875,0.4950923025608063,0.7845214009284973,2.1482563283825587e-07,0.4348288476467132,0.727190375328064,-0.0110674006864428,0.4019615948200226,0.6239978075027466,-0.0081848353147506,0.3920736908912658,0.5416427254676819,-0.0074907280504703,0.3712138831615448,0.4926124811172485,-0.0064849266782402,0.4594009518623352,0.5104593634605408,0.0171477608382701,0.4429622888565063,0.4209036827087402,0.0083439061418175,0.4330227375030517,0.3618159592151642,-0.0040122778154909,0.4282659888267517,0.3087970018386841,-0.0154559509828686,0.5004442930221558,0.4992481470108032,0.0080979466438293,0.4959716796875,0.3912031650543213,0.0008810074068605,0.4936986565589905,0.3201095759868622,-0.0116184577345848,0.492383062839508,0.2587174475193023,-0.0221187118440866,0.5381335020065308,0.5125756859779358,-0.0059246933087706,0.5479370951652527,0.4119201302528381,-0.0186322443187236,0.553013801574707,0.3477653861045837,-0.0324262008070945,0.5551373958587646,0.2899018824100494,-0.0434627048671245,0.5744577646255493,0.5448394417762756,-0.0222954340279102,0.6063849925994873,0.4790027141571045,-0.0358174890279769,0.6254010200500488,0.4308602213859558,-0.0450126379728317,0.640062689781189,0.3840683400630951,-0.0526644214987754
2023-08-01 15:55:36.872849,46,70,0.6922814249992371,0.5688208937644958,-0.1496887356042862,0.4180700182914734,0.00830078125,0.912109375,0.48193359375,0.4963970780372619,0.7912513017654419,1.5436138767199736e-07,0.4355317950248718,0.7349932789802551,-0.0085163926705718,0.4035943448543548,0.6315501928329468,-0.0035854487214237,0.3933976590633392,0.5515408515930176,-0.0013388314982876,0.3743666410446167,0.5045433640480042,0.0011565112508833,0.4624004662036896,0.5193281173706055,0.0214820839464664,0.4461754560470581,0.4321719706058502,0.0130510246381163,0.4358824789524078,0.3743462562561035,0.0002053581702057,0.4298608601093292,0.3225056827068329,-0.0112392995506525,0.5026072263717651,0.5077508091926575,0.0121579878032207,0.4980038702487945,0.4012050628662109,0.0065728318877518,0.4939582645893097,0.3301191329956054,-0.0049525313079357,0.4900440573692322,0.2700570225715637,-0.0147286932915449,0.53993821144104,0.5198993682861328,-0.0021948728244751,0.5492415428161621,0.4219738245010376,-0.0122483735904097,0.5531126260757446,0.3582080006599426,-0.0242375005036592,0.5541778206825256,0.3010222911834717,-0.0342137143015861,0.5756680369377136,0.5502972602844238,-0.0189633648842573,0.6058200001716614,0.4842683970928192,-0.0294074025005102,0.6231529712677002,0.4365449547767639,-0.0365995541214942,0.6367573142051697,0.3898390531539917,-0.0430411621928215
2023-08-01 15:55:36.935420,47,71,0.689420759677887,0.5722339153289795,-0.1487964689731598,0.4184577167034149,0.03955078125,0.9287109375,0.47265625,0.4941979944705963,0.790729820728302,1.724974936223589e-07,0.4350375533103943,0.7357656955718994,-0.0107661578804254,0.4038034677505493,0.6328602433204651,-0.0081739602610468,0.3955696225166321,0.5524659752845764,-0.0077799707651138,0.3751054406166076,0.5072007179260254,-0.0074029937386512,0.459129273891449,0.5193395018577576,0.0158623438328504,0.4433643519878387,0.4335036873817444,0.0059304051101207,0.4323308169841766,0.3763100802898407,-0.0071406196802854,0.424302339553833,0.324945867061615,-0.0187727343291044,0.5003407001495361,0.5085548758506775,0.0062410538084805,0.4963002204895019,0.402165412902832,-0.0026077104266732,0.4920652210712433,0.331393301486969,-0.0158988740295171,0.4872949719429016,0.2706938087940216,-0.026764353737235,0.5370094180107117,0.5220432281494141,-0.0082255266606807,0.5482765436172485,0.4249355792999267,-0.0224399920552968,0.552262544631958,0.3588475584983825,-0.0370635353028774,0.5522747039794922,0.2996283173561096,-0.0483415238559246,0.5712966918945312,0.5534650087356567,-0.0248576011508703,0.602239727973938,0.4861682653427124,-0.0390117466449737,0.6203712224960327,0.4366484582424164,-0.0481623336672782,0.6328211426734924,0.3887850642204284,-0.0557603575289249
2023-08-01 15:55:36.996702,48,72,0.6850024461746216,0.5785210132598877,-0.151220217347145,0.4161941707134247,-0.04150390625,0.888671875,0.45458984375,0.4943464398384094,0.7918855547904968,1.588457365642171e-07,0.4348823130130768,0.7345158457756042,-0.0086997048929333,0.4041087627410888,0.6323713064193726,-0.0048442427068948,0.3962317109107971,0.5520394444465637,-0.0036245919764041,0.3753434419631958,0.506813645362854,-0.0024784062989056,0.4587395191192627,0.5192627310752869,0.0201058648526668,0.4420771598815918,0.43387570977211,0.0111835962161421,0.4303385019302368,0.376538336277008,-0.0016611082246527,0.4217754304409027,0.3249128758907318,-0.0131847625598311,0.499948501586914,0.5079053640365601,0.010004405863583,0.4946748912334442,0.402715265750885,0.0022054240107536,0.4894393682479858,0.3319392502307892,-0.0111079756170511,0.4835537075996399,0.2710532248020172,-0.0221132729202508,0.5364660620689392,0.5205482840538025,-0.004919926635921,0.5468553304672241,0.4247496128082275,-0.017958827316761,0.5498698353767395,0.3591720461845398,-0.0325641110539436,0.5486926436424255,0.3007794916629791,-0.0438944511115551,0.5706865787506104,0.5504866242408752,-0.0219207182526588,0.6004591584205627,0.4825940132141113,-0.0349997766315937,0.6173174381256104,0.432532250881195,-0.0439216494560241,0.6283947229385376,0.3845596015453338,-0.0514076612889766
2023-08-01 15:55:37.063796,49,73,0.6817263960838318,0.5837483406066895,-0.1545638293027877,0.4130338132381439,-0.0224609375,0.876953125,0.38720703125,0.4967180490493774,0.7895169854164124,1.5893365912234006e-07,0.4379304349422455,0.7319803833961487,-0.0097215482965111,0.4055603742599487,0.6291753053665161,-0.0062970374710857,0.3962826132774353,0.5471230745315552,-0.0054686036892235,0.3773599863052368,0.5002079010009766,-0.0046892496757209,0.4605062901973724,0.5193712711334229,0.0191475059837102,0.4438111186027527,0.4334244728088379,0.0099811796098947,0.4320999979972839,0.3762222826480865,-0.002901405794546,0.4237078428268432,0.3244479894638061,-0.0144337397068738,0.5012162923812866,0.5076509118080139,0.0095656644552946,0.4969289004802704,0.4031752943992615,0.001323752454482,0.4918458461761474,0.3332401812076568,-0.012262100353837,0.4862452745437622,0.272464781999588,-0.023457271978259,0.5374830961227417,0.5192981958389282,-0.0049363700672984,0.5476711988449097,0.4235641360282898,-0.0181974116712808,0.5501070618629456,0.3585358560085296,-0.0329355150461196,0.548298716545105,0.300207108259201,-0.0442315079271793,0.571314811706543,0.5474157929420471,-0.0215994007885456,0.5992595553398132,0.4768153429031372,-0.0347480587661266,0.6149656176567078,0.425220251083374,-0.0438291653990745,0.6253712177276611,0.3758113384246826,-0.05138486251235
2023-08-01 15:55:37.120629,50,74,0.680686354637146,0.5872925519943237,-0.159019723534584,0.4080026745796203,0.0048828125,0.8369140625,0.375,0.5061094164848328,0.7679378390312195,8.102399107201563e-08,0.447643369436264,0.7052696943283081,-0.0098371598869562,0.417487621307373,0.6051607728004456,-0.0055635734461247,0.41118124127388,0.524109423160553,-0.0043599181808531,0.3969926536083221,0.4671922028064728,-0.0030596330761909,0.4720616936683655,0.5103731155395508,0.0263389982283115,0.4566328823566437,0.42613285779953,0.0183136388659477,0.4438401460647583,0.3724415898323059,0.0043879123404622,0.4343510866165161,0.3205183744430542,-0.0080560091882944,0.5101033449172974,0.4962315559387207,0.0174881238490343,0.5056442022323608,0.3961596190929413,0.0109495827928185,0.4985201358795166,0.3296810984611511,-0.0038400003686547,0.4915840923786163,0.2686963081359863,-0.0163112264126539,0.5440620183944702,0.5031766295433044,0.0032583873253315,0.5512393116950989,0.4068538546562195,-0.0069601661525666,0.5500805974006653,0.3454470932483673,-0.0195440277457237,0.5457862615585327,0.2884126901626587,-0.0297496039420366,0.5756778120994568,0.5260617136955261,-0.0135918436571955,0.587091863155365,0.4489813446998596,-0.0236790124326944,0.5903616547584534,0.3959884643554687,-0.0298435986042022,0.5900776386260986,0.3442926704883575,-0.0355248339474201
2023-08-01 15:55:37.178489,51,75,0.6817134618759155,0.5875522494316101,-0.1648373752832412,0.4035811722278595,0.03564453125,0.8359375,0.41357421875,0.5091254711151123,0.7553346157073975,5.2648555737278e-08,0.4501959979534149,0.6942111253738403,-0.0074245035648345,0.4194651544094085,0.5965508222579956,-0.0014829194406047,0.4129891097545624,0.5164476633071899,0.0011475731153041,0.398447036743164,0.4609270095825195,0.0036826732102781,0.4748324155807495,0.5057592988014221,0.028371712192893,0.4590007364749908,0.4225198626518249,0.0215980522334575,0.4462887346744537,0.369050920009613,0.0085498355329036,0.4371123909950256,0.31801238656044,-0.003287159372121,0.5124495625495911,0.4920296370983124,0.0190604403614997,0.5068989396095276,0.3936455249786377,0.0133180515840649,0.4990266859531402,0.3272932767868042,-0.0017726364312693,0.4911032021045685,0.2675623297691345,-0.014443514868617,0.5461892485618591,0.4981531202793121,0.0047632069326937,0.551863968372345,0.4036088585853576,-0.0050216508097946,0.5503589510917664,0.3418226242065429,-0.0186521410942077,0.5450132489204407,0.2852708101272583,-0.029473852366209,0.5776925086975098,0.5193588137626648,-0.0117408763617277,0.5876896977424622,0.4427709579467773,-0.0218779258430004,0.5894497036933899,0.3901104927062988,-0.0286387857049703,0.5872942209243774,0.3394927680492401,-0.0346081554889678
2023-08-01 15:55:37.240317,52,76,0.6845549941062927,0.5872154235839844,-0.1695792376995086,0.3972472846508026,0.07373046875,0.88623046875,0.4638671875,0.5121707320213318,0.7469736337661743,5.921566526012612e-08,0.453869879245758,0.6896533966064453,-0.0079966876655817,0.4220489263534546,0.5918510556221008,-0.0024636117741465,0.4138607382774353,0.5109109282493591,-4.646080560632981e-05,0.3970270752906799,0.4546622633934021,0.002226703101769,0.4762901663780212,0.5021225214004517,0.0257236193865537,0.460243672132492,0.4181191623210907,0.0186781790107488,0.4472328126430511,0.364301860332489,0.0060406327247619,0.43752121925354,0.3131753206253052,-0.0054104430601,0.5139932036399841,0.4873902797698974,0.0166434682905673,0.5071843862533569,0.3892607092857361,0.0105130746960639,0.4987814426422119,0.3226267695426941,-0.0041045313701033,0.4902314245700836,0.2631914615631103,-0.0162215568125247,0.5481525659561157,0.4925702810287475,0.0027218228206038,0.5520215630531311,0.3976661264896393,-0.0073567577637732,0.5496622920036316,0.3360351324081421,-0.0203828662633895,0.5435259342193604,0.2800762951374054,-0.0304831508547067,0.5799727439880371,0.5124952793121338,-0.0133779346942901,0.5887021422386169,0.4341962337493896,-0.0237064734101295,0.5902737379074097,0.3810251355171203,-0.0301316790282726,0.5880454778671265,0.3304802775382995,-0.0355561934411525
2023-08-01 15:55:37.299932,53,77,0.6878916621208191,0.5868620872497559,-0.1678431779146194,0.3927169740200043,-0.04931640625,0.88623046875,0.45751953125,0.5115164518356323,0.7451267242431641,5.594232277417178e-08,0.4532234966754913,0.6891027092933655,-0.0075151673518121,0.4215380549430847,0.5906329154968262,-0.0010034528095275,0.4136631786823272,0.5090236067771912,0.0024778516963124,0.3964963555335998,0.4531576633453369,0.0058042155578732,0.4759041965007782,0.5011744499206543,0.0266864635050296,0.4592235088348388,0.4167508780956268,0.0206614024937152,0.4466539025306701,0.3623924851417541,0.0090204076841473,0.4380188286304474,0.3112680315971374,-0.0018834585789591,0.513818085193634,0.4864441454410553,0.0177370551973581,0.5064935088157654,0.388432502746582,0.0121015710756182,0.4983718395233154,0.3217462599277496,-0.0022183258552104,0.4903508424758911,0.2623284161090851,-0.0141071993857622,0.548122227191925,0.4917736947536468,0.0040009012445807,0.5519435405731201,0.3983969986438751,-0.0061641284264624,0.5501657724380493,0.335448145866394,-0.0199553295969963,0.5444272756576538,0.2781507968902588,-0.0305968727916479,0.5803759694099426,0.5120859146118164,-0.011765319854021,0.5898441672325134,0.4355267882347107,-0.0226306486874818,0.5912913680076599,0.3829237520694732,-0.0299321934580802,0.5887061953544617,0.3329126238822937,-0.036032997071743
2023-08-01 15:55:37.363181,54,78,0.6924988627433777,0.5854111909866333,-0.1602958887815475,0.38992840051651,-0.0380859375,0.888671875,0.49658203125,0.5075648427009583,0.7472589015960693,2.352701358177001e-07,0.4433019459247589,0.7008388638496399,-0.0130981700494885,0.4075398445129394,0.6041678190231323,-0.0122715989127755,0.3969205319881439,0.522113025188446,-0.0124915624037384,0.3749990463256836,0.4723160564899444,-0.0125660756602883,0.4632126688957214,0.4914099276065826,0.0118451537564396,0.4480940103530884,0.4028377532958984,0.0023003253154456,0.4384433329105377,0.3458568453788757,-0.0109862629324197,0.4313762187957763,0.293531596660614,-0.0225642789155244,0.5076367259025574,0.4778176546096802,0.0044948020949959,0.503446638584137,0.3726548552513122,-0.00317636388354,0.4991931617259979,0.3010140657424927,-0.0165631454437971,0.4945211410522461,0.2399518191814422,-0.0276225470006465,0.54584801197052,0.4868151545524597,-0.0074204988777637,0.5525203347206116,0.3890067338943481,-0.0192169714719057,0.5525942444801331,0.3224018216133117,-0.0326804518699646,0.5497198700904846,0.2648817896842956,-0.0431869179010391,0.580943763256073,0.5116379261016846,-0.0216238759458065,0.6020315289497375,0.4364203214645386,-0.0340511798858642,0.6124995946884155,0.382999837398529,-0.0421369336545467,0.6187506914138794,0.3330162465572357,-0.0485780760645866
2023-08-01 15:55:37.424957,55,79,0.6933525204658508,0.5838589668273926,-0.1588843762874603,0.3913139402866363,0.0087890625,0.84130859375,0.58251953125,0.5087862014770508,0.7579471468925476,2.0661545363509506e-07,0.4438090622425079,0.7075151205062866,-0.0122752245515584,0.4060043692588806,0.6076552867889404,-0.0107709029689431,0.3942928314208984,0.5228882431983948,-0.0110088735818862,0.3722002506256103,0.4697555005550384,-0.0111449677497148,0.4635703563690185,0.4902141988277435,0.0158512983471155,0.4468856751918793,0.397972822189331,0.0068586715497076,0.4361941218376159,0.3391954302787781,-0.0069755963049829,0.4293709993362427,0.2839257717132568,-0.0194631796330213,0.5079922080039978,0.4779812097549438,0.0073210927657783,0.5050328373908997,0.3712804615497589,-2.5082039428525604e-05,0.5009368062019348,0.2985970377922058,-0.0151450419798493,0.496136724948883,0.2343502938747406,-0.02799585275352,0.5464556813240051,0.4883858263492584,-0.005964467767626,0.5552354454994202,0.3903664648532867,-0.0169168170541524,0.5554714202880859,0.3232991695404053,-0.0313725136220455,0.5519272685050964,0.2638917565345764,-0.0432473458349704,0.5823488831520081,0.5147804617881775,-0.0216908100992441,0.6041179299354553,0.4392590224742889,-0.0331642925739288,0.614148736000061,0.3849557936191559,-0.0414850041270256,0.6196049451828003,0.333475649356842,-0.0486805625259876
2023-08-01 15:55:37.488862,56,80,0.6923649311065674,0.5839085578918457,-0.1612525284290313,0.3920193910598755,0.0283203125,0.87353515625,0.55078125,0.4997309744358063,0.7686809301376343,1.920898142770966e-07,0.4320224225521087,0.7136966586112976,-0.0106247225776314,0.396040141582489,0.6114248037338257,-0.0070438748225569,0.388092577457428,0.5256314277648926,-0.0057938215322792,0.3676992058753967,0.4712152183055877,-0.0046244449913501,0.4579113721847534,0.4935135245323181,0.022541781887412,0.4431719779968261,0.3990245461463928,0.0151308272033929,0.4337891042232513,0.3402332961559295,0.001771543524228,0.4279449582099914,0.2843211889266968,-0.0106142656877636,0.5019100308418274,0.4821499586105346,0.012858017347753,0.4996776878833771,0.374269962310791,0.0066014574840664,0.4964267015457153,0.3019731640815735,-0.0089473202824592,0.4927965104579925,0.2371334135532379,-0.0221993830054998,0.53924161195755,0.4929412007331848,-0.0019180094823241,0.5477176308631897,0.3943204283714294,-0.0125630283728241,0.5495258569717407,0.3275131285190582,-0.0272025503218173,0.5485531091690063,0.2670681476593017,-0.0393152944743633,0.5738585591316223,0.5196244716644287,-0.0191349759697914,0.5897154211997986,0.4426310956478119,-0.0304761733859777,0.5978595018386841,0.3893710374832153,-0.0383520983159542,0.603592574596405,0.3377457857131958,-0.0454215891659259
2023-08-01 15:55:37.549173,57,81,0.6950351595878601,0.5806284546852112,-0.1632576137781143,0.3913356363773346,-0.02783203125,0.8935546875,0.4443359375,0.4980838298797607,0.7783530950546265,1.6833749327815897e-07,0.4326956570148468,0.7200490236282349,-0.0104532921686768,0.3958665430545807,0.6151143908500671,-0.006358100567013,0.3839821219444275,0.5294115543365479,-0.0049314829520881,0.3625699877738952,0.4751693606376648,-0.0035395855084061,0.4572321474552154,0.4984257221221924,0.02468335442245,0.4432354569435119,0.4040307104587555,0.0176994744688272,0.4337441921234131,0.3445243835449219,0.0042009111493825,0.4278531670570373,0.2884072661399841,-0.0083256298676133,0.5002313256263733,0.4856873154640198,0.0150667047128081,0.4983982145786285,0.3772726058959961,0.0097540328279137,0.4950523376464844,0.3043603301048279,-0.005224909633398,0.4910321533679962,0.2398713231086731,-0.0181881468743085,0.5373367667198181,0.4957782030105591,0.0001729256910039,0.5465455055236816,0.3964599370956421,-0.0087065510451793,0.5479844808578491,0.3294677138328552,-0.0227663815021514,0.5453242063522339,0.2686407566070556,-0.0348036810755729,0.5712285041809082,0.5228239297866821,-0.0173816010355949,0.5876186490058899,0.4451418220996856,-0.027229556813836,0.5947357416152954,0.3909003138542175,-0.0346725359559059,0.5981834530830383,0.3387004137039184,-0.0416727624833583
2023-08-01 15:55:37.612309,58,82,0.6993155479431152,0.5747263431549072,-0.1717623770236969,0.3887737393379211,-0.0595703125,0.89990234375,0.55029296875,0.4994170069694519,0.7812860012054443,1.7716267564082957e-07,0.4328048527240753,0.7241042852401733,-0.0128176920115947,0.395081877708435,0.6190906763076782,-0.0097625628113746,0.3825173377990722,0.5323457717895508,-0.0090463571250438,0.3614912927150726,0.4772171080112457,-0.0082946950569748,0.4565750658512115,0.501036524772644,0.0225034207105636,0.4431007206439972,0.4066537916660309,0.0147258006036281,0.433685690164566,0.3471415936946869,0.0008404192049056,0.4282151758670807,0.291003555059433,-0.0119179729372262,0.4990971386432647,0.4875563383102417,0.0137282293289899,0.4969455599784851,0.3785141408443451,0.0079521825537085,0.4937838017940521,0.3053774237632751,-0.0067969541996717,0.4907676577568054,0.2405893802642822,-0.0195411369204521,0.5358223915100098,0.4975210428237915,-0.0006198625778779,0.5446204543113708,0.3974820971488952,-0.0100521054118871,0.5462568402290344,0.3311152458190918,-0.0238435827195644,0.5443776845932007,0.2697483897209167,-0.0356150865554809,0.5693490505218506,0.5248408913612366,-0.0178780704736709,0.5840265154838562,0.4468462765216827,-0.0284324362874031,0.5906654000282288,0.3926319479942322,-0.0359942093491554,0.5944607853889465,0.3396649360656738,-0.0429760925471782
2023-08-01 15:55:37.674013,59,83,0.6996501088142395,0.5751156806945801,-0.1756477653980255,0.3858491480350494,0.00439453125,0.8720703125,0.52734375,0.4992644190788269,0.7842608094215393,1.7808065422286745e-07,0.4327860176563263,0.7254107594490051,-0.010947068221867,0.3943174481391907,0.621858537197113,-0.0075504719279706,0.3810503184795379,0.5378404259681702,-0.0069786752574145,0.3601319193840027,0.4839318394660949,-0.0066061713732779,0.4563732445240021,0.5037204623222351,0.0240879990160465,0.4427826702594757,0.4096931219100952,0.0163421295583248,0.4340177774429321,0.3509302735328674,0.0022387104108929,0.4296666979789734,0.2951093316078186,-0.0107850851491093,0.4986523687839508,0.4901863634586334,0.0141607159748673,0.4962272047996521,0.3808652758598327,0.008234997279942,0.4933890700340271,0.3078441619873047,-0.0073800720274448,0.4910518825054168,0.2430014908313751,-0.0209210161119699,0.5355425477027893,0.5005388259887695,-0.0011444083647802,0.5442954897880554,0.4009767472743988,-0.0106365634128451,0.5453749299049377,0.3342920839786529,-0.0252462700009346,0.5428919792175293,0.272273451089859,-0.0377893149852752,0.5696741342544556,0.5288904905319214,-0.0191339440643787,0.5847000479698181,0.4511530995368957,-0.0297242235392332,0.5907180905342102,0.3967238664627075,-0.0376008786261081,0.5935019254684448,0.3431018888950348,-0.0449798665940761
2023-08-01 15:55:37.734401,60,84,0.697433352470398,0.5773898959159851,-0.1746557801961898,0.38691446185112,-0.00537109375,0.87744140625,0.50048828125,0.4986798465251922,0.797027051448822,1.917970990916729e-07,0.4319118857383728,0.7417590618133545,-0.0129754869267344,0.3924009501934051,0.6358783841133118,-0.0115932123735547,0.376340389251709,0.5510490536689758,-0.0121954204514622,0.3505805134773254,0.4984955191612243,-0.0130018694326281,0.4507288336753845,0.5116121172904968,0.0172767136245965,0.4363870024681091,0.4162007570266723,0.0080795548856258,0.427899420261383,0.3565592765808105,-0.0063598011620342,0.4234199821949005,0.3003149628639221,-0.0195997990667819,0.4944332242012024,0.4991381168365478,0.0077778534032404,0.4930048882961273,0.3886614143848419,0.0008964165463112,0.491755723953247,0.3158159852027893,-0.014016818255186,0.4902539849281311,0.2513949871063232,-0.0269132535904645,0.532574474811554,0.5113595128059387,-0.0069102249108254,0.5402495861053467,0.4111212193965912,-0.0171182919293642,0.5425724983215332,0.3434842824935913,-0.0312503464519977,0.5414688587188721,0.280313640832901,-0.0435388498008251,0.5674665570259094,0.5419418215751648,-0.0243308320641517,0.5822979807853699,0.4652969241142273,-0.0354581251740455,0.5899090766906738,0.4117131531238556,-0.0431766137480735,0.5948046445846558,0.3589359223842621,-0.0504761710762977
2023-08-01 15:55:37.800478,61,85,0.6943319439888,0.5795299410820007,-0.1770242005586624,0.3882147669792175,0.0986328125,0.90087890625,0.4375,0.5002870559692383,0.7953858375549316,2.3521235448242805e-07,0.4334540069103241,0.7375198006629944,-0.0129715269431471,0.3909681439399719,0.6318559050559998,-0.0118730142712593,0.373214840888977,0.5479592680931091,-0.0126606030389666,0.3478061556816101,0.496172159910202,-0.0137656452134251,0.4503767490386963,0.5083631873130798,0.0157236233353614,0.4366775155067444,0.4132083356380462,0.0061479867435991,0.4276705086231231,0.3535767793655395,-0.0082985581830143,0.4231204092502594,0.297546774148941,-0.0214392840862274,0.4948359727859497,0.4957183301448822,0.0063282158225774,0.4942590594291687,0.3841111063957214,-0.000893541262485,0.4928700923919678,0.3104392886161804,-0.0157672688364982,0.4915103912353515,0.2461398541927337,-0.0288559887558221,0.5338184833526611,0.5084247589111328,-0.0082105351611971,0.5445688366889954,0.4083201289176941,-0.0188835524022579,0.5458133816719055,0.3401018679141998,-0.0335591994225978,0.5431358814239502,0.2771986424922943,-0.0463700033724308,0.5694708228111267,0.5389972925186157,-0.025359870865941,0.5889783501625061,0.4613727927207947,-0.0370913073420524,0.597719132900238,0.4072141647338867,-0.0454304851591587,0.6024989485740662,0.3539803326129913,-0.0532189905643463
2023-08-01 15:55:37.861168,62,86,0.6923515796661377,0.5841881036758423,-0.1755847632884979,0.3854134380817413,0.0478515625,0.8564453125,0.44140625,0.5002384781837463,0.7926863431930542,2.531787117732165e-07,0.4339303076267242,0.732244610786438,-0.0136372856795787,0.3921313881874084,0.6284525394439697,-0.0129414070397615,0.3759575188159942,0.5443252921104431,-0.0140310022979974,0.3533543050289154,0.4888044595718384,-0.0152189508080482,0.4516997933387756,0.5042989253997803,0.0166490171104669,0.4396018087863922,0.4098001718521118,0.0072595356032252,0.4301629066467285,0.3505327999591827,-0.0074307797476649,0.4242191612720489,0.2940853238105774,-0.020786490291357,0.4961747825145721,0.492596834897995,0.0076657976023852,0.4984693825244903,0.3823641240596771,0.0009968902450054,0.4976519048213959,0.3092126250267029,-0.0136715369299054,0.4960852861404419,0.2450107634067535,-0.0267313998192548,0.5346047282218933,0.5060359835624695,-0.0066617275588214,0.5467894673347473,0.4076541066169739,-0.0170201696455478,0.5484380722045898,0.340770959854126,-0.0311605539172887,0.5458388924598694,0.278722882270813,-0.0435723736882209,0.5696619153022766,0.5370326042175293,-0.0237310715019702,0.5905799865722656,0.4606097340583801,-0.0351076498627662,0.5998216271400452,0.4076601266860962,-0.0428726002573967,0.6050693988800049,0.3552450537681579,-0.0502166748046875
2023-08-01 15:55:37.926016,63,87,0.6922610998153687,0.5879023671150208,-0.1686435788869857,0.3830204606056213,-0.03857421875,0.83740234375,0.41064453125,0.503767728805542,0.7748511433601379,2.939566456916509e-07,0.43845996260643,0.7192379236221313,-0.0149869183078408,0.39580899477005,0.6172382831573486,-0.0149045987054705,0.3787488341331482,0.5304878950119019,-0.0161391459405422,0.353074163198471,0.4762623310089111,-0.0170372389256954,0.4525306522846222,0.4912455379962921,0.0158090386539697,0.4395956993103027,0.3987990319728851,0.0081475134938955,0.4305750131607055,0.3419872522354126,-0.0050194482319056,0.4251387119293213,0.2877389788627624,-0.0172300599515438,0.4967556297779083,0.4795933663845062,0.008586436510086,0.4995140731334686,0.3692821562290191,0.0046558850444853,0.4991154372692108,0.2982215285301208,-0.0073973815888166,0.4981726408004761,0.2372111678123474,-0.0188901927322149,0.5351503491401672,0.4927658140659332,-0.0040285210125148,0.5477074384689331,0.3963572680950165,-0.0117557281628251,0.5496100783348083,0.3313309550285339,-0.0242342967540025,0.5475989580154419,0.272270917892456,-0.0359594114124774,0.5703831315040588,0.5223008990287781,-0.0196270942687988,0.5940719842910767,0.4509452283382416,-0.0286343749612569,0.6053829789161682,0.4014302492141723,-0.0353538766503334,0.6127443909645081,0.353021502494812,-0.0422410517930984
2023-08-01 15:55:37.984208,64,88,0.6923256516456604,0.5950966477394104,-0.1633322983980178,0.3739891052246094,-0.01806640625,0.8544921875,0.525390625,0.5077829957008362,0.7673279643058777,2.930223104158358e-07,0.4427950084209442,0.7124501466751099,-0.0183992888778448,0.3988769948482513,0.6150134205818176,-0.0210246965289115,0.380863755941391,0.5305848717689514,-0.024305896833539,0.3577139377593994,0.4715425372123718,-0.026791363954544,0.4574038982391357,0.4871591031551361,0.0116559937596321,0.4424444735050201,0.3962399363517761,0.0011789399432018,0.4328355491161346,0.3397437334060669,-0.0136875761672854,0.4274977147579193,0.2867574691772461,-0.0265941880643367,0.5018977522850037,0.4752130806446075,0.0055384719744324,0.5041655898094177,0.3667117357254028,-0.000696160190273,0.5038819909095764,0.296963483095169,-0.0138891339302062,0.5032488107681274,0.2361129224300384,-0.025674620643258,0.5406890511512756,0.4877430200576782,-0.0062219682149589,0.5516324043273926,0.3918079137802124,-0.016109274700284,0.5536898970603943,0.3286601305007934,-0.0282938014715909,0.5522370934486389,0.2703324556350708,-0.0391425155103206,0.5761029720306396,0.5177937746047974,-0.0211415830999612,0.5986426472663879,0.4484403133392334,-0.0310787744820117,0.6100834608078003,0.4008527994155884,-0.0369935594499111,0.6179476976394653,0.3545604348182678,-0.0427890643477439
2023-08-01 15:55:38.049559,65,89,0.6903188228607178,0.6044477224349976,-0.1569001525640487,0.365356296300888,-0.07958984375,0.9130859375,0.50537109375,0.5061711668968201,0.7636657953262329,2.830202845416352e-07,0.4422399997711181,0.7084956169128418,-0.0170798543840646,0.3998901844024658,0.6125433444976807,-0.0190961249172687,0.3810996115207672,0.5301440954208374,-0.0219989698380231,0.358341783285141,0.473553329706192,-0.0241277366876602,0.4571101069450378,0.4853681325912475,0.0123950215056538,0.4413443803787231,0.3941284418106079,0.002203653100878,0.4310009479522705,0.3371697068214416,-0.0121575715020298,0.4252279996871948,0.284403383731842,-0.024555629119277,0.5014639496803284,0.4735499024391174,0.0060069444589316,0.5029563903808594,0.365515649318695,0.0002211164537584,0.5030746459960938,0.2958000302314758,-0.0119895674288272,0.5031888484954834,0.2354851067066192,-0.0228421576321125,0.5404456853866577,0.4861663579940796,-0.0059174606576561,0.5517879128456116,0.3906739056110382,-0.0151736065745353,0.5547700524330139,0.3271896243095398,-0.0267795752733945,0.5541114211082458,0.2691490352153778,-0.0370894595980644,0.5762296319007874,0.5168119668960571,-0.0209143329411745,0.5990688800811768,0.4480190575122833,-0.0302720442414283,0.6103092432022095,0.4007349908351898,-0.0358135774731636,0.6177077293395996,0.3550814688205719,-0.0412263236939907
2023-08-01 15:55:38.119164,66,90,0.6850405335426331,0.6157520413398743,-0.1491191536188125,0.3596280217170715,-0.15283203125,0.90478515625,0.47314453125,0.5130889415740967,0.759505033493042,2.783382342386176e-07,0.4473656415939331,0.7038547992706299,-0.0151508897542953,0.4045869708061218,0.6062647700309753,-0.0155229577794671,0.3861294090747833,0.5222994089126587,-0.017248511314392,0.3628571629524231,0.4654949903488159,-0.018378721550107,0.4634990692138672,0.4834653735160827,0.0157144963741302,0.4485370516777038,0.3913197517395019,0.0071343681775033,0.4392374753952026,0.3338651061058044,-0.0062748421914875,0.4344276785850525,0.2811118364334106,-0.0181316900998353,0.5075095295906067,0.470972865819931,0.0086418949067592,0.5100460648536682,0.3619665205478668,0.004202683456242,0.5097578763961792,0.2915622591972351,-0.0079746432602405,0.5090646147727966,0.2318126559257507,-0.0189796369522809,0.5459571480751038,0.4825470745563507,-0.0038060385268181,0.5576632022857666,0.3866741359233856,-0.011921914294362,0.5598523020744324,0.3232930898666382,-0.0237415581941604,0.5585036277770996,0.2661508321762085,-0.0344895981252193,0.5809030532836914,0.5117369294166565,-0.0191702730953693,0.6041876673698425,0.4433456361293793,-0.0278984829783439,0.6156001687049866,0.3963949084281921,-0.0335532166063785,0.6235606074333191,0.3513116240501404,-0.0392024107277393
2023-08-01 15:55:38.180304,67,91,0.6762558817863464,0.6269254088401794,-0.143321692943573,0.3593068420886993,0.0244140625,0.97509765625,0.39501953125,0.5319567322731018,0.7573700547218323,2.604936639727385e-07,0.4660892486572265,0.6975126266479492,-0.0170215610414743,0.4278963804244995,0.5964667797088623,-0.0170464534312486,0.4160700440406799,0.5076309442520142,-0.0182308591902256,0.3989920616149902,0.4431637525558471,-0.0184905659407377,0.4903337061405182,0.4840058386325836,0.0153309106826782,0.4795580804347992,0.3905264735221863,0.0047937771305441,0.4728552103042602,0.3327701091766357,-0.009535701945424,0.4692367911338806,0.2801706790924072,-0.0215017367154359,0.5352675318717957,0.4751815795898437,0.0093579599633812,0.5395368933677673,0.3658040761947632,0.0033443623688071,0.5416725277900696,0.2975857257843017,-0.0094285327941179,0.5433218479156494,0.2393050491809845,-0.0202127117663621,0.5752375721931458,0.4891535937786102,-0.0022256826050579,0.5876741409301758,0.3918443322181701,-0.0124259032309055,0.592304527759552,0.3299230337142944,-0.0220278725028038,0.5940521955490112,0.2747553884983063,-0.0301586594432592,0.6137645840644836,0.5211454033851624,-0.0169555079191923,0.6382055878639221,0.4525477290153503,-0.0265687573701143,0.6525181531906128,0.4056678414344787,-0.0297240410000085,0.6638985872268677,0.3614586293697357,-0.032710924744606
2023-08-01 15:55:38.240264,68,92,0.663944661617279,0.6426317691802979,-0.1392384767532348,0.3561100661754608,-0.01953125,0.9658203125,0.4404296875,0.5360621809959412,0.7556179761886597,2.605025315460807e-07,0.4722200930118561,0.6964123249053955,-0.0154969440773129,0.4354124069213867,0.589127779006958,-0.0125171588733792,0.4245608448982239,0.5020424723625183,-0.0102103743702173,0.4042538404464721,0.4453318417072296,-0.0071819005534052,0.5001449584960938,0.4829711318016052,0.0159554909914731,0.4889189898967743,0.3889817893505096,0.0082825645804405,0.4822452068328857,0.3307481408119201,-0.0038529557641595,0.4793768525123596,0.2783424854278564,-0.0144053390249609,0.5446032285690308,0.4743275940418243,0.010720700956881,0.5500479936599731,0.3658949732780456,0.007388184312731,0.5513680577278137,0.2964432835578918,-0.0040358784608542,0.5522249341011047,0.2371225655078888,-0.0140800103545188,0.5837564468383789,0.4875789582729339,0.0002125708415405,0.5977250337600708,0.3913895487785339,-0.0074769128113985,0.6021254658699036,0.3297584354877472,-0.0182791613042354,0.6036291718482971,0.2748219966888428,-0.0276918392628431,0.6192200183868408,0.5175923705101013,-0.0131721105426549,0.6453563570976257,0.4502263963222503,-0.0214179847389459,0.6607364416122437,0.4043921828269958,-0.0262029971927404,0.673616349697113,0.3610793054103851,-0.0307871382683515
2023-08-01 15:55:38.294846,69,93,0.656602144241333,0.6515905261039734,-0.1286421865224838,0.357427716255188,-0.0712890625,1.10888671875,0.2529296875,0.5396984219551086,0.7491495609283447,2.510689967039071e-07,0.4775660932064056,0.6895592212677002,-0.0145216202363371,0.4412896335124969,0.5819723606109619,-0.0111529352143406,0.4301431775093078,0.4940827488899231,-0.008636855520308,0.4085223376750946,0.4379726946353912,-0.0050958544015884,0.5046408176422119,0.4769259095191955,0.0187195427715778,0.4936230182647705,0.384529709815979,0.011379312723875,0.4869888424873352,0.3286889791488647,-0.0007451333221979,0.4839444458484649,0.2774966955184936,-0.0111120687797665,0.549474835395813,0.4695640504360199,0.0136846043169498,0.555185079574585,0.3625840544700622,0.0115153696388006,0.5577386021614075,0.2945550680160522,0.0014835192123427,0.5600181818008423,0.2362047433853149,-0.0075456011109054,0.5887293219566345,0.4846392869949341,0.0031789883505553,0.6025775671005249,0.3901323080062866,-0.0029049203731119,0.6068543791770935,0.3301477432250976,-0.0118305617943406,0.6080162525177002,0.2763554453849792,-0.0199803672730922,0.6249634027481079,0.5159869194030762,-0.0103069096803665,0.6507291197776794,0.4504759013652801,-0.0166681110858917,0.6646779775619507,0.4052595496177673,-0.0200880505144596,0.6757376790046692,0.3614357113838196,-0.0237671677023172
2023-08-01 15:55:38.357950,70,94,0.6427375078201294,0.6660131216049194,-0.1119799092411995,0.3616289496421814,-0.06298828125,1.0615234375,0.25927734375,0.5518287420272827,0.712678849697113,3.3949405064959137e-07,0.487768679857254,0.6470954418182373,-0.0171716194599866,0.4542951583862304,0.5436741709709167,-0.0149460528045892,0.445061594247818,0.4573644995689392,-0.0134284468367695,0.429702877998352,0.3992035686969757,-0.0105788484215736,0.5235857367515564,0.4510256946086883,0.0201601553708314,0.5146199464797974,0.3611724972724914,0.0140530625358223,0.5098944306373596,0.3067691624164581,0.0024020988494157,0.5091544985771179,0.2563486695289612,-0.0072296932339668,0.5671173930168152,0.4455984532833099,0.0184254851192235,0.5775988698005676,0.3437254428863525,0.0211057178676128,0.5826333165168762,0.2805236577987671,0.0140416594222188,0.5872839689254761,0.2276687920093536,0.006868761498481,0.6057763695716858,0.4625989496707916,0.0107631552964448,0.6226236820220947,0.3755227923393249,0.0103482753038406,0.6279067397117615,0.3207656741142273,0.0050564655102789,0.6313700079917908,0.2735386490821838,-0.0010938427876681,0.6410711407661438,0.4967221915721893,-0.0005345813697203,0.6689723134040833,0.4441781640052795,-0.0013141732197254,0.6845290660858154,0.4082742631435394,-0.0011100962292402,0.698506772518158,0.3764715492725372,-0.0021548075601458
2023-08-01 15:55:38.418770,71,95,0.6233935356140137,0.6838740110397339,-0.0995830819010734,0.3657594621181488,-0.1328125,0.77880859375,0.189453125,0.5506547689437866,0.6941680908203125,3.351221380398784e-07,0.4914755523204803,0.6217906475067139,-0.0139525784179568,0.4614787995815277,0.5247479677200317,-0.0109800351783633,0.4554762244224548,0.4420142471790313,-0.0096897557377815,0.4454079866409302,0.381251186132431,-0.0072917710058391,0.5326701402664185,0.4394291341304779,0.0248917583376169,0.5254086852073669,0.3513089418411255,0.0182432476431131,0.5207122564315796,0.2968685626983642,0.0058841882273554,0.520196795463562,0.2472355663776397,-0.0039818636141717,0.5757789015769958,0.4359462559223175,0.0215293206274509,0.5872126817703247,0.3374990224838257,0.0222737323492765,0.5930324792861938,0.2735276818275451,0.0128779150545597,0.5983871817588806,0.2198654115200042,0.0044636889360845,0.6139606833457947,0.4525603652000427,0.0123507175594568,0.6333835124969482,0.3694009184837341,0.0101622967049479,0.6398261189460754,0.3141503930091858,0.0026729409582912,0.6435455679893494,0.2672244310379028,-0.0044294646941125,0.6476806402206421,0.4857741594314575,-3.836931864498183e-05,0.6782505512237549,0.4370134472846985,-0.0016323528252542,0.6944559216499329,0.4018369317054748,-0.0024497038684785,0.7090063095092773,0.3712908625602722,-0.0039402456022799
2023-08-01 15:55:38.481206,72,96,0.6240463852882385,0.6833598613739014,-0.1033270061016082,0.3645667135715484,-0.1064453125,0.6318359375,0.26513671875,0.5491929054260254,0.6697407364845276,3.181000352014962e-07,0.4923158586025238,0.5987457633018494,-0.0134289767593145,0.4654698073863983,0.5002442598342896,-0.0097054475918412,0.4601533710956573,0.4186119735240936,-0.0072933747433125,0.4507918059825897,0.3610102236270904,-0.0039940392598509,0.5361653566360474,0.4260114431381225,0.0218031555414199,0.5313989520072937,0.3382392525672912,0.0147853111848235,0.5278502702713013,0.2851465344429016,0.0028092621359974,0.5285818576812744,0.2369559705257415,-0.0063301944173872,0.5796281099319458,0.4234435856342315,0.0194206163287162,0.5942153930664062,0.325364738702774,0.021131832152605,0.6007486581802368,0.2629281878471374,0.0132329128682613,0.606124758720398,0.2096768319606781,0.0060998764820396,0.618004560470581,0.4404670596122741,0.0116654252633452,0.6389687061309814,0.3591533601284027,0.0114532373845577,0.6471880674362183,0.3039072751998901,0.0059194746427237,0.652397096157074,0.2562068104743957,6.035521437297575e-05,0.6512220501899719,0.4736163020133972,0.0007211483898572,0.6818671822547913,0.4278294146060943,0.0011937425006181,0.6988400816917419,0.3933076858520508,0.0019726091995835,0.7135939598083496,0.3632543087005615,0.0016462560743093
2023-08-01 15:55:38.542988,73,97,0.633893609046936,0.6764433979988098,-0.0921856686472892,0.3634624779224396,-0.17822265625,0.82861328125,0.201171875,0.5499540567398071,0.6434661746025085,3.2017823059504735e-07,0.4941820502281189,0.5705124735832214,-0.01283142529428,0.4677148163318634,0.4758365750312805,-0.0097498465329408,0.4641262292861938,0.3954232037067413,-0.0081542674452066,0.4587091207504272,0.3366817235946655,-0.0058538559824228,0.540116012096405,0.4101001918315887,0.0203321110457181,0.5353588461875916,0.3232821226119995,0.0129760866984725,0.5316753387451172,0.2690542638301849,0.0010658488608896,0.5321769118309021,0.2206097692251205,-0.008183442056179,0.582942545413971,0.4070221185684204,0.0173365753144025,0.5970386862754822,0.3097215890884399,0.0178284887224435,0.6037915945053101,0.2459150999784469,0.008800777606666,0.6099985837936401,0.1923516392707824,0.0007355324923992,0.6209884881973267,0.4234683811664581,0.0091855507344007,0.6398802399635315,0.3429664373397827,0.0075759282335639,0.6474664807319641,0.2862814664840698,-0.000340980477631,0.6527261734008789,0.2377595007419586,-0.0079581700265407,0.6546578407287598,0.4565443396568298,-0.0018700057407841,0.6858261227607727,0.4122006297111511,-0.0028970499988645,0.7036226987838745,0.3787809014320373,-0.0039306883700191,0.7185255885124207,0.3504972457885742,-0.0057223532348871
2023-08-01 15:55:38.609019,74,98,0.6424121260643005,0.6676007509231567,-0.0856419429183006,0.3664442300796509,-0.17822265625,1.01513671875,0.2138671875,0.5499042272567749,0.6211454272270203,3.63748995368951e-07,0.4942392110824585,0.5489912629127502,-0.0142200663685798,0.4707558155059814,0.4508402049541473,-0.0111608458682894,0.4697970449924469,0.3697159886360168,-0.0094591667875647,0.4660298526287079,0.3082397580146789,-0.0069456580094993,0.542410135269165,0.3869924545288086,0.0194277148693799,0.5375488996505737,0.2988089025020599,0.0120457923039793,0.5353168249130249,0.2407862395048141,0.0003927481593564,0.5372228026390076,0.190602570772171,-0.0090442150831222,0.5861507654190063,0.3845958113670349,0.016064653173089,0.6000897288322449,0.2855085730552673,0.0150399105623364,0.6080411672592163,0.2188260704278946,0.0051009347662329,0.6154174208641052,0.164571464061737,-0.0032612371724098,0.6245396733283997,0.4029451906681061,0.0074022789485752,0.6452367305755615,0.3192225694656372,0.002674184506759,0.6544257998466492,0.2616791725158691,-0.0068522840738296,0.6610782742500305,0.2133875638246536,-0.0149430511519312,0.6580978035926819,0.4384671747684479,-0.00406184932217,0.6911959648132324,0.3944677412509918,-0.0087134800851345,0.7097722291946411,0.3607730865478515,-0.011689375154674,0.7247755527496338,0.3312247693538666,-0.0144305797293782
2023-08-01 15:55:38.666048,75,99,0.6536077260971069,0.6534696221351624,-0.0893915444612503,0.3711921870708465,-0.103515625,1.16259765625,0.31689453125,0.5479978322982788,0.6444440484046936,2.747828204974212e-07,0.4925171732902527,0.5691980123519897,-0.014053932391107,0.4694015085697174,0.469008058309555,-0.0104556633159518,0.470718502998352,0.3855718970298767,-0.0084921168163418,0.4699457585811615,0.3207188844680786,-0.0055623170919716,0.5453484058380127,0.4052827656269073,0.0225097518414258,0.5406903028488159,0.3142944872379303,0.0155680030584335,0.5401980876922607,0.2557893395423889,0.0036526233889162,0.5435874462127686,0.2064265608787536,-0.0060568838380277,0.5895366072654724,0.404040664434433,0.0183514095842838,0.602668285369873,0.3029170334339142,0.0166605357080698,0.6108829379081726,0.233977660536766,0.0048633744008839,0.6180997490882874,0.1796479523181915,-0.004705844912678,0.6279114484786987,0.4226349592208862,0.0088507672771811,0.648912787437439,0.337365448474884,0.0035738779697567,0.6580981016159058,0.278842031955719,-0.0068474779836833,0.663681149482727,0.2314009815454483,-0.0153964236378669,0.661888599395752,0.4588718116283417,-0.00341686909087,0.6953051090240479,0.4129038453102112,-0.007334139663726,0.7126666903495789,0.3779003024101257,-0.0095579121261835,0.7258070707321167,0.3488824367523193,-0.0119394026696681
2023-08-01 15:55:38.736199,76,100,0.6602672934532166,0.6426042318344116,-0.0971491858363151,0.3763893842697143,-0.02490234375,1.05810546875,0.39501953125,0.5413002967834473,0.6735178828239441,2.187633327821459e-07,0.4869660139083862,0.6017807722091675,-0.0116775687783956,0.4660808444023132,0.4977163672447204,-0.0067108869552612,0.4710874557495117,0.4122437834739685,-0.0034833720419555,0.4732316136360168,0.348006010055542,0.0005947244935669,0.5443406105041504,0.4287099838256836,0.0228095185011625,0.54234379529953,0.3377078473567962,0.0171285346150398,0.5411782264709473,0.2787500321865082,0.0054696421138942,0.5429343581199646,0.2298960089683532,-0.0043103760108351,0.5886192321777344,0.4284118413925171,0.0177696589380502,0.6045820116996765,0.3259448409080505,0.0179334245622158,0.6135782599449158,0.2564220428466797,0.0067846202291548,0.6204383969306946,0.2025175243616104,-0.0027913937810808,0.6265611052513123,0.44807168841362,0.0078566465526819,0.6503329277038574,0.3608493208885193,0.0046369829215109,0.6613065004348755,0.301551878452301,-0.0050950124859809,0.6678343415260315,0.253726065158844,-0.0139154437929391,0.6593483686447144,0.4855004549026489,-0.0046924129128456,0.6940823793411255,0.4378737211227417,-0.0073617822490632,0.7132619619369507,0.4022952318191528,-0.0089533366262912,0.728335976600647,0.3729234933853149,-0.0112086404114961
2023-08-01 15:55:38.792385,77,101,0.6647815108299255,0.6301509141921997,-0.0992013663053512,0.3887601196765899,-0.0595703125,0.97314453125,0.26953125,0.5112240314483643,0.7301545739173889,1.6799543800516406e-07,0.452795922756195,0.6628736853599548,-0.0152641609311103,0.4284226894378662,0.5651664137840271,-0.014107528142631,0.4327036738395691,0.4832500219345093,-0.0147300735116004,0.4308493137359619,0.4202756285667419,-0.0146362548694014,0.5073551535606384,0.4820017218589782,0.0180088002234697,0.5054410696029663,0.3927882015705108,0.0095810582861304,0.5046945214271545,0.3349255323410034,-0.0037928025703877,0.5054082870483398,0.2845619916915893,-0.0151676507666707,0.5513401627540588,0.479007363319397,0.0129688838496804,0.5684341788291931,0.3748838305473327,0.0096858935430645,0.5760524272918701,0.3081569075584411,-0.0028094223234802,0.5817702412605286,0.253534197807312,-0.0136948330327868,0.5888495445251465,0.4972938895225525,0.0026453649625182,0.6103264093399048,0.4032483398914337,-0.0046669277362525,0.6205279231071472,0.3409321010112762,-0.0165759809315204,0.6281032562255859,0.2902215421199798,-0.0267836675047874,0.6221640110015869,0.5335630774497986,-0.0107428645715117,0.6578266024589539,0.4811030626296997,-0.0175756178796291,0.6780623197555542,0.442516416311264,-0.0228233840316534,0.6947193741798401,0.4096433520317077,-0.0278228744864463
2023-08-01 15:55:38.850967,78,102,0.6646838784217834,0.6244433522224426,-0.1102544739842414,0.3951071798801422,0.095703125,0.94580078125,0.28076171875,0.5000935792922974,0.7421426177024841,2.3070904831001826e-07,0.4442889392375946,0.6753275394439697,-0.0144424112513661,0.4197646379470825,0.5738954544067383,-0.0115625439211726,0.4232428669929504,0.4899745583534241,-0.0102556748315691,0.4229985773563385,0.425349473953247,-0.0078723561018705,0.499060720205307,0.4889545142650604,0.0204496309161186,0.4956263303756714,0.4001878499984741,0.0124401226639747,0.4928480684757232,0.3419169187545776,-0.0003093262203037,0.4920866787433624,0.2915539443492889,-0.0109708933159708,0.5417032837867737,0.4866032600402832,0.0152760883793234,0.555246114730835,0.3831445574760437,0.0109616164118051,0.562060534954071,0.3139983415603637,-0.0014555985108017,0.5672643780708313,0.2568351328372955,-0.0116172544658184,0.5781987309455872,0.5043153166770935,0.0045722718350589,0.5990433096885681,0.4146744608879089,-0.0043729525059461,0.6095490455627441,0.3526298403739929,-0.0170562583953142,0.6162092089653015,0.2994267046451568,-0.0269016660749912,0.6112707257270813,0.538093090057373,-0.0089108645915985,0.6471326351165771,0.4832327365875244,-0.0171912405639886,0.6671248078346252,0.44231778383255,-0.0228737387806177,0.682296633720398,0.4052793979644775,-0.0275719426572322
2023-08-01 15:55:38.915186,79,103,0.6628638505935669,0.6212820410728455,-0.12293541431427,0.3993833065032959,0.0361328125,0.8828125,0.451171875,0.4905211329460144,0.7492750883102417,1.7784273609322557e-07,0.4322377443313598,0.6838133335113525,-0.0135852294042706,0.4076906740665436,0.5830311179161072,-0.0103309620171785,0.408204972743988,0.5026367902755737,-0.0087177567183971,0.4011816084384918,0.4404859542846679,-0.0062483972869813,0.4819891452789306,0.4939550161361694,0.0239927768707275,0.4781765043735504,0.404656320810318,0.0162361226975917,0.4749464690685272,0.3481825590133667,0.0026450669392943,0.4735551178455353,0.2986855208873749,-0.0085124978795647,0.5241686701774597,0.4888134300708771,0.018937574699521,0.5362354516983032,0.3872459530830383,0.0154822114855051,0.5415488481521606,0.3206402063369751,0.0027472262736409,0.5455734133720398,0.2648104131221771,-0.0079492116346955,0.5601879954338074,0.5016645789146423,0.0082615865394473,0.5782751441001892,0.4119542837142944,0.0019806998316198,0.5877324938774109,0.3498675227165222,-0.0092798881232738,0.5935412645339966,0.2961176037788391,-0.0187986176460981,0.5927228927612305,0.5287257432937622,-0.0053878854960203,0.6164819598197937,0.4660932421684265,-0.0106895845383405,0.6292522549629211,0.4228605031967163,-0.0142379337921738,0.6382133364677429,0.3838595151901245,-0.017996659502387
2023-08-01 15:55:38.976298,80,104,0.6636220812797546,0.6186694502830505,-0.121645487844944,0.4025620818138122,-0.0771484375,0.88818359375,0.44189453125,0.4835579097270965,0.7547137141227722,1.308314523384979e-07,0.4277569651603699,0.6942636370658875,-0.0116272503510117,0.4028221070766449,0.5905683040618896,-0.007433624472469,0.4022884666919708,0.5061371326446533,-0.0053250868804752,0.3893164396286011,0.4461778998374939,-0.0029875158797949,0.4735681712627411,0.5008387565612793,0.0220142528414726,0.4663051068782806,0.4122710824012756,0.014765459112823,0.4600158929824829,0.3549854755401611,0.0020916569046676,0.456236869096756,0.3033588230609894,-0.0087925195693969,0.5155324935913086,0.4922873973846435,0.0152757642790675,0.5255128145217896,0.3904715776443481,0.0107234409078955,0.5282077193260193,0.3216243982315063,-0.0023058233782649,0.5296656489372253,0.2634451389312744,-0.0132028153166174,0.5503948330879211,0.5019512176513672,0.0035221653524786,0.5668716430664062,0.4106033444404602,-0.0037740177940577,0.5730348229408264,0.3490176796913147,-0.0150944897904992,0.5758808255195618,0.2953145503997803,-0.0244744662195444,0.5808792114257812,0.5257390737533569,-0.0109156891703605,0.6010221242904663,0.4554816484451294,-0.0177893657237291,0.6118320226669312,0.4075395762920379,-0.0218938551843166,0.6192392706871033,0.3645166158676147,-0.0258411709219217
2023-08-01 15:55:39.035271,81,105,0.6639149188995361,0.6198989152908325,-0.1212216541171073,0.4003094732761383,0.0107421875,0.92822265625,0.4296875,0.4759924113750458,0.766422688961029,-1.4107544465957744e-08,0.4128523468971252,0.7081766128540039,-0.0075332885608077,0.3841249644756317,0.6047204732894897,0.002066143322736,0.3815357685089111,0.5197452902793884,0.0079809706658124,0.3700276613235473,0.4607310891151428,0.0145391346886754,0.4515881538391113,0.5230041146278381,0.0414371341466903,0.4422227740287781,0.4419898092746734,0.0397893078625202,0.4350359439849853,0.3904386758804321,0.0283867549151182,0.4295760095119476,0.3419760465621948,0.0176129732280969,0.4892829656600952,0.5106970071792603,0.0342485792934894,0.4910506010055542,0.4123729169368744,0.0335807092487812,0.4871729910373688,0.3445821404457092,0.0205211639404296,0.4818532466888428,0.2870926856994629,0.0089757842943072,0.523423433303833,0.5154253244400024,0.0211102049797773,0.5331464409828186,0.4235888123512268,0.0159892104566097,0.5316742062568665,0.3603523075580597,0.0035781466867774,0.5267871618270874,0.3058294653892517,-0.0064313327893614,0.5569280385971069,0.5321321487426758,0.0052943513728678,0.5672427415847778,0.4564280807971954,-0.0002053298812825,0.5682430863380432,0.4027988612651825,-0.0051918933168053,0.5663588047027588,0.353283941745758,-0.0100473165512084
2023-08-01 15:55:39.095021,82,106,0.6650353670120239,0.6227219700813293,-0.1215333864092826,0.3939223885536194,0.021484375,0.91845703125,0.37109375,0.4739347696304321,0.7698035836219788,6.53072262934984e-08,0.4136295318603515,0.7111779451370239,-0.0111935939639806,0.3826591670513153,0.6120480298995972,-0.0054585034959018,0.3783197104930877,0.5280374884605408,-0.0025817016139626,0.3715220689773559,0.4681181609630584,0.0007122742244973,0.4497959315776825,0.5316027402877808,0.029754664748907,0.4400264918804168,0.4486749768257141,0.0235994644463062,0.4317909479141235,0.3961461186408996,0.0109863271936774,0.4262023270130157,0.3456904590129852,-0.0002581308363005,0.4889823198318481,0.5187944173812866,0.0229640435427427,0.4898235201835632,0.4205288290977478,0.0178584121167659,0.4849824607372284,0.353090763092041,0.0033080789726227,0.4793426394462585,0.2930973768234253,-0.0084964018315076,0.5235844254493713,0.5232287049293518,0.0105767967179417,0.5303544998168945,0.4304501712322235,0.0011479120003059,0.5283513069152832,0.3677646815776825,-0.011857533827424,0.522157609462738,0.3124327957630157,-0.0213027819991111,0.5561968684196472,0.54087895154953,-0.0044495579786598,0.5657463073730469,0.4635498523712158,-0.0143646262586116,0.5662285089492798,0.4092370867729187,-0.0207783449441194,0.5620353817939758,0.3590884804725647,-0.0257408339530229
2023-08-01 15:55:39.159234,83,107,0.6667746901512146,0.6247459650039673,-0.1211539432406425,0.3878476321697235,-0.1025390625,0.9091796875,0.3935546875,0.474975436925888,0.770236611366272,6.51894467296188e-08,0.4135296046733856,0.7090184688568115,-0.009083199314773,0.3843137323856354,0.6127257943153381,-0.0017379241762682,0.3808432519435882,0.5307506322860718,0.0021620306652039,0.3754464983940124,0.4728686213493347,0.006302532274276,0.4504909217357635,0.5386347770690918,0.0342038311064243,0.4405105113983154,0.4564198851585388,0.0290243159979581,0.4325297176837921,0.4032440781593323,0.0166999828070402,0.4273752272129059,0.3523415625095367,0.0056828022934496,0.4901381134986877,0.5251244306564331,0.0267043560743331,0.4914459884166717,0.4272341132164001,0.0223888922482728,0.4868455827236175,0.358842670917511,0.0075136544182896,0.4812594056129455,0.2983178496360779,-0.004496029112488,0.5253018736839294,0.5284536480903625,0.0135924145579338,0.533401608467102,0.4368131458759308,0.0048656119033694,0.5313788652420044,0.373805820941925,-0.0087420949712395,0.5244140028953552,0.3179946839809418,-0.0185381844639778,0.5584433078765869,0.5449657440185547,-0.0020245763007551,0.5691637396812439,0.4681954085826874,-0.011087030172348,0.5693116188049316,0.4137938618659973,-0.017436821013689,0.5639180541038513,0.3634668588638305,-0.0224026516079902
2023-08-01 15:55:39.223490,84,108,0.6696537733078003,0.6238678693771362,-0.1212207525968551,0.3842630982398987,-0.1357421875,0.90283203125,0.39111328125,0.4893614947795868,0.7734826803207397,1.005808414333842e-07,0.4290800094604492,0.7112589478492737,-0.0139352986589074,0.4000310003757477,0.6129907965660095,-0.0100746937096118,0.3958513140678406,0.5272377133369446,-0.0079882722347974,0.3860731124877929,0.4656759202480316,-0.00512341177091,0.4618677198886871,0.5432209372520447,0.0232846029102802,0.4476148784160614,0.4572503268718719,0.0146538680419325,0.4371986091136932,0.4015462100505829,0.0013556530466303,0.4305598735809326,0.3493736386299133,-0.0098694553598761,0.5021419525146484,0.5298752188682556,0.0183445382863283,0.5029330253601074,0.4295421838760376,0.0111529938876628,0.4996582269668579,0.3608076274394989,-0.0033462175633758,0.4953792691230774,0.3007610142230987,-0.0146714812144637,0.538632869720459,0.5342264771461487,0.0079057831317186,0.5475835204124451,0.4405586123466491,-0.0027527795173227,0.5472015738487244,0.3762500882148742,-0.0152668384835124,0.5428544282913208,0.3210155963897705,-0.0239876303821802,0.5737987756729126,0.5523344278335571,-0.0052144671790301,0.5850169658660889,0.4763261079788208,-0.0148787451907992,0.5865726470947266,0.4225165545940399,-0.0204243827611207,0.5833496451377869,0.3740651607513428,-0.0245877709239721
2023-08-01 15:55:39.291242,85,109,0.6708685755729675,0.6216777563095093,-0.130159705877304,0.382766991853714,0.01708984375,0.9560546875,0.3193359375,0.5026193261146545,0.7773457765579224,1.523834782801714e-07,0.4402879178524017,0.7195358276367188,-0.0149004831910133,0.407675951719284,0.6201605796813965,-0.0129458494484424,0.4010009169578552,0.5344223976135254,-0.0121065471321344,0.3899989128112793,0.4719922244548797,-0.0104779759421944,0.4714902639389038,0.538310170173645,0.016602324321866,0.4585483372211456,0.4495272636413574,0.0072931107133626,0.449048638343811,0.3938056826591491,-0.0061350301839411,0.4429168999195099,0.3418496251106262,-0.0174520425498485,0.5141903758049011,0.5250737071037292,0.011572471819818,0.5158926844596863,0.4222636222839355,0.0041818427853286,0.5138194561004639,0.3523620665073395,-0.0098441392183303,0.5104764699935913,0.292253315448761,-0.0209822878241539,0.5522387623786926,0.5305324196815491,0.0014279758324846,0.5626412034034729,0.4348213970661163,-0.0091292448341846,0.563238799571991,0.3698501586914062,-0.0216447338461875,0.5597364902496338,0.3140068352222442,-0.0307078976184129,0.5873289108276367,0.5510100722312927,-0.0113029945641756,0.6006221175193787,0.4740589261054992,-0.0217998418956995,0.6035653352737427,0.4193161725997925,-0.0280710346996784,0.6017431020736694,0.3696632981300354,-0.0327129550278186
2023-08-01 15:55:39.349232,86,110,0.670822024345398,0.6208251714706421,-0.1348487585783004,0.3826090097427368,-0.0625,0.91650390625,0.400390625,0.5034323334693909,0.7859718799591064,1.1260384980005257e-07,0.4436366856098175,0.725668728351593,-0.0128112584352493,0.4119660854339599,0.6198621392250061,-0.0078372964635491,0.4032607078552246,0.5325002074241638,-0.004811062477529,0.3873266875743866,0.470538318157196,-0.0012128541711717,0.4750294387340545,0.5376380085945129,0.024165641516447,0.4604030847549438,0.4503796100616455,0.0167247969657182,0.4507230222225189,0.394977331161499,0.0039950879290699,0.4450950026512146,0.3423271775245666,-0.0073410333134233,0.5168854594230652,0.5229368209838867,0.0179943051189184,0.5168153643608093,0.4221654534339905,0.0116900457069277,0.5130404829978943,0.3527351021766662,-0.0027201599441468,0.5080795288085938,0.2907135486602783,-0.0142962057143449,0.5534244179725647,0.5283741354942322,0.006392250303179,0.5629037618637085,0.4356309771537781,-0.0035970371682196,0.562201976776123,0.3721102476119995,-0.0166646055877208,0.5561639070510864,0.3144735097885132,-0.0263600945472717,0.5869263410568237,0.5492104291915894,-0.0078516332432627,0.6011416912078857,0.4742133319377899,-0.0180858913809061,0.6037307977676392,0.4204538464546203,-0.0248430781066417,0.6004768013954163,0.3699336647987366,-0.0301361698657274
2023-08-01 15:55:39.404264,87,111,0.6708821058273315,0.6211684942245483,-0.1347212344408035,0.3819910287857055,-0.0048828125,0.9140625,0.38330078125,0.5062280297279358,0.789806604385376,9.715775206586841e-08,0.4452301263809204,0.7307271361351013,-0.0118808262050151,0.4120529294013977,0.6263226270675659,-0.0070275641046464,0.4035913646221161,0.5388953685760498,-0.0042116190306842,0.3860440254211426,0.4786108732223511,-0.0009020102443173,0.4755578935146332,0.5366876125335693,0.023556862026453,0.4604899883270263,0.4485154747962951,0.016392832621932,0.4505369961261749,0.3927163183689117,0.0038278338033705,0.444657415151596,0.3399260640144348,-0.0074642836116254,0.5177554488182068,0.5223597288131714,0.0168027784675359,0.5164303183555603,0.4206616282463074,0.0108760707080364,0.5124644041061401,0.351496160030365,-0.0031630888115614,0.5075978636741638,0.2897320389747619,-0.0146750779822468,0.5545737743377686,0.5281528234481812,0.0048084030859172,0.5632004737854004,0.4351214170455932,-0.0048653576523065,0.5630185604095459,0.371393620967865,-0.0176814701408147,0.5579376816749573,0.3132875561714172,-0.027440320700407,0.5884606242179871,0.5497632622718811,-0.009745730087161,0.6021908521652222,0.4744119644165039,-0.0197796318680048,0.6051384210586548,0.4211345016956329,-0.0262989867478609,0.6027326583862305,0.3711434006690979,-0.0315485782921314
