Timestamp,Index,Frame ID,w,x,y,z,ax,ay,az,x_0,y_0,z_0,x_1,y_1,z_1,x_2,y_2,z_2,x_3,y_3,z_3,x_4,y_4,z_4,x_5,y_5,z_5,x_6,y_6,z_6,x_7,y_7,z_7,x_8,y_8,z_8,x_9,y_9,z_9,x_10,y_10,z_10,x_11,y_11,z_11,x_12,y_12,z_12,x_13,y_13,z_13,x_14,y_14,z_14,x_15,y_15,z_15,x_16,y_16,z_16,x_17,y_17,z_17,x_18,y_18,z_18,x_19,y_19,z_19,x_20,y_20,z_20
2023-08-01 15:56:06.383665,0,605,0.6965835690498352,0.5948489904403687,-0.133189171552658,0.3784001469612121,-0.015625,0.8974609375,0.40625,0.5173181891441345,0.7447751760482788,4.2877309169853117e-07,0.4556756019592285,0.6812582015991211,-0.0177309699356555,0.4110189378261566,0.5849929451942444,-0.0247434880584478,0.3831472992897033,0.5206552147865295,-0.0322808474302291,0.3497576117515564,0.4816527962684631,-0.040604181587696,0.4885835945606231,0.4339335858821869,-0.0029954826459288,0.4854083955287933,0.3288230299949646,-0.0164788290858268,0.4846251010894775,0.2638230621814728,-0.0322923585772514,0.4865610599517822,0.2060469985008239,-0.0459630712866783,0.5385744571685791,0.4323268532752991,-0.0125429974868893,0.5550968050956726,0.313235878944397,-0.0214068032801151,0.5658988356590271,0.2389296740293502,-0.0353045053780078,0.5745400190353394,0.1752631068229675,-0.0477527193725109,0.5811076760292053,0.4574658870697021,-0.0267995130270719,0.6114025115966797,0.3553404808044433,-0.0399921499192714,0.6287028193473816,0.2896912097930908,-0.0542073249816894,0.6407484412193298,0.2286810874938964,-0.066557727754116,0.614822506904602,0.5023876428604126,-0.0436515659093856,0.6539726257324219,0.4341024160385132,-0.0573084838688373,0.6802563667297363,0.3879332542419433,-0.0643377155065536,0.7029879093170166,0.3410039842128753,-0.0708470940589904
2023-08-01 15:56:06.428921,1,606,0.6964858770370483,0.5946726202964783,-0.1323832720518112,0.379139244556427,0.00048828125,0.90771484375,0.39306640625,0.5173646807670593,0.7471818923950195,4.236561608195189e-07,0.4548645615577698,0.6839601993560791,-0.0169901046901941,0.4107782244682312,0.58544921875,-0.0229859184473752,0.3831564784049988,0.5201048851013184,-0.0295849908143281,0.3491076231002807,0.481963962316513,-0.0368259884417057,0.4887246489524841,0.4340237081050873,-0.0009774548234418,0.4854607582092285,0.3287737369537353,-0.0134551199153065,0.4845009744167328,0.2638636827468872,-0.0283780805766582,0.486350417137146,0.2069352269172668,-0.0413730815052986,0.5382675528526306,0.4322219491004944,-0.0105363670736551,0.554897665977478,0.3132354915142059,-0.0184065271168947,0.5658130645751953,0.2388922125101089,-0.0313933454453945,0.5742514729499817,0.1765578985214233,-0.043061725795269,0.5805268287658691,0.4569874703884125,-0.0248481091111898,0.6109371781349182,0.3555420041084289,-0.0370625033974647,0.6283667087554932,0.2901591062545776,-0.0506963431835174,0.6403921842575073,0.2300206422805786,-0.0625727251172065,0.6142434477806091,0.5012378692626953,-0.0417795628309249,0.6538429260253906,0.4327122569084167,-0.0544090010225772,0.6797933578491211,0.3860052525997162,-0.0611210539937019,0.7020477056503296,0.3391192555427551,-0.0674202814698219
2023-08-01 15:56:06.475597,2,607,0.6961370706558228,0.5940405130386353,-0.1315791010856628,0.3810459673404693,-0.04638671875,0.90771484375,0.36669921875,0.5171030759811401,0.744965672492981,4.239037139086577e-07,0.454689085483551,0.680702805519104,-0.0167625993490219,0.4106056094169616,0.5833430886268616,-0.0230438020080328,0.3827123641967773,0.5190088748931885,-0.0300804022699594,0.3489022254943847,0.4803517162799835,-0.0378343164920806,0.4887495338916778,0.4325160980224609,-0.001011446584016,0.4859156608581543,0.3276721239089966,-0.0136862574145197,0.4848642945289612,0.2629818320274353,-0.028830025345087,0.4866116344928741,0.2058996856212616,-0.0419910065829753,0.5380763411521912,0.4308463037014007,-0.0107770888134837,0.5548603534698486,0.3119617700576782,-0.0189951043576002,0.565359354019165,0.2375244945287704,-0.0324536859989166,0.5736469030380249,0.1745574176311493,-0.0444921925663948,0.5800968408584595,0.4556082487106323,-0.0252557098865509,0.6108982563018799,0.3540399670600891,-0.0379576459527015,0.6282742619514465,0.2888587117195129,-0.0520198456943035,0.6402410268783569,0.2288988530635833,-0.0641232803463935,0.6135070323944092,0.4997876286506653,-0.0422798432409763,0.6534241437911987,0.4312815070152282,-0.0553043410181999,0.6794934272766113,0.3844737112522125,-0.0622658729553222,0.701815664768219,0.3373380005359649,-0.0687176957726478
2023-08-01 15:56:06.523600,3,608,0.6962131857872009,0.5923099517822266,-0.1343924403190612,0.3826158046722412,-0.06298828125,0.9013671875,0.4755859375,0.5163745284080505,0.7447203397750854,4.13949294397753e-07,0.4540065228939056,0.6830664277076721,-0.0168353151530027,0.4103640615940094,0.5861780047416687,-0.02305250428617,0.3836946487426758,0.5223180055618286,-0.0299219191074371,0.3498069643974304,0.4849300682544708,-0.0375609137117862,0.4878629148006439,0.4329248070716858,-0.001831489149481,0.4845403432846069,0.3289647698402405,-0.0148566951975226,0.4834628701210022,0.2642288208007812,-0.0301053188741207,0.4851630330085754,0.2075276672840118,-0.0432373620569705,0.5368409156799316,0.4306609332561493,-0.0114834494888782,0.5531286597251892,0.3114117980003357,-0.0199646241962909,0.5636378526687622,0.2369402199983596,-0.0331803560256958,0.5720276832580566,0.1745715737342834,-0.0449324734508991,0.5786333084106445,0.454992800951004,-0.0258169490844011,0.6090495586395264,0.353337675333023,-0.0386926531791687,0.6259623169898987,0.2881022989749908,-0.0526486188173294,0.6375319957733154,0.2282470166683197,-0.0645806565880775,0.6119813323020935,0.4988605976104736,-0.0427137650549411,0.6522587537765503,0.4303921461105346,-0.0557892024517059,0.678114652633667,0.3833115398883819,-0.0628455281257629,0.7000494003295898,0.335848331451416,-0.0693489164113998
2023-08-01 15:56:06.568899,4,609,0.6961729526519775,0.5928881764411926,-0.1364853829145431,0.3810493350028991,0.0810546875,0.92138671875,0.38330078125,0.5160946846008301,0.7446701526641846,4.034949654396769e-07,0.4527432024478912,0.6819832921028137,-0.0172777529805898,0.4086547791957855,0.5855286717414856,-0.024232929572463,0.3809841871261596,0.5217170715332031,-0.0317889638245105,0.3468635380268097,0.4824409186840057,-0.0400905981659889,0.4874729514122009,0.4341958165168762,-0.0030634202994406,0.4833165109157562,0.3303386270999908,-0.0168881919234991,0.4820231199264526,0.2659730911254883,-0.03248767927289,0.4837222993373871,0.2090611457824707,-0.045765895396471,0.5361818075180054,0.4314025938510895,-0.0128964837640523,0.5511600375175476,0.3121850788593292,-0.0225084666162729,0.5611152648925781,0.2370515912771225,-0.036145556718111,0.5692639946937561,0.1743796169757843,-0.0480913147330284,0.5772253274917603,0.4555787146091461,-0.0274383146315813,0.6073108911514282,0.3543238043785095,-0.0411743111908435,0.6244025826454163,0.2886657118797302,-0.0551924705505371,0.636180579662323,0.2282984852790832,-0.067053809762001,0.6099424362182617,0.4989968240261078,-0.0445678532123565,0.6494787931442261,0.428911805152893,-0.0583270415663719,0.6742839217185974,0.3802922368049621,-0.0655611976981163,0.6948195695877075,0.3313222825527191,-0.072152204811573
2023-08-01 15:56:06.618944,5,610,0.6949056386947632,0.5937185883522034,-0.1361408531665802,0.3821909725666046,-0.09033203125,0.912109375,0.36376953125,0.5135486125946045,0.7430627346038818,3.9191985479192237e-07,0.4511024951934814,0.6810876727104187,-0.0174442008137702,0.4079542756080627,0.5855086445808411,-0.0247868988662958,0.3805739283561706,0.5220346450805664,-0.032770499587059,0.3454680740833282,0.4846035838127136,-0.0416248068213462,0.4858719110488891,0.4345375001430511,-0.0033098075073212,0.4813242256641388,0.3325782418251037,-0.0175800006836652,0.4795570075511932,0.2692637741565704,-0.0337904095649719,0.4807814657688141,0.2124098837375641,-0.0475696064531803,0.5340410470962524,0.4307076930999756,-0.0130815431475639,0.5487399101257324,0.312663197517395,-0.0232069697231054,0.5580487847328186,0.2378837764263153,-0.0375312976539135,0.5657622814178467,0.1743321120738983,-0.050047617405653,0.5746238827705383,0.4537567496299743,-0.0274797137826681,0.6056303977966309,0.3538540303707123,-0.041336715221405,0.622794508934021,0.2877802848815918,-0.0556261539459228,0.6343565583229065,0.2269655466079712,-0.067750297486782,0.6065833568572998,0.4964208304882049,-0.044488176703453,0.645892858505249,0.4268133044242859,-0.0578547529876232,0.6700599789619446,0.3776205778121948,-0.0648806169629097,0.6896539330482483,0.3281069993972778,-0.0714858472347259
2023-08-01 15:56:06.680851,6,611,0.6899953484535217,0.598565936088562,-0.1411119997501373,0.3817231357097626,-0.01416015625,0.94921875,0.41357421875,0.5128128528594971,0.7419930696487427,3.644599075869337e-07,0.4512180984020233,0.6798785924911499,-0.0184119865298271,0.4071508646011352,0.5836542248725891,-0.0265184957534074,0.3785058259963989,0.5178866386413574,-0.0352883525192737,0.343873381614685,0.4774260520935058,-0.0448287837207317,0.487142950296402,0.4364301860332489,-0.0035502228420227,0.4820500910282135,0.3353642523288727,-0.0188235454261302,0.4794596433639526,0.2726182639598846,-0.0361263677477836,0.4795274436473846,0.2163046300411224,-0.0505743212997913,0.5346232652664185,0.4325386583805084,-0.01301353238523,0.5476037859916687,0.3156605958938598,-0.0239672902971506,0.5553579926490784,0.2411493360996246,-0.0389586947858333,0.5608941912651062,0.1779626905918121,-0.0519290305674076,0.5748990178108215,0.4547970592975616,-0.0272884368896484,0.6048112511634827,0.3560115098953247,-0.0413905493915081,0.6207019686698914,0.2892680168151855,-0.0556421838700771,0.6306366920471191,0.2286959886550903,-0.0676991268992424,0.6066499948501587,0.4966407716274261,-0.0443212427198886,0.6446090936660767,0.4264859855175018,-0.0573443658649921,0.6680587530136108,0.3764213025569916,-0.0640304759144783,0.6866652369499207,0.3268734812736511,-0.0704229101538658
2023-08-01 15:56:06.741279,7,612,0.6872605681419373,0.5998152494430542,-0.1418532133102417,0.3844115436077118,-0.041015625,0.92822265625,0.3212890625,0.5174885392189026,0.7422655820846558,5.781824796713408e-08,0.4578534960746765,0.6791632771492004,-0.0146373864263296,0.4164066910743713,0.5827436447143555,-0.0195178668946027,0.3940573036670685,0.5053724050521851,-0.0268081426620483,0.3700964450836181,0.4460958838462829,-0.0341950990259647,0.4971248507499695,0.4529217779636383,0.0124180112034082,0.4899209439754486,0.362561970949173,-0.0015184819931164,0.4821854829788208,0.3064981698989868,-0.0204346440732479,0.4760231971740722,0.2523378431797027,-0.0366765707731246,0.5404118299484253,0.4461306631565094,0.0026294579729437,0.5461199283599854,0.3409556746482849,-0.0087682213634252,0.5432878732681274,0.2711611688137054,-0.0267197452485561,0.537745475769043,0.2099398374557495,-0.0425273180007934,0.5760730504989624,0.4620574414730072,-0.0125539265573024,0.5983701944351196,0.3732452392578125,-0.0262468922883272,0.6028528809547424,0.3104346990585327,-0.0406728461384773,0.5991342663764954,0.254137635231018,-0.0529484935104846,0.6060270071029663,0.4962534606456756,-0.0306433606892824,0.6309760808944702,0.4275010824203491,-0.0432179644703865,0.6358125805854797,0.3746297955513,-0.0510286875069141,0.6310363411903381,0.3240925371646881,-0.0583656579256057
2023-08-01 15:56:06.787900,8,613,0.6840401291847229,0.6028270721435547,-0.1442596763372421,0.3845488131046295,-0.0732421875,0.91357421875,0.34716796875,0.5183728933334351,0.7337981462478638,2.811534116631265e-08,0.4575292766094208,0.66889888048172,-0.0120946280658245,0.416646271944046,0.5757628679275513,-0.015763122588396,0.3965717256069183,0.5016789436340332,-0.0223432518541812,0.3750096559524536,0.4391039311885834,-0.0287648197263479,0.4977041184902191,0.4550383687019348,0.0175642427057027,0.490710437297821,0.3704267740249634,0.0054563707672059,0.4810463190078735,0.3206226825714111,-0.0124826543033123,0.47183558344841,0.2717449069023132,-0.0276509281247854,0.5396533608436584,0.4492746591567993,0.0076970336958765,0.5441983938217163,0.349408745765686,-0.0013341944431886,0.5375531911849976,0.2844097912311554,-0.0186517555266618,0.5271197557449341,0.2266031801700592,-0.0341725535690784,0.5749094486236572,0.4637750685214996,-0.0076101548038423,0.593053936958313,0.3744921386241913,-0.0197935476899147,0.5900596380233765,0.3146637976169586,-0.0353295356035232,0.5777968168258667,0.2628841400146484,-0.0482317171990871,0.6052814722061157,0.4944087862968445,-0.0254599284380674,0.6253304481506348,0.4211909174919128,-0.0379110351204872,0.6230883598327637,0.3704786002635956,-0.0470184087753295,0.6101469993591309,0.3249214887619018,-0.0549922697246074
2023-08-01 15:56:06.849088,9,614,0.6788887977600098,0.6079074740409851,-0.1461817324161529,0.3849537074565887,-0.06298828125,0.93603515625,0.33984375,0.518426775932312,0.7254860401153564,-8.876019030878979e-09,0.4563283622264862,0.6598067283630371,-0.0083394609391689,0.4163438379764557,0.5710366368293762,-0.0089454231783747,0.3986184298992157,0.4970439970493316,-0.0136151919141411,0.3813442587852478,0.4329200983047485,-0.0176358185708522,0.4979765713214874,0.4597260057926178,0.0303767435252666,0.4910347163677215,0.3793591558933258,0.0221012271940708,0.4799079000949859,0.3343523740768432,0.0054374639876186,0.4684659838676452,0.2900217473506927,-0.0089353248476982,0.5380702018737793,0.4520910978317261,0.0205641444772481,0.5412395596504211,0.3554686307907104,0.015714069828391,0.5329318046569824,0.294430136680603,-5.818873250973411e-05,0.5210590958595276,0.2408015131950378,-0.0147524941712617,0.5721778869628906,0.4631573557853699,0.0049481750465929,0.5857433080673218,0.37408047914505,-0.003606445621699,0.5775388479232788,0.3183299899101257,-0.0174369364976882,0.5604081749916077,0.2724145650863647,-0.0292485691606998,0.6039890050888062,0.4896143674850464,-0.0132396537810564,0.6197761297225952,0.4168769717216491,-0.0231341868638992,0.6112621426582336,0.3673767745494842,-0.031446773558855,0.5916632413864136,0.3245058059692383,-0.0388165302574634
2023-08-01 15:56:06.909228,10,615,0.6771735548973083,0.6099069714546204,-0.1480922102928161,0.3840809464454651,0.0244140625,0.919921875,0.36181640625,0.5174161791801453,0.722477376461029,-6.089928206165497e-08,0.4544001221656799,0.6587637662887573,-0.0061030415818095,0.4151484370231628,0.5708736181259155,-0.0043771108612418,0.399262934923172,0.4960164427757263,-0.0068778046406805,0.3857834935188293,0.4328950047492981,-0.0083745848387479,0.4979730248451233,0.4642999172210693,0.035726323723793,0.4920211434364319,0.3855577111244201,0.0297800600528717,0.4793532490730285,0.3441225886344909,0.0141084110364317,0.4644611179828644,0.304947555065155,0.0005961110582575,0.5372860431671143,0.4567814171314239,0.0266253091394901,0.54075026512146,0.3646706342697143,0.0244118049740791,0.5307954549789429,0.3076880574226379,0.0093942135572433,0.5146405696868896,0.2614940702915191,-0.0046691047027707,0.5713850259780884,0.4664156138896942,0.0118883000686764,0.5836522579193115,0.3815297484397888,0.0063046314753592,0.572722852230072,0.32955402135849,-0.0063880118541419,0.5510038733482361,0.2897540926933288,-0.0174550898373127,0.6037184000015259,0.4905163645744324,-0.005279435776174,0.6185646653175354,0.4220301210880279,-0.0123840188607573,0.6084005832672119,0.3777723610401153,-0.019347546622157,0.5863215327262878,0.3431026339530945,-0.025637062266469
2023-08-01 15:56:06.966051,11,616,0.6766665577888489,0.610484778881073,-0.1480099558830261,0.3840882480144501,-0.00146484375,0.9033203125,0.35107421875,0.5209054350852966,0.7253297567367554,-2.308088937752473e-07,0.4589903056621551,0.6647863388061523,-0.0114074554294347,0.4201904833316803,0.5731441974639893,-0.0122463414445519,0.4098439514636993,0.490825206041336,-0.0175702981650829,0.4218509793281555,0.4326575398445129,-0.0187354367226362,0.5019800662994385,0.4797780811786651,0.0381892397999763,0.5026184916496277,0.4016459286212921,0.0213692896068096,0.486977756023407,0.3779001235961914,0.0003008110797964,0.4702940285205841,0.3864209651947021,-0.010505543090403,0.5360400080680847,0.4703657329082489,0.0336518362164497,0.5418853759765625,0.3761497735977173,0.0207182094454765,0.5267404317855835,0.3461915254592895,0.0033070626668632,0.5059571862220764,0.3686437606811523,-0.0043236874043941,0.569451093673706,0.4755097925662994,0.0221540424972772,0.5809469223022461,0.3891386389732361,0.0128463050350546,0.5649791955947876,0.3546773791313171,0.0035926168784499,0.5422661900520325,0.3708821535110473,0.0015741838142275,0.6048343181610107,0.4936403632164001,0.0073194815777242,0.6160363554954529,0.4255596399307251,0.0005472332704812,0.5991257429122925,0.3922556936740875,-0.0037438862491399,0.5728797912597656,0.3997092247009277,-0.0029726396314799
2023-08-01 15:56:07.021648,12,617,0.6760741472244263,0.6117275357246399,-0.1486993581056594,0.3828862011432647,0.0537109375,0.94287109375,0.3505859375,0.5215567350387573,0.7207649946212769,-2.3046391106618105e-07,0.4568060934543609,0.6595078706741333,-0.010492536239326,0.4180184602737427,0.5704923868179321,-0.010044502094388,0.4088859558105469,0.490867555141449,-0.0144019601866602,0.4254677891731262,0.4351246356964111,-0.0144668025895953,0.5006082653999329,0.4812261164188385,0.0406906604766845,0.5006017684936523,0.4058479070663452,0.023310462012887,0.4846857488155365,0.3871393799781799,0.0023038245271891,0.4694610834121704,0.4044462442398071,-0.0077672852203249,0.5341392755508423,0.4713055789470672,0.0359808839857578,0.5442556738853455,0.3739371597766876,0.0202393922954797,0.525915265083313,0.351360023021698,0.0019556963816285,0.5051150321960449,0.3846479058265686,-0.0045935488305985,0.567592442035675,0.4767888784408569,0.0243011284619569,0.5807892084121704,0.3872438073158264,0.013736555352807,0.5631232261657715,0.3604819774627685,0.004291811492294,0.5428945422172546,0.387817919254303,0.0033042936120182,0.6022474765777588,0.496531218290329,0.0093115894123911,0.6164674758911133,0.4256571531295776,0.002830202691257,0.5986939072608948,0.3938361406326294,-0.0012919877190142,0.573684811592102,0.407015711069107,1.0573785402812064e-05
2023-08-01 15:56:07.074980,13,618,0.6761429905891418,0.6118787527084351,-0.1487139612436294,0.3825171291828155,-0.00634765625,0.9208984375,0.3515625,0.5243819355964661,0.716448962688446,-2.391976750004688e-07,0.4579067230224609,0.6587330102920532,-0.0126344226300716,0.4200344383716583,0.5718376636505127,-0.013315743766725,0.4132599234580993,0.4906047284603119,-0.0191539619117975,0.4333718419075012,0.43665611743927,-0.0210559032857418,0.4974264502525329,0.4860568642616272,0.0397601686418056,0.4975797235965729,0.4112710654735565,0.0201940275728702,0.4809588193893432,0.3988421261310577,-0.0014172157971188,0.468796044588089,0.4224318563938141,-0.0114409318193793,0.5320333242416382,0.4744593799114227,0.0352954231202602,0.5439716577529907,0.3740372955799103,0.0157198309898376,0.5244917869567871,0.3612064719200134,-0.0036512748338282,0.5077553391456604,0.4023154079914093,-0.009430251084268,0.5652196407318115,0.4776108264923095,0.0235831532627344,0.5796924233436584,0.3862813711166382,0.008919927291572,0.5583482980728149,0.3743491172790527,-0.0012312759645283,0.541749894618988,0.4133839011192322,-0.0009581424528732,0.6001530289649963,0.4949901700019836,0.0086129121482372,0.6129810214042664,0.4224366247653961,0.0011820364743471,0.5929210782051086,0.4003778398036957,-0.0021238755434751,0.5714526176452637,0.42323899269104,0.0002729656407609
2023-08-01 15:56:07.131071,14,619,0.6752594709396362,0.6125572919845581,-0.1505960673093795,0.3822551071643829,-0.02783203125,0.9208984375,0.2900390625,0.5271350145339966,0.7212256193161011,-2.516999870749715e-07,0.4573796689510345,0.664571225643158,-0.0118649909272789,0.4206482172012329,0.5749669671058655,-0.0117150237783789,0.4190435409545898,0.4902300238609314,-0.0166588276624679,0.4422560036182403,0.4380319714546203,-0.0182238463312387,0.4952640533447265,0.4881718754768371,0.040092084556818,0.4974257051944732,0.4141766726970672,0.0222431309521198,0.4847392141819,0.4026908874511719,0.0007298122509382,0.4755325615406036,0.4259248673915863,-0.0103081697598099,0.5298743844032288,0.4781003594398498,0.0353525169193744,0.5417120456695557,0.3820613026618957,0.0172660388052463,0.5258048176765442,0.3748771548271179,-0.0035891132429242,0.5127133727073669,0.416340172290802,-0.0117575814947485,0.5623257756233215,0.4814243018627167,0.0238175634294748,0.5761430263519287,0.3923890292644501,0.0100331008434295,0.5576414465904236,0.383643627166748,-0.0025314942467957,0.5439363121986389,0.4239747524261474,-0.0052853929810225,0.5978848338127136,0.4985643029212951,0.0092304907739162,0.6089448928833008,0.4256924986839294,0.0017121050041168,0.5911145806312561,0.4063513278961181,-0.0031653316691517,0.572500467300415,0.4308154881000519,-0.0029118596576154
2023-08-01 15:56:07.191789,15,620,0.6740812659263611,0.6138050556182861,-0.1530688107013702,0.3813501000404358,0.04345703125,0.93701171875,0.341796875,0.5305226445198059,0.7258498668670654,-3.825951182534482e-07,0.4621673226356506,0.6692743301391602,-0.0064907358027994,0.4252481758594513,0.5823591947555542,-0.0042725312523543,0.4276776909828186,0.5010192394256592,-0.0084394849836826,0.4591958820819855,0.4623410403728485,-0.0096923820674419,0.4910993576049804,0.4955421984195709,0.0413408651947975,0.4948599934577942,0.4210521578788757,0.0256644506007432,0.4840231537818908,0.4230883121490478,0.0077516767196357,0.4806559979915619,0.45273557305336,-0.0014371935976669,0.5253295302391052,0.4881255328655243,0.034508965909481,0.5377961993217468,0.396034836769104,0.0152815515175461,0.5214177966117859,0.4131025671958923,-0.0022362300660461,0.514656126499176,0.4605222046375274,-0.0073407022282481,0.5593492388725281,0.4917032122611999,0.0218001157045364,0.5757303237915039,0.398459255695343,0.0061211269348859,0.5572382807731628,0.4135916829109192,-0.0025949326809495,0.5499627590179443,0.4628639221191406,-0.0021395275834947,0.5953055024147034,0.5082042813301086,0.0068128500133752,0.6054186820983887,0.4310179352760315,-0.0016199519159272,0.5857781171798706,0.429054319858551,-0.0037104282528162,0.5721743106842041,0.4645752310752868,-0.0014073963975533
2023-08-01 15:56:07.238966,16,621,0.6732516288757324,0.6147453188896179,-0.1543686687946319,0.380776584148407,0.0556640625,0.921875,0.3701171875,0.5307862162590027,0.7207857370376587,-3.861848654196365e-07,0.4642242789268493,0.6735442280769348,-0.0080736828967928,0.4265671670436859,0.5872633457183838,-0.0071264961734414,0.4292370080947876,0.5059918761253357,-0.012439802289009,0.4627468883991241,0.4686374068260193,-0.0148768285289406,0.4928417205810547,0.4978773593902588,0.0372497662901878,0.4953604340553283,0.4217812418937683,0.0199253316968679,0.4827091693878174,0.4296749830245971,0.002554252743721,0.4800898432731628,0.4633118212223053,-0.0055629364214837,0.5267079472541809,0.489937961101532,0.03037054464221,0.5372434258460999,0.3933856785297394,0.0082576125860214,0.5189087390899658,0.4188178181648254,-0.0084177833050489,0.5140852332115173,0.4704891741275787,-0.0110969562083482,0.5598958134651184,0.4925755560398102,0.0176745448261499,0.5714278221130371,0.3986514806747436,-0.0005404871772043,0.5513519644737244,0.4227868616580963,-0.0078179761767387,0.5464911460876465,0.4733672142028808,-0.0047046905383467,0.5950132012367249,0.5071114301681519,0.0027200570330023,0.6007920503616333,0.426367312669754,-0.0059217708185315,0.5803913474082947,0.4306391477584839,-0.0061860773712396,0.5699666142463684,0.4678972065448761,-0.0019071716815233
2023-08-01 15:56:07.284703,17,622,0.6733611822128296,0.6148460507392883,-0.1539709270000457,0.3805812895298004,0.0048828125,0.9296875,0.34716796875,0.5317246317863464,0.724102258682251,-4.2612518313944747e-07,0.4629458785057068,0.6762821674346924,-0.0070435618981719,0.4270848929882049,0.5927287936210632,-0.0050742556340992,0.4329265356063843,0.513400673866272,-0.009217788465321,0.4652082026004791,0.4782223105430603,-0.0102033307775855,0.4954766035079956,0.5015262365341187,0.0381411202251911,0.5012940168380737,0.423374205827713,0.0213819481432437,0.485757827758789,0.4370705485343933,0.0045640212483704,0.4813803732395172,0.4742310643196106,-0.0034650892484933,0.5280752778053284,0.4939106404781341,0.0312823541462421,0.5411286354064941,0.3958770036697387,0.009045117534697,0.519584059715271,0.4243225753307342,-0.0069441557861864,0.5130626559257507,0.4770583808422088,-0.0091296602040529,0.5600259304046631,0.4969035983085632,0.0186619032174348,0.5729269981384277,0.3997321724891662,0.0001371043472317,0.5512318015098572,0.4262356460094452,-0.0061733755283057,0.546055257320404,0.4781626462936401,-0.0024304972030222,0.5950617790222168,0.5127345323562622,0.0038875613827258,0.6013392806053162,0.4323501586914062,-0.0058238166384398,0.5807754397392273,0.4394747316837311,-0.0061789955943822,0.5707765221595764,0.478342592716217,-0.0018741084495559
2023-08-01 15:56:07.330247,18,623,0.6734626293182373,0.6149523854255676,-0.153869554400444,0.3802708685398102,0.00439453125,0.93701171875,0.35009765625,0.5305436849594116,0.7252336740493774,-4.710171310762235e-07,0.462969571352005,0.6748604774475098,-0.0052513177506625,0.4281043708324432,0.5919609069824219,-0.0036215300206094,0.4347580671310425,0.5167284607887268,-0.0089018018916249,0.4667918980121612,0.4832854568958282,-0.0112102953717112,0.4958220422267914,0.5031335949897766,0.035765990614891,0.499309778213501,0.420628011226654,0.0172318294644355,0.4848016798496246,0.4397297501564026,0.0004512972664088,0.4818153381347656,0.4817516505718231,-0.0070390994660556,0.5271380543708801,0.4964125752449035,0.0275659505277872,0.5359399318695068,0.3973293602466583,0.0036476335953921,0.5170747637748718,0.4326274394989013,-0.0116877881810069,0.5137172341346741,0.4882592558860779,-0.0130133796483278,0.5590553879737854,0.4983759820461273,0.0138949258252978,0.5676366090774536,0.4001896679401397,-0.0061555323190987,0.5486539602279663,0.4344956278800964,-0.0106737548485398,0.5464997887611389,0.4900126159191131,-0.0052094124257564,0.5941325426101685,0.5118659734725952,-0.0017370231216773,0.597197413444519,0.4292583167552948,-0.0127818724140524,0.5774880647659302,0.4425592720508575,-0.0118340877816081,0.569308340549469,0.4865455031394958,-0.0060794148594141
2023-08-01 15:56:07.374926,19,624,0.6735929846763611,0.6148051619529724,-0.1534430384635925,0.3804503083229065,0.01025390625,0.93212890625,0.35498046875,0.528159499168396,0.7254095673561096,-4.923217034047411e-07,0.4620354771614074,0.6766716241836548,-0.0042966250330209,0.4287697374820709,0.5939926505088806,-0.0021976965945214,0.4361358284950256,0.520063042640686,-0.007052881643176,0.4676920175552368,0.4883556067943573,-0.0087030092254281,0.4985460042953491,0.5049228668212891,0.0354093611240386,0.5037955641746521,0.4203686714172363,0.0169848967343568,0.4876679480075836,0.4415856897830963,0.0005640967865474,0.4842082262039184,0.4860095977783203,-0.0065472903661429,0.5284357070922852,0.4984108209609985,0.0271927416324615,0.5376735329627991,0.3975233733654022,0.0042447717860341,0.5169177651405334,0.4338437914848327,-0.0096429893746972,0.5133610963821411,0.4900439977645874,-0.0101524470373988,0.5592697858810425,0.5002207159996033,0.0135678714141249,0.5678072571754456,0.3993464112281799,-0.0047291163355112,0.5469503998756409,0.434222012758255,-0.0074290996417403,0.5445286631584167,0.4893999099731445,-0.0011697257868945,0.5936105847358704,0.5134297013282776,-0.0021183155477046,0.5977380871772766,0.4292526841163635,-0.0117052104324102,0.5761309862136841,0.4417964816093445,-0.0098199006170034,0.5664506554603577,0.4851265251636505,-0.0036891258787363
2023-08-01 15:56:07.422841,20,625,0.6738027334213257,0.6146726012229919,-0.1539269089698791,0.3800972998142242,0.01708984375,0.92431640625,0.35986328125,0.5297849178314209,0.7269647121429443,-5.115869612382085e-07,0.462603896856308,0.6771645545959473,-0.0021296439226716,0.4300878047943115,0.5940091609954834,0.0018473892705515,0.4381697177886963,0.520888090133667,-0.00137819792144,0.4694507718086242,0.4915437996387481,-0.00136611063499,0.4999259114265442,0.5061324834823608,0.0393069647252559,0.5050467252731323,0.4212683439254761,0.0216415785253047,0.489227831363678,0.4426422417163849,0.0052721090614795,0.4866881668567657,0.4885072112083435,-0.0017185718752443,0.5284440517425537,0.4998398423194885,0.0309259574860334,0.5371972918510437,0.3995793461799621,0.0084047177806496,0.5166382193565369,0.4366220831871032,-0.0060624266043305,0.5146000385284424,0.4934408962726593,-0.0068154828622937,0.5587663650512695,0.5002228021621704,0.0171907264739274,0.5664640665054321,0.3994699120521545,-0.0009927357314154,0.5453199148178101,0.4337828159332275,-0.0049899127334356,0.5443633794784546,0.4895095825195312,0.0005637679132632,0.5931099057197571,0.510936975479126,0.0016766374465078,0.5962799787521362,0.427429050207138,-0.0080429213121533,0.5755093097686768,0.4408659338951111,-0.00681734085083,0.5684249997138977,0.4862177073955536,-0.0009571259724907
2023-08-01 15:56:07.468600,21,626,0.6740974187850952,0.6145042777061462,-0.1528280377388,0.3802901208400726,0.01318359375,0.9228515625,0.36083984375,0.5267101526260376,0.72562575340271,-4.985096779819287e-07,0.4610775113105774,0.6754716634750366,-0.0021124319173395,0.4297838807106018,0.5935477018356323,0.0017016701167449,0.4376329183578491,0.520376443862915,-0.0018430222989991,0.4685612916946411,0.4896761178970337,-0.0022081353235989,0.5006482005119324,0.505958080291748,0.0406039394438266,0.5063952207565308,0.4227347373962402,0.0239816363900899,0.4892463982105255,0.4424118399620056,0.0080560855567455,0.4856923520565033,0.4875475764274597,0.0011891192989423,0.529824435710907,0.4993735551834106,0.0318651162087917,0.5400351881980896,0.3999599814414978,0.0105776572600007,0.5174598693847656,0.4334913194179535,-0.0037142804358154,0.513389527797699,0.4898144900798797,-0.0046515469439327,0.5601258873939514,0.50074702501297,0.0177279021590948,0.5697324275970459,0.4013581275939941,0.0007081634830683,0.5471866726875305,0.4329811334609985,-0.0032446752302348,0.5447037816047668,0.4874521493911743,0.0019421321339905,0.5941153764724731,0.5130453705787659,0.0017176060937345,0.59848952293396,0.4291529059410095,-0.0070522367022931,0.5758342742919922,0.4406174123287201,-0.0055622784420847,0.5660271048545837,0.4846782982349396,0.0001935936306836
2023-08-01 15:56:07.513600,22,627,0.6742877960205078,0.6142278909683228,-0.1521789729595184,0.3806594908237457,-0.01220703125,0.9306640625,0.34423828125,0.5287778377532959,0.7228889465332031,-5.199067913963518e-07,0.4632772803306579,0.6743795871734619,-0.0013426302466541,0.4317608475685119,0.5928518772125244,0.0025868606753647,0.4388637542724609,0.5196408033370972,-0.0007962810923345,0.470046192407608,0.4890329837799072,-0.0009645610698498,0.5013076066970825,0.5061956644058228,0.0387181863188743,0.5068152546882629,0.4213433861732483,0.0216133464127779,0.4905220866203308,0.4423213005065918,0.0061167157255113,0.4874632954597473,0.488211989402771,-0.000233272978221,0.5297269821166992,0.5000225305557251,0.0300166681408882,0.5383886098861694,0.3994589745998382,0.008285435847938,0.5174694061279297,0.4353133738040924,-0.0052796541713178,0.5151577591896057,0.4919309616088867,-0.0055503579787909,0.5600404739379883,0.5007203817367554,0.0161599703133106,0.5673070549964905,0.4001138210296631,-0.0013525810791179,0.5460077524185181,0.4340212643146515,-0.0043487339280545,0.5451074838638306,0.4888056516647339,0.0016811314271762,0.5945269465446472,0.5119226574897766,0.0005950452177785,0.5985616445541382,0.4270370304584503,-0.0085166776552796,0.57744300365448,0.4397597312927246,-0.0065255225636065,0.5696716904640198,0.4838584959506988,-0.0002840808301698
2023-08-01 15:56:07.564170,23,628,0.674521803855896,0.6139534115791321,-0.1521368473768234,0.3807045519351959,0.01806640625,0.93310546875,0.35546875,0.5293632745742798,0.7225640416145325,-5.130683007337211e-07,0.4631848335266113,0.6750413775444031,-0.0013158022193238,0.4316208958625793,0.5928492546081543,0.0035476887132972,0.4394357204437256,0.5191261768341064,0.0010421940824016,0.4712782502174377,0.4899120628833771,0.0014435753691941,0.5027974247932434,0.5075770020484924,0.0414772741496562,0.5066389441490173,0.4264416992664337,0.0258582737296819,0.4902594685554504,0.4449325799942016,0.0105408346280455,0.4882212579250335,0.4882495999336242,0.0037854679394513,0.5311364531517029,0.5002461671829224,0.0329095497727394,0.5397636890411377,0.4010635912418365,0.0120839867740869,0.5173092484474182,0.4350836277008056,-0.0018692915327847,0.5145184397697449,0.4911137819290161,-0.0025610402226448,0.5609992742538452,0.5000752210617065,0.0190995763987302,0.5688163638114929,0.399277925491333,0.0016078795306384,0.5454333424568176,0.4321026504039764,-0.0024199646431952,0.5436453819274902,0.4871077835559845,0.0029715171549469,0.5950038433074951,0.5107755661010742,0.0035925440024584,0.5988358855247498,0.4258469343185425,-0.0058854022063314,0.5765036344528198,0.4389512836933136,-0.0045747556723654,0.5680773258209229,0.4843302965164184,0.0011606847401708
2023-08-01 15:56:07.622569,24,629,0.6748098731040955,0.6136206388473511,-0.1516575664281845,0.3809218108654022,0.00927734375,0.93115234375,0.337890625,0.5280975103378296,0.7208191156387329,-5.387025794334477e-07,0.4629718661308288,0.6711190938949585,7.996480417205021e-05,0.4321864247322082,0.5904697775840759,0.0051292241550982,0.4398408234119415,0.5185996890068054,0.0025579251814633,0.4713550508022308,0.4890855252742767,0.0031374266836792,0.503341794013977,0.5052674412727356,0.0417484305799007,0.5094946622848511,0.421589195728302,0.0250070430338382,0.4921795725822449,0.4439873993396759,0.0096028484404087,0.4890907406806946,0.4905583560466766,0.003303486155346,0.5311190485954285,0.4995344281196594,0.0326853208243846,0.5412039756774902,0.3988192677497864,0.0110024325549602,0.5183918476104736,0.4361450374126434,-0.0025158289354294,0.5148988962173462,0.493533581495285,-0.0024764314293861,0.5607173442840576,0.5003101229667664,0.018412647768855,0.5694622993469238,0.3992324471473694,0.0008570773061364,0.5454921126365662,0.4344570338726043,-0.0021922937594354,0.54262375831604,0.4894424676895141,0.004064854234457,0.594819962978363,0.5116682648658752,0.0025510042905807,0.5992043018341064,0.4271333515644073,-0.0066157481633126,0.576568067073822,0.4415501356124878,-0.0046572652645409,0.5674603581428528,0.4864356517791748,0.0016969327116385
2023-08-01 15:56:07.674162,25,630,0.6749019622802734,0.6135236024856567,-0.1514246314764022,0.3810077011585235,0.00048828125,0.93310546875,0.3623046875,0.5299318432807922,0.7214257121086121,-5.241563485469669e-07,0.4640038311481476,0.6726836562156677,-0.0005275203147903,0.4328916370868683,0.5922553539276123,0.0038880363572388,0.4406492412090301,0.520399808883667,0.0008876017527654,0.4706398546695709,0.4894145727157593,0.0009836761746555,0.5034581422805786,0.5066185593605042,0.040353026241064,0.5086411237716675,0.423785001039505,0.023597965016961,0.4917206764221191,0.4438760578632355,0.0078530665487051,0.4886395931243896,0.4888789653778076,0.0012102145701646,0.5310665965080261,0.500263512134552,0.0314812026917934,0.5400091409683228,0.4002400040626526,0.0100444704294204,0.5177996754646301,0.4357141256332397,-0.0038250086363404,0.5149781107902527,0.4923151135444641,-0.0043550985865294,0.5607248544692993,0.5005046725273132,0.0174802411347627,0.5681445002555847,0.3992561101913452,6.499645678559318e-05,0.5453968048095703,0.4327464699745178,-0.0032976302318274,0.5439303517341614,0.4879742860794067,0.0025518785696476,0.5950264930725098,0.5109283328056335,0.0018673088634386,0.5981614589691162,0.4266330301761627,-0.0071634603664278,0.5764663219451904,0.4388004243373871,-0.0052788015455007,0.5685154795646667,0.4829508066177368,0.0009367172024212
2023-08-01 15:56:07.731731,26,631,0.6751639246940613,0.6130675673484802,-0.1503021568059921,0.3817212879657745,0.00146484375,0.92919921875,0.34130859375,0.5300417542457581,0.7233461141586304,-5.2525444971252e-07,0.4640979170799255,0.675346851348877,-0.0008763396181166,0.4330958724021911,0.5935466289520264,0.0037836737465113,0.4397650361061096,0.5211955308914185,0.0010763043537735,0.4697036147117615,0.4897427558898926,0.0015619219047948,0.5038601160049438,0.5068989396095276,0.0403563529253006,0.5090245008468628,0.42227903008461,0.0239095874130725,0.4916426837444305,0.4427319169044494,0.0090240174904465,0.489158421754837,0.487608790397644,0.0029717048164457,0.5315126180648804,0.500726044178009,0.0314852222800254,0.5404280424118042,0.4000920951366424,0.0096537275239825,0.5177085995674133,0.4368535280227661,-0.0035553937777876,0.5157918930053711,0.4931773543357849,-0.0032766666263341,0.5611056685447693,0.5011034607887268,0.0174064561724662,0.5688595771789551,0.4001019597053528,-0.0004844068316742,0.5455290675163269,0.4355767369270324,-0.0032753502018749,0.5446547865867615,0.4904665350914001,0.0032191951759159,0.5951869487762451,0.5118655562400818,0.0016677939565852,0.5989090204238892,0.4272201657295227,-0.0078633055090904,0.5764403343200684,0.4417673051357269,-0.0059076086618006,0.5686675310134888,0.4872219264507293,0.0005051848129369
2023-08-01 15:56:07.780151,27,632,0.6753225922584534,0.6124699711799622,-0.1501627266407013,0.3824540078639984,-0.005859375,0.92138671875,0.35009765625,0.5312873125076294,0.7245945930480957,-5.334288744052174e-07,0.4651753604412079,0.675325870513916,-0.0003256124036852,0.4339337050914764,0.5929347276687622,0.0048760552890598,0.4412697851657867,0.5206000208854675,0.0026014749892055,0.471319705247879,0.4897372722625732,0.0033259070478379,0.504497230052948,0.5074602365493774,0.040858618915081,0.5105571150779724,0.4238622188568115,0.0241079255938529,0.4934149086475372,0.4437890648841858,0.0089556341990828,0.4901777505874634,0.4885492920875549,0.0027902526780962,0.5324461460113525,0.5007554888725281,0.0317392572760582,0.5415188670158386,0.3999078869819641,0.0095020113512873,0.51889967918396,0.435783177614212,-0.0039793932810425,0.5158424973487854,0.4924129247665405,-0.0037568213883787,0.5621939301490784,0.5006858706474304,0.0174119547009468,0.5693597793579102,0.3999566435813904,-0.0011374038876965,0.5459942817687988,0.4350995719432831,-0.0044780164025723,0.5440414547920227,0.4903741180896759,0.0018449954222887,0.5964363813400269,0.5110653042793274,0.0015126806683838,0.5993413925170898,0.4264938235282898,-0.0089115714654326,0.5769577026367188,0.4413439631462097,-0.0074611790478229,0.5686581134796143,0.4871787130832672,-0.0012502918252721
2023-08-01 15:56:07.826877,28,633,0.6754773259162903,0.6121463179588318,-0.1498684287071228,0.382814347743988,0.0087890625,0.919921875,0.3798828125,0.5297679901123047,0.7240797877311707,-5.39719735570543e-07,0.4649622440338135,0.674411952495575,-0.0001858087489381,0.4341574013233185,0.5914462804794312,0.0046201259829103,0.4413928091526031,0.518292248249054,0.0017712807748466,0.4728267788887024,0.4886951744556427,0.002078826772049,0.5046483874320984,0.5069937705993652,0.0406273864209651,0.5103904604911804,0.4223693609237671,0.0234943814575672,0.4939196109771728,0.4461889863014221,0.0082589499652385,0.4920482635498047,0.4931619167327881,0.0021704146638512,0.5321509838104248,0.5011177062988281,0.0314344391226768,0.5409320592880249,0.4003595113754272,0.0092960651963949,0.5192908048629761,0.4391746520996094,-0.0038315025158226,0.5180656313896179,0.4959641993045807,-0.0033314391039311,0.5618031620979309,0.5010284185409546,0.0170516967773437,0.5683675408363342,0.3997643589973449,-0.0009505413472652,0.5458005666732788,0.4367879033088684,-0.0033626451622694,0.5454246997833252,0.4917289912700653,0.00350584811531,0.5958867073059082,0.51072758436203,0.001059447764419,0.597979724407196,0.4255463182926178,-0.0082438541576266,0.5760704874992371,0.4417988359928131,-0.0056656938977539,0.5692798495292664,0.4878295958042145,0.0012474977411329
2023-08-01 15:56:07.887098,29,634,0.6753974556922913,0.6120180487632751,-0.1488150209188461,0.3835703134536743,-0.0244140625,0.9423828125,0.32861328125,0.5292736887931824,0.7232992649078369,-5.429273528534395e-07,0.4637368619441986,0.6720833778381348,0.0008368557319045,0.4335327446460724,0.5909716486930847,0.0062533803284168,0.441595584154129,0.5197794437408447,0.0038841674104332,0.4719460308551788,0.4903247952461242,0.0044985660351812,0.504453718662262,0.5060864686965942,0.0419793091714382,0.510969340801239,0.4222164750099182,0.024952320381999,0.4945686757564544,0.4441942870616913,0.0092271286994218,0.4914913475513458,0.4906959533691406,0.0028401925228536,0.5321407318115234,0.5006896257400513,0.0324267968535423,0.5423938632011414,0.3997737169265747,0.0099962400272488,0.5204262137413025,0.4370725154876709,-0.0043171676807105,0.5169148445129395,0.494760125875473,-0.0045938063412904,0.56174635887146,0.5013352632522583,0.0178003758192062,0.5700234770774841,0.4003828763961792,-0.0004518894711509,0.5476877689361572,0.4365437030792236,-0.004065076354891,0.5457800030708313,0.4924686253070831,0.0020870154257863,0.5956755876541138,0.5123398900032043,0.0017083371058106,0.5990591049194336,0.4273880124092102,-0.008197640068829,0.5775344967842102,0.4423561990261078,-0.0065061063505709,0.5694922208786011,0.4881012141704559,-0.0001024380035232
2023-08-01 15:56:07.933996,30,635,0.6752505302429199,0.6119630336761475,-0.1484292894601822,0.3840659856796264,-0.00634765625,0.92724609375,0.35595703125,0.5291748642921448,0.7235930562019348,-5.364723847378627e-07,0.4638325870037079,0.6739764213562012,0.0002725030353758,0.4326528012752533,0.592036247253418,0.0054859956726431,0.4410557150840759,0.5202833414077759,0.003094095736742,0.4716008007526397,0.4913133382797241,0.0036571586970239,0.5029285550117493,0.5078798532485962,0.0404203161597251,0.5087622404098511,0.4239248037338257,0.0238178148865699,0.4936745166778564,0.4454332590103149,0.008462730795145,0.4918746650218963,0.4909918308258056,0.0021140463650226,0.5311444997787476,0.5017045736312866,0.0312184933573007,0.5410282015800476,0.4013607501983642,0.0094038313254714,0.5205110311508179,0.4385944306850433,-0.0043958434835076,0.5183488726615906,0.4955903887748718,-0.004612120334059,0.5609588623046875,0.5014292001724243,0.0170325487852096,0.5690733790397644,0.4010618031024933,-0.0003643556556198,0.5478993654251099,0.4368120431900024,-0.0033716612961143,0.5471611618995667,0.4919343590736389,0.0027867930475622,0.5948611497879028,0.5113977193832397,0.0012686237460002,0.5986436605453491,0.4265483021736145,-0.007743592839688,0.5777263641357422,0.4410438537597656,-0.0055738035589456,0.5704171061515808,0.4862034618854522,0.0008349756826646
2023-08-01 15:56:07.980380,31,636,0.6752975583076477,0.6118423938751221,-0.1482163369655609,0.3842578530311584,0.00927734375,0.91796875,0.35205078125,0.5295506119728088,0.7224403619766235,-5.256097210804e-07,0.4648776948451996,0.6735578775405884,-0.0001990037126233,0.4342526495456695,0.5925713181495667,0.0044310069642961,0.4419714510440826,0.5206772089004517,0.0014045577263459,0.4721718430519104,0.4894484281539917,0.0013843749184161,0.5049732327461243,0.5067357420921326,0.0410786941647529,0.5114359259605408,0.4231665730476379,0.024531340226531,0.4939099550247192,0.4441442489624023,0.0092722112312912,0.4901904761791229,0.4895384907722473,0.0029834762681275,0.5322871208190918,0.5005195736885071,0.0317240245640277,0.5414968132972717,0.3999632000923157,0.0101266745477914,0.5187196135520935,0.4355819225311279,-0.0035088274162262,0.5152439475059509,0.4922937154769897,-0.0036379937082529,0.5616151690483093,0.5011767745018005,0.0172022860497236,0.5686445236206055,0.4006088376045227,-0.0008157634292729,0.5458415150642395,0.4356794655323028,-0.0041620563715696,0.5439826846122742,0.4907993078231811,0.0019564458634704,0.5955596566200256,0.5122944116592407,0.0011121110292151,0.5983254909515381,0.4274057149887085,-0.0087229777127504,0.5760471820831299,0.4423680901527405,-0.0068307230249047,0.5673681497573853,0.488177478313446,-0.000434356596088
2023-08-01 15:56:08.032211,32,637,0.6753095388412476,0.6118112206459045,-0.148161694407463,0.3843072950839996,-0.00244140625,0.93505859375,0.34912109375,0.5293917655944824,0.7215864658355713,-5.383506618272804e-07,0.4646812081336975,0.672537088394165,0.0001099943328881,0.4342063367366791,0.5917437076568604,0.0047847884707152,0.4418194591999054,0.520179271697998,0.0018527357606217,0.4714789986610412,0.4891811311244964,0.002068473957479,0.5040790438652039,0.5045844912528992,0.0407399870455265,0.5088271498680115,0.421148270368576,0.024031713604927,0.4925451278686523,0.4435746371746063,0.0086847497150301,0.4905446469783783,0.4895579516887665,0.0024414309300482,0.5320491194725037,0.4988671243190765,0.0314943380653858,0.5406081080436707,0.4000016450881958,0.0100936759263277,0.5191388130187988,0.4378427267074585,-0.0032837423495948,0.517253577709198,0.4942253530025482,-0.0033255505841225,0.5616797804832458,0.4992886185646057,0.017175443470478,0.568972647190094,0.4005951285362243,0.0001004085570457,0.5468164086341858,0.4366921484470367,-0.0022775970865041,0.5460505485534668,0.4912334084510803,0.0042030024342238,0.595668613910675,0.509807825088501,0.0012440830469131,0.5990555882453918,0.4255587458610534,-0.0071252211928367,0.577357828617096,0.4405747056007385,-0.0042160395532846,0.5697463154792786,0.4854441583156585,0.0026955734938383
2023-08-01 15:56:08.094413,33,638,0.675702691078186,0.6114669442176819,-0.1478665173053741,0.3842781484127044,-0.01171875,0.9296875,0.34912109375,0.5306271910667419,0.7208811044692993,-5.377692673391721e-07,0.4647483229637146,0.6723533868789673,0.0005973711959086,0.4339125752449035,0.591492235660553,0.005753569304943,0.4414715766906738,0.5197088122367859,0.0032530347816646,0.471410870552063,0.4897134304046631,0.0037602679803967,0.5042750239372253,0.5066129565238953,0.0410194061696529,0.5086201429367065,0.4232509732246399,0.0248474683612585,0.4921344816684723,0.4444936513900757,0.0097580114379525,0.4899631440639496,0.4900259673595428,0.0035642704460769,0.5319095849990845,0.500446617603302,0.031765941530466,0.5396600961685181,0.4008629918098449,0.0109762027859687,0.5182040333747864,0.438079297542572,-0.0021914632525295,0.5167721509933472,0.4944304227828979,-0.0022440163884311,0.5615420937538147,0.500370979309082,0.0175455044955015,0.5676236152648926,0.39984330534935,0.0008975137607194,0.5459350943565369,0.4359152913093567,-0.0013821587199345,0.5461058616638184,0.4908514618873596,0.005031653214246,0.5956597924232483,0.5102637410163879,0.0017661127494648,0.5984427332878113,0.4249835312366485,-0.0065390244126319,0.5771526098251343,0.4394732117652893,-0.0036633580457419,0.5703414678573608,0.4843214750289917,0.0031549544073641
2023-08-01 15:56:08.151636,34,639,0.6757960915565491,0.6113566160202026,-0.1475717574357986,0.3844025135040283,-0.0048828125,0.92919921875,0.34326171875,0.5285325050354004,0.7207261323928833,-5.201223984840908e-07,0.4646724462509155,0.67289799451828,-0.0011101786512881,0.4343042969703674,0.5919038653373718,0.0029215037357062,0.4420211613178253,0.5196143388748169,-0.000585792469792,0.4730172157287597,0.4883084297180176,-0.0010028393007814,0.5050346255302429,0.5070815086364746,0.0396233424544334,0.5119024515151978,0.4231936931610107,0.0222970191389322,0.4949357807636261,0.4443188011646271,0.0068551823496818,0.4922453463077545,0.4899398684501648,0.0006016088300384,0.5328492522239685,0.5009010434150696,0.0304863378405571,0.5432730913162231,0.399740993976593,0.0079152127727866,0.5206884145736694,0.4356169700622558,-0.0056741470471024,0.5176597237586975,0.4924447536468506,-0.005430644378066,0.5623368620872498,0.5013237595558167,0.0161060839891433,0.5705753564834595,0.4010196328163147,-0.0024051237851381,0.5476771593093872,0.4362364411354065,-0.0053116595372557,0.5460951924324036,0.4910851716995239,0.0013674773508682,0.5961768627166748,0.5122191905975342,2.3954708012752235e-05,0.5997835993766785,0.427371621131897,-0.0097702601924538,0.5776697993278503,0.4422818422317505,-0.0076027303002774,0.5694902539253235,0.4879867434501648,-0.0009203503723256
2023-08-01 15:56:08.202923,35,640,0.6756976246833801,0.6113123893737793,-0.1469794362783432,0.3848727345466614,-0.00390625,0.93017578125,0.3515625,0.5310570597648621,0.7218818664550781,-5.311476911629143e-07,0.4654760360717773,0.6734070181846619,0.0002425271086394,0.4342430830001831,0.592771589756012,0.0048567517660558,0.4414063096046448,0.5215218663215637,0.0019220246467739,0.4712828695774078,0.4900066554546356,0.0022181081585586,0.5046550631523132,0.5064873099327087,0.0399826504290103,0.510370135307312,0.421413391828537,0.0232370514422655,0.4932552874088287,0.4416995346546173,0.0081420801579952,0.4898923635482788,0.4868832230567932,0.0021142559126019,0.5322195291519165,0.5005978345870972,0.0307645257562398,0.5408093929290771,0.4003242254257202,0.0091362381353974,0.5190839171409607,0.4373737871646881,-0.0039235483855009,0.5169588327407837,0.4940913021564483,-0.0036084977909922,0.5618165135383606,0.5011094808578491,0.0165561195462942,0.5684633851051331,0.4003230333328247,-0.0004560909583233,0.5465616583824158,0.4361138343811035,-0.002331364667043,0.546122133731842,0.4910453259944916,0.0045988406054675,0.5961443781852722,0.5117182731628418,0.0007519620121456,0.599706768989563,0.426562488079071,-0.0076011302880942,0.5782496929168701,0.4393570721149444,-0.0045975814573466,0.570732831954956,0.4828736484050751,0.0024816712830215
2023-08-01 15:56:08.264793,36,641,0.6756876707077026,0.6109004020690918,-0.1468740552663803,0.3855839371681213,0.0009765625,0.93408203125,0.33837890625,0.5297844409942627,0.7224891781806946,-5.280729169498954e-07,0.4652785062789917,0.6738886833190918,0.0003212150477338,0.4352627992630005,0.5912120342254639,0.0054349438287317,0.4432449042797088,0.519681990146637,0.0030272244475781,0.472987949848175,0.4883741438388824,0.0036383371334522,0.5055449604988098,0.5055590867996216,0.0406575575470924,0.5108003616333008,0.4215372800827026,0.0242412369698286,0.4934543669223785,0.4413625299930572,0.009033721871674,0.4899736046791076,0.4861555099487304,0.002810938982293,0.5327914357185364,0.499424546957016,0.0314344875514507,0.5402892827987671,0.3997035026550293,0.0104633271694183,0.5178737044334412,0.4358189702033996,-0.0026365232188254,0.5153518915176392,0.4916692674160003,-0.0025894667487591,0.562235951423645,0.499683141708374,0.0171654894948005,0.5680519342422485,0.3986474871635437,0.0001003910656436,0.5452548265457153,0.4340090751647949,-0.0022375369444489,0.5441505312919617,0.4886131882667541,0.0042733349837362,0.5964537262916565,0.5099962949752808,0.0013409479288384,0.5991824269294739,0.4248448610305786,-0.0072124768048524,0.5772737264633179,0.4386901259422302,-0.0044109830632805,0.5694960951805115,0.4825725555419922,0.0023978557437658
2023-08-01 15:56:08.321853,37,642,0.6753321290016174,0.6107831001281738,-0.1472183018922805,0.3862608671188354,0.0205078125,0.94873046875,0.35595703125,0.5300007462501526,0.7245633602142334,-5.324485528035439e-07,0.465273380279541,0.6734640002250671,0.0002866856812033,0.4348745942115783,0.5920655131340027,0.0045456439256668,0.4430169463157654,0.520458996295929,0.0009822499705478,0.4727991223335266,0.488542377948761,0.0003948693629354,0.5051371455192566,0.5042338967323303,0.0403160490095615,0.5117022395133972,0.4193132221698761,0.0227397195994853,0.4944412112236023,0.4411551654338836,0.0071292854845523,0.4909359812736511,0.4872758984565735,0.000819181848783,0.5329171419143677,0.4993290901184082,0.0304597448557615,0.5428730845451355,0.3985055088996887,0.0077550807036459,0.520678699016571,0.4362278282642364,-0.0060805482789874,0.5178306102752686,0.4936753213405609,-0.0060782344080507,0.5625678896903992,0.500943660736084,0.0155233945697546,0.5704114437103271,0.4008296728134155,-0.0028801055159419,0.5479579567909241,0.4377051591873169,-0.0055315634235739,0.5464322566986084,0.4934926033020019,0.0012114782584831,0.5968911051750183,0.5128418803215027,-0.0009656597394496,0.5996789932250977,0.4277628064155578,-0.010542657226324,0.5778369903564453,0.4429013431072235,-0.0079456297680735,0.5699522495269775,0.4883127212524414,-0.0009439938585273
2023-08-01 15:56:08.368004,38,643,0.6748051643371582,0.6108894944190979,-0.1481553465127945,0.3866548836231231,0.01806640625,0.93359375,0.365234375,0.529356062412262,0.7219629287719727,-5.417907686933177e-07,0.4652975499629974,0.6703682541847229,0.0008935735095292,0.435123473405838,0.5904777646064758,0.0053956690244376,0.4435373544692993,0.5191871523857117,0.0020245576743036,0.4739770591259002,0.4887591004371643,0.0015824724687263,0.5052737593650818,0.5047656893730164,0.0406586676836013,0.5103312730789185,0.4204946160316467,0.0233402140438556,0.4942210912704468,0.4435001015663147,0.0074433228000998,0.492053210735321,0.4905884861946106,0.0009913905523717,0.5328530669212341,0.499474823474884,0.0308975595980882,0.5416945815086365,0.3991968929767608,0.0087455576285719,0.5213116407394409,0.4383206069469452,-0.0053114513866603,0.5200799703598022,0.4960371553897857,-0.0055629364214837,0.5624969005584717,0.4997759461402893,0.0162372421473264,0.5695624947547913,0.4005181491374969,-0.0009790286421775,0.5489678382873535,0.438379168510437,-0.0032574790529906,0.5494410395622253,0.4939016699790954,0.003442081157118,0.5965996980667114,0.5099560618400574,3.415683750063181e-05,0.5996244549751282,0.4251103699207306,-0.007981969974935,0.5794427394866943,0.4405515789985657,-0.0044943201355636,0.5736116766929626,0.4852361679077148,0.0028992984443902
2023-08-01 15:56:08.415105,39,644,0.6744679808616638,0.6112264394760132,-0.1490075588226318,0.3863831460475921,0.00634765625,0.912109375,0.35546875,0.5298405885696411,0.7217698097229004,-5.418891078079469e-07,0.4654617011547088,0.6720634698867798,0.0001530894223833,0.4344366490840912,0.5916411876678467,0.0044194809161126,0.4425120949745178,0.5205732583999634,0.0009810116607695,0.4730791449546814,0.4900153279304504,0.0005417327629402,0.5041705965995789,0.505953848361969,0.0389507338404655,0.5091952085494995,0.4225454926490783,0.0213146973401308,0.4932397007942199,0.4447013735771179,0.0057709738612174,0.4915746748447418,0.4908270835876465,-0.0004241590213496,0.532343327999115,0.5003310441970825,0.0292616002261638,0.5413564443588257,0.3996226787567138,0.006534734275192,0.519741952419281,0.4377098977565765,-0.0068228691816329,0.5178818106651306,0.4954663515090942,-0.0064075356349349,0.5623131990432739,0.5010753273963928,0.0145866470411419,0.5698060393333435,0.4011219143867492,-0.0035282054450362,0.5480849742889404,0.4377400875091553,-0.0055698896758258,0.5480064153671265,0.4932632744312286,0.0016083458904176,0.596509575843811,0.512273371219635,-0.0016721022548153,0.5999490022659302,0.4263887405395508,-0.0105734691023826,0.5784754753112793,0.4402989745140075,-0.0074286255985498,0.5711409449577332,0.4849382042884826,-0.0001075352920452
2023-08-01 15:56:08.464062,40,645,0.6743111610412598,0.6115559339523315,-0.1494966894388198,0.3859463930130005,-0.00439453125,0.91357421875,0.34326171875,0.5305880904197693,0.7201178073883057,-5.193565471017791e-07,0.4658038020133972,0.6733525395393372,-0.0020367274992167,0.433716356754303,0.5922409296035767,0.0012361789122223,0.4414631426334381,0.519688606262207,-0.0026810781564563,0.4731962084770202,0.4889576435089111,-0.0034307721070945,0.503725528717041,0.5049612522125244,0.0365929082036018,0.5084391236305237,0.421378344297409,0.0190120842307806,0.4923405647277832,0.442990630865097,0.0034916254226118,0.490443468093872,0.4888876080513,-0.002902420470491,0.5317953824996948,0.4985881447792053,0.0278771128505468,0.5400817394256592,0.3991345167160034,0.0059871273115277,0.5189363956451416,0.4360184371471405,-0.0066657764837145,0.5175856947898865,0.4923546314239502,-0.0062883999198675,0.5617094039916992,0.4989529252052307,0.0139930928125977,0.568027675151825,0.3986019492149353,-0.0036903826985508,0.5468224883079529,0.4338273108005523,-0.0053260307759046,0.5473267436027527,0.4880666732788086,0.0016246528830379,0.5959899425506592,0.5097359418869019,-0.0017113386420533,0.5992087125778198,0.4237947463989258,-0.0108593869954347,0.5780651569366455,0.4383542537689209,-0.0077373413369059,0.5711450576782227,0.4833239912986755,-0.0006480126176029
2023-08-01 15:56:08.524321,41,646,0.6747829914093018,0.6113702058792114,-0.1500745415687561,0.3851910531520843,-0.00146484375,0.91162109375,0.34130859375,0.5287238955497742,0.7162786722183228,-5.300253747009265e-07,0.4654808342456817,0.6674266457557678,-0.0008377232006751,0.4351851940155029,0.5868467688560486,0.0031614901963621,0.4425354599952698,0.516627848148346,-0.0001815863943193,0.4736856818199157,0.4874612689018249,-0.0004736366099677,0.5056836009025574,0.5003845691680908,0.0379158519208431,0.5114976167678833,0.4165096580982208,0.0204714220017194,0.4917223751544952,0.4369068741798401,0.0053116474300622,0.4865439832210541,0.4824323654174804,-0.0007860606419853,0.5329659581184387,0.4948667585849762,0.0287286303937435,0.541590690612793,0.3945895433425903,0.0065411659888923,0.5174959301948547,0.4309461414813995,-0.0059632104821503,0.5140847563743591,0.487631231546402,-0.0051828469149768,0.5625469088554382,0.496257871389389,0.0144426105543971,0.5692954063415527,0.3959132134914398,-0.0040387897752225,0.5455069541931152,0.4322945475578308,-0.0057628233917057,0.5439938902854919,0.4874544143676758,0.0015380218392238,0.5963842272758484,0.5088475942611694,-0.0014854548498988,0.6001664996147156,0.4242194294929504,-0.0116469273343682,0.5773838758468628,0.4400634467601776,-0.0089696235954761,0.5689606666564941,0.4856332838535309,-0.0019380331505089
2023-08-01 15:56:08.573766,42,647,0.6751124262809753,0.6112906336784363,-0.1499639600515365,0.3847829699516296,0.001953125,0.923828125,0.3486328125,0.5311653017997742,0.7147473096847534,-5.336606250239129e-07,0.4679064750671386,0.6653478741645813,1.7923974155564792e-05,0.4376052618026733,0.584928035736084,0.0043556415475904,0.4450376331806183,0.5145591497421265,0.0012454834068194,0.4750217199325561,0.4847976267337799,0.0014293985441327,0.5076717734336853,0.5008034706115723,0.0391303859651088,0.5127056241035461,0.4151466786861419,0.0220106430351734,0.4958444833755493,0.4377150535583496,0.0063746385276317,0.4927060604095459,0.4847643673419952,-5.769647486886242e-06,0.5345213413238525,0.4952947795391083,0.0302079394459724,0.5426391959190369,0.3931743502616882,0.0089716603979468,0.5214415788650513,0.4301361441612243,-0.0044881594367325,0.519213080406189,0.4876713156700134,-0.0047267884947359,0.5641025304794312,0.4961864948272705,0.0163469351828098,0.5700886845588684,0.3938292860984802,-0.0002479165850672,0.548920214176178,0.4292751848697662,-0.0026997609529644,0.5490174293518066,0.4849262833595276,0.0035374562721699,0.5987318754196167,0.5075222849845886,0.0008578374399803,0.6021981239318848,0.4230802655220032,-0.0076926657930016,0.5804266333580017,0.4365637004375458,-0.0054124454036355,0.5725592970848083,0.481056809425354,0.0010043469956144
2023-08-01 15:56:08.634425,43,648,0.6756560802459717,0.6109140515327454,-0.1485540866851806,0.3849734961986542,-0.0068359375,0.9404296875,0.34375,0.5322685241699219,0.7153580188751221,-5.41407985110709e-07,0.4678232967853546,0.6669940948486328,-0.0005027463776059,0.4377305209636688,0.5864110589027405,0.0037873836699873,0.4450283944606781,0.516105055809021,0.0007817426230758,0.474312424659729,0.4849146604537964,0.0009970556711778,0.5081503987312317,0.5008634328842163,0.0376448929309845,0.5140591859817505,0.4148484468460083,0.0202599354088306,0.4966401159763336,0.4362096488475799,0.0048626298084855,0.4927705228328705,0.4820885062217712,-0.0013210308970883,0.5351223349571228,0.4954734742641449,0.0288044940680265,0.5433186292648315,0.3940709233283996,0.0071753840893507,0.52165287733078,0.430855244398117,-0.0058640474453568,0.5192826390266418,0.4875289499759674,-0.0058475867845118,0.5646206736564636,0.4961087107658386,0.0149806812405586,0.572095513343811,0.3933543264865875,-0.0023324599023908,0.5496336817741394,0.4282659292221069,-0.0047331280075013,0.5481160879135132,0.483559101819992,0.001585449790582,0.599120557308197,0.5069471597671509,-0.0004617448721546,0.6034266352653503,0.4212610423564911,-0.0097379377111792,0.581165611743927,0.435044527053833,-0.0075185652822256,0.5718759298324585,0.4805919229984283,-0.0010879648616537
2023-08-01 15:56:08.681974,44,649,0.6758629083633423,0.6105484962463379,-0.1484033614397049,0.3852483630180359,0.01025390625,0.9384765625,0.3564453125,0.5340700149536133,0.7170882225036621,-5.363687591852795e-07,0.4689140021800995,0.6682648658752441,-0.0014469415182247,0.4375432431697845,0.5876402854919434,0.0019600752275437,0.4453174769878387,0.5164546966552734,-0.0018327703000977,0.4753033816814422,0.4859759211540222,-0.0024549823720008,0.507614254951477,0.5005183219909668,0.0361205227673053,0.5136517286300659,0.4146385788917541,0.0176519211381673,0.4972935020923614,0.4379646182060241,0.0017690020613372,0.4942161738872528,0.4842789471149444,-0.0046047647483646,0.535080075263977,0.4950189888477325,0.0272865202277898,0.5435950756072998,0.3937620520591736,0.004648886155337,0.5221483111381531,0.4315468668937683,-0.0084942672401666,0.5197479128837585,0.4880272150039673,-0.008346683345735,0.5647961497306824,0.495981216430664,0.0133362868800759,0.5722562670707703,0.3941445350646972,-0.0051153856329619,0.5500918626785278,0.4296458959579468,-0.0077543584629893,0.5486204028129578,0.4846955239772796,-0.0012581392657011,0.5992915630340576,0.5071520209312439,-0.0022660356480628,0.6028040051460266,0.4216604828834533,-0.0122447423636913,0.581121027469635,0.4360479116439819,-0.0101680485531687,0.5726295709609985,0.4812590181827545,-0.0036475947126746
2023-08-01 15:56:08.728199,45,650,0.6759921908378601,0.6103817224502563,-0.147982582449913,0.3854475617408752,0.01708984375,0.947265625,0.3466796875,0.5341104865074158,0.7186765670776367,-5.28929888332641e-07,0.4700216650962829,0.6700825691223145,-0.0024366930592805,0.4377762675285339,0.5882617235183716,0.0002159784489776,0.4445709884166717,0.5160107016563416,-0.0042508142068982,0.4760563373565674,0.4857435822486877,-0.0054481993429362,0.5084861516952515,0.5023557543754578,0.035673726350069,0.5133150219917297,0.4163498878479004,0.0171120725572109,0.496669054031372,0.4400032162666321,0.0010954021709039,0.4941548705101013,0.4867591261863708,-0.0054697296582162,0.5357968807220459,0.4965461492538452,0.0271419920027256,0.5431644916534424,0.3954254984855652,0.0043795746751129,0.5220410227775574,0.4338021278381347,-0.0087587898597121,0.5205385088920593,0.4903900623321533,-0.0085615692660212,0.5656308531761169,0.4968590140342712,0.0134191811084747,0.5713719725608826,0.3951697945594787,-0.0048594181425869,0.5496646165847778,0.431397408246994,-0.0070197856985032,0.5490114688873291,0.4864130318164825,-0.0002357414341531,0.599994957447052,0.5073808431625366,-0.0021113133989274,0.6019390225410461,0.4222958981990814,-0.0116615546867251,0.5804092884063721,0.4379801750183105,-0.0090230843052268,0.5727670788764954,0.4837155044078827,-0.0021708395797759
2023-08-01 15:56:08.790142,46,651,0.6759193539619446,0.6098042130470276,-0.1482970565557479,0.3863675892353058,0.0185546875,0.9345703125,0.36083984375,0.5337908864021301,0.7197826504707336,-5.301924943523773e-07,0.4687971174716949,0.6712120771408081,-0.0016093550948426,0.4374573230743408,0.5903502702713013,0.0015113010304048,0.4452983736991882,0.5185120105743408,-0.0025609286967664,0.4758700132369995,0.4866691529750824,-0.0036109562497586,0.5079720616340637,0.504148006439209,0.0354333780705928,0.5135749578475952,0.4178421199321747,0.017045009881258,0.4969817399978637,0.4396190047264099,0.0012479964643716,0.4946963191032409,0.4855307340621948,-0.0052553713321685,0.5350303649902344,0.498127669095993,0.0264991838485002,0.542922854423523,0.396705150604248,0.0035747580695897,0.5218854546546936,0.4344870448112488,-0.0096979960799217,0.5209563970565796,0.4909456372261047,-0.0096784317865967,0.564748227596283,0.4984086751937866,0.0125252194702625,0.5712965726852417,0.3954976201057434,-0.0063530756160616,0.5493329167366028,0.4313019216060638,-0.0089217778295278,0.5488899946212769,0.4865674376487732,-0.0024122954346239,0.5990845561027527,0.5090954899787903,-0.0030997954308986,0.6014916896820068,0.4233649671077728,-0.0138404415920376,0.579923152923584,0.4393783211708069,-0.0117875300347805,0.5724413394927979,0.4862738847732544,-0.0052169864065945
2023-08-01 15:56:08.852201,47,652,0.6760716438293457,0.6095223426818848,-0.1478374451398849,0.3867218196392059,0.0107421875,0.91796875,0.35009765625,0.5336452722549438,0.7226831316947937,-5.249804644336109e-07,0.4686239361763,0.6733958125114441,-0.0017507437150925,0.4372175335884094,0.5914016366004944,0.0014368861448019,0.4450207650661468,0.5194811820983887,-0.0028114889282733,0.4757487177848816,0.4880907833576202,-0.0042123445309698,0.5065123438835144,0.5049768090248108,0.0369263663887977,0.5115021467208862,0.4200912714004516,0.0187599770724773,0.4957473874092102,0.4422135055065155,0.0029193270020186,0.4937525689601898,0.4878424704074859,-0.0036152889952063,0.5339109897613525,0.4986931383609772,0.027781993150711,0.5416777729988098,0.3978188633918762,0.0047258427366614,0.5210292339324951,0.4356824159622192,-0.0090189334005117,0.519636869430542,0.4925971925258636,-0.0091253304854035,0.5639258623123169,0.4989841282367706,0.0134885990992188,0.5704725384712219,0.3973159492015838,-0.0058229272253811,0.5490246415138245,0.4340268969535827,-0.008999103680253,0.5483213067054749,0.4901697337627411,-0.0026055502239614,0.5986284613609314,0.5096835494041443,-0.0024552752729505,0.6006256341934204,0.4245703816413879,-0.0132242683321237,0.5794750452041626,0.4409380853176117,-0.0112704643979668,0.5719757080078125,0.4882162511348724,-0.0046802530996501
2023-08-01 15:56:08.899179,48,653,0.676120400428772,0.6096197962760925,-0.1476728171110153,0.3865458071231842,0.0068359375,0.92138671875,0.35400390625,0.530305802822113,0.7205180525779724,-5.211492748458113e-07,0.4668603837490082,0.6731894016265869,-0.0031266063451766,0.4347277879714966,0.5918874740600586,-0.0012108105001971,0.4423002004623413,0.5197378993034363,-0.0064628678373992,0.4728387594223022,0.4890478551387787,-0.0088253812864422,0.5030667781829834,0.5033806562423706,0.0333041809499263,0.5070048570632935,0.4185723662376404,0.0145023306831717,0.4914561510086059,0.4417819380760193,-0.0012103618355467,0.4903331696987152,0.4868293404579162,-0.0077719273976981,0.5319278240203857,0.4974946081638336,0.0242426842451095,0.5398619771003723,0.3968375325202942,0.0006901494925841,0.5193248987197876,0.436197817325592,-0.0122399926185607,0.5182255506515503,0.4923958778381347,-0.011884112842381,0.562200129032135,0.4986239373683929,0.0100579299032688,0.569380521774292,0.397916704416275,-0.0092896735295653,0.547753632068634,0.4351941347122192,-0.0109800472855567,0.5469220280647278,0.4898787140846252,-0.0037929853424429,0.5965203046798706,0.5105146169662476,-0.0059418622404336,0.5990082025527954,0.4257340431213379,-0.0161087345331907,0.5777962803840637,0.4407601952552795,-0.0132338143885135,0.5703239440917969,0.4850807785987854,-0.0062393951229751
2023-08-01 15:56:08.944949,49,654,0.6764291524887085,0.6098373532295227,-0.1471312046051025,0.385868489742279,-0.00830078125,0.9111328125,0.3564453125,0.5308219790458679,0.7199211716651917,-5.50404195109877e-07,0.4672648310661316,0.6730043292045593,-0.0014341251226142,0.4354647397994995,0.5907006859779358,0.0019915855955332,0.4413893818855285,0.5182220935821533,-0.0017448954749852,0.471636027097702,0.4875822961330414,-0.0022320367861539,0.5055119395256042,0.5017096400260925,0.0357639379799366,0.5107477307319641,0.4167685806751251,0.017529247328639,0.4938652217388153,0.4411602318286896,0.0022591708693653,0.4916179180145263,0.4883922934532165,-0.0038000231143087,0.5334042310714722,0.4958048164844513,0.0266631990671157,0.5411920547485352,0.3955983221530914,0.0039301910437643,0.5194658041000366,0.4346346259117126,-0.0084358947351574,0.5178064107894897,0.4914230108261108,-0.0075569339096546,0.5632370114326477,0.4967232048511505,0.0124605670571327,0.5694761276245117,0.3978736400604248,-0.0060456441715359,0.5474209785461426,0.4349786639213562,-0.0076612881384789,0.5468394756317139,0.4891542494297027,-0.0004395863797981,0.597270131111145,0.5084084272384644,-0.0034355814568698,0.5993146896362305,0.4243194460868835,-0.0134385656565427,0.5775929093360901,0.4408398866653442,-0.010799947194755,0.570144772529602,0.4861834347248077,-0.0038661328144371
2023-08-01 15:56:08.992816,50,655,0.6764295101165771,0.610141932964325,-0.1466860771179199,0.3855557441711426,-0.001953125,0.92333984375,0.34619140625,0.5324772000312805,0.7196941375732422,-5.419134936346381e-07,0.4685382843017578,0.6716334819793701,-0.0013280768180266,0.43651282787323,0.5903365612030029,0.0017760016489773,0.4431557655334472,0.5184171795845032,-0.0024794382043182,0.4733209311962127,0.4868874549865722,-0.003524555126205,0.5060904622077942,0.5028183460235596,0.036087941378355,0.5109034180641174,0.4163445830345154,0.0176863893866539,0.4939934909343719,0.4397940039634704,0.0019583611283451,0.4916628301143646,0.4872868359088897,-0.0043830792419612,0.5335092544555664,0.4968003630638122,0.0269121211022138,0.5410584807395935,0.3956800103187561,0.0041563431732356,0.5199277400970459,0.4348304271697998,-0.0085941953584551,0.5188461542129517,0.4919226169586181,-0.0081001920625567,0.5632926821708679,0.497289627790451,0.0126465130597352,0.5691695809364319,0.3954842686653137,-0.0056226896122097,0.5473403334617615,0.4325622618198395,-0.0071079805493354,0.5470818281173706,0.4874799251556396,8.73187673278153e-05,0.5976399183273315,0.5081616044044495,-0.0033511319197714,0.6005875468254089,0.4223532080650329,-0.0131275029852986,0.5787460803985596,0.4388187527656555,-0.0101374434307217,0.5708699822425842,0.4851826727390289,-0.0029839710332453
2023-08-01 15:56:09.055390,51,656,0.6767506003379822,0.6100370287895203,-0.1455064564943313,0.3856051564216614,-0.01123046875,0.9365234375,0.33154296875,0.5337088108062744,0.7218700647354126,-5.324413336893485e-07,0.4690911471843719,0.6719496250152588,-0.0020002762321382,0.4373772740364074,0.5895015597343445,0.0010687683243304,0.4441993534564972,0.5172238945960999,-0.003065931610763,0.4749618172645569,0.4865164160728454,-0.003936921712011,0.5070492029190063,0.5035977363586426,0.036121480166912,0.5131493806838989,0.4167536795139313,0.0175236947834491,0.4955784976482391,0.439784973859787,0.0019908177200704,0.492170125246048,0.4863533675670624,-0.0041861627250909,0.5344377756118774,0.4976714849472046,0.0273283496499061,0.542468249797821,0.395959198474884,0.0039066122844815,0.5210055708885193,0.4348676800727844,-0.0090410746634006,0.5194234251976013,0.4918082952499389,-0.0084221046417951,0.5642973780632019,0.4982101023197174,0.0133274812251329,0.5706119537353516,0.3957670927047729,-0.0057278876192867,0.5485715270042419,0.4325873255729675,-0.0079154428094625,0.5474871397018433,0.4878961145877838,-0.0009014272363856,0.5985558032989502,0.5091924071311951,-0.0024029614869505,0.6010117530822754,0.4243625700473785,-0.0130296908318996,0.5791881084442139,0.4405859708786011,-0.010978321544826,0.5713046789169312,0.4869980812072754,-0.0043271388858556
2023-08-01 15:56:09.113077,52,657,0.6773870587348938,0.609736979007721,-0.1439495235681533,0.3855466842651367,-0.0087890625,0.943359375,0.341796875,0.5344597697257996,0.7224441766738892,-5.30348188476637e-07,0.4712574183940887,0.6713451147079468,-0.000991083565168,0.441600352525711,0.5903079509735107,0.0028524675872176,0.4489823579788208,0.5193490386009216,-0.0010247010504826,0.4783931374549866,0.4879659116268158,-0.0018669449491426,0.5114079713821411,0.504635751247406,0.0400455482304096,0.5188999772071838,0.4194638729095459,0.0219326596707105,0.5003864765167236,0.4411701560020447,0.0062571815215051,0.4962356984615326,0.4879333972930908,9.53731723711826e-05,0.5392642617225647,0.4987592101097107,0.0304678566753864,0.5504211783409119,0.3956261873245239,0.00696183135733,0.5263621807098389,0.4313487410545349,-0.0068934699520468,0.521778404712677,0.4885874390602112,-0.0064872768707573,0.568856954574585,0.5002155900001526,0.0155374007299542,0.5793322920799255,0.3998761177062988,-0.0032653815578669,0.5547248721122742,0.4344511032104492,-0.0067989700473845,0.5507550835609436,0.4887710809707641,-0.0004392495029605,0.6026387810707092,0.5124475955963135,-0.0011053421767428,0.6068251132965088,0.4290787875652313,-0.0106425806879997,0.5836412906646729,0.4430243372917175,-0.0089493049308657,0.5736112594604492,0.4867989718914032,-0.0026652994565665
