Timestamp,w,x,y,z,ax,ay,az
2023-07-30T11:09:58.252309,0.07734592258930206,-0.9225091934204102,0.06450308859348297,0.3726038634777069,0.2548828125,1.48828125,-0.23193359375
2023-07-30T11:09:58.254304,0.07145822048187256,-0.9066295623779297,0.0447104349732399,0.41342172026634216,0.2548828125,1.48828125,-0.23193359375
2023-07-30T11:09:58.259640,0.07145822048187256,-0.9066295623779297,0.0447104349732399,0.41342172026634216,-0.1416015625,2.064453125,0.0458984375
2023-07-30T11:09:58.260638,0.9995631575584412,0.0038653607480227947,-0.025422951206564903,-0.014566929079592228,-0.1416015625,2.064453125,0.0458984375
2023-07-30T11:09:58.335441,0.9995631575584412,0.0038653607480227947,-0.025422951206564903,-0.014566929079592228,-0.396484375,0.47119140625,-0.12548828125
2023-07-30T11:09:58.335945,0.9993501305580139,0.004504072014242411,-0.033443160355091095,-0.012670939788222313,-0.396484375,0.47119140625,-0.12548828125
2023-07-30T11:09:58.343443,0.9993501305580139,0.004504072014242411,-0.033443160355091095,-0.012670939788222313,-0.21533203125,0.5673828125,-0.2763671875
2023-07-30T11:09:58.344441,0.9991759657859802,0.0050052013248205185,-0.03926995396614075,-0.00894396286457777,-0.21533203125,0.5673828125,-0.2763671875
2023-07-30T11:09:58.349986,0.9991759657859802,0.0050052013248205185,-0.03926995396614075,-0.00894396286457777,-0.17236328125,0.6181640625,-0.5322265625
2023-07-30T11:09:58.349986,0.99896240234375,0.010800736024975777,-0.0440690778195858,-0.003923572134226561,-0.17236328125,0.6181640625,-0.5322265625
2023-07-30T11:09:58.364408,0.99896240234375,0.010800736024975777,-0.0440690778195858,-0.003923572134226561,-0.09521484375,0.708984375,-0.6611328125
2023-07-30T11:09:58.365406,0.9984845519065857,0.019063852727413177,-0.051619064062833786,0.0008606891497038305,-0.09521484375,0.708984375,-0.6611328125
2023-07-30T11:09:58.387405,0.9984845519065857,0.019063852727413177,-0.051619064062833786,0.0008606891497038305,-0.15966796875,0.7373046875,-0.705078125
2023-07-30T11:09:58.389311,0.9977529644966125,0.028477933257818222,-0.06050653010606766,0.004107822198420763,-0.15966796875,0.7373046875,-0.705078125
2023-07-30T11:09:58.390310,0.9977529644966125,0.028477933257818222,-0.06050653010606766,0.004107822198420763,-0.2275390625,0.78369140625,-0.70068359375
2023-07-30T11:09:58.402655,0.9969191551208496,0.03389167785644531,-0.07057149708271027,0.004810088314116001,-0.2275390625,0.78369140625,-0.70068359375
2023-07-30T11:09:58.414186,0.9969191551208496,0.03389167785644531,-0.07057149708271027,0.004810088314116001,-0.43994140625,0.7060546875,-0.72314453125
2023-07-30T11:09:58.419240,0.9962745308876038,0.03851836547255516,-0.07700125873088837,0.004915910307317972,-0.43994140625,0.7060546875,-0.72314453125
2023-07-30T11:09:58.419240,0.9962745308876038,0.03851836547255516,-0.07700125873088837,0.004915910307317972,-0.48828125,0.52197265625,-0.5498046875
2023-07-30T11:09:58.420236,0.9953727722167969,0.04205019399523735,-0.08611041307449341,0.007061702199280262,-0.48828125,0.52197265625,-0.5498046875
2023-07-30T11:09:58.424225,0.9953727722167969,0.04205019399523735,-0.08611041307449341,0.007061702199280262,-0.46728515625,0.57275390625,-0.3818359375
2023-07-30T11:09:58.425222,0.9948268532752991,0.04576488211750984,-0.09024082869291306,0.009040146134793758,-0.46728515625,0.57275390625,-0.3818359375
2023-07-30T11:09:58.425222,0.9948268532752991,0.04576488211750984,-0.09024082869291306,0.009040146134793758,-0.48779296875,0.54052734375,-0.45654296875
2023-07-30T11:09:58.432443,0.9942837357521057,0.049890682101249695,-0.0934954434633255,0.013010988011956215,-0.48779296875,0.54052734375,-0.45654296875
2023-07-30T11:09:58.432443,0.9942837357521057,0.049890682101249695,-0.0934954434633255,0.013010988011956215,-0.34228515625,0.5869140625,-0.544921875
2023-07-30T11:09:58.439456,0.9941477179527283,0.05465902015566826,-0.0915813073515892,0.017190469428896904,-0.34228515625,0.5869140625,-0.544921875
2023-07-30T11:09:58.446366,0.9941477179527283,0.05465902015566826,-0.0915813073515892,0.017190469428896904,-0.2392578125,0.59375,-0.6416015625
2023-07-30T11:09:58.447727,0.9939676523208618,0.059803616255521774,-0.08921908587217331,0.022174982354044914,-0.2392578125,0.59375,-0.6416015625
2023-07-30T11:09:58.447727,0.9939676523208618,0.059803616255521774,-0.08921908587217331,0.022174982354044914,-0.17724609375,0.6123046875,-0.736328125
2023-07-30T11:09:58.456722,0.9937431216239929,0.06446685642004013,-0.08703000843524933,0.027284931391477585,-0.17724609375,0.6123046875,-0.736328125
2023-07-30T11:09:58.462709,0.9937431216239929,0.06446685642004013,-0.08703000843524933,0.027284931391477585,-0.208984375,0.73681640625,-0.8017578125
2023-07-30T11:09:58.462709,0.9933723211288452,0.06870242208242416,-0.08658041059970856,0.031546737998723984,-0.208984375,0.73681640625,-0.8017578125
2023-07-30T11:09:58.477255,0.9933723211288452,0.06870242208242416,-0.08658041059970856,0.031546737998723984,-0.19775390625,0.7568359375,-0.68701171875
2023-07-30T11:09:58.477255,0.9930769801139832,0.07201999425888062,-0.08604081720113754,0.034756921231746674,-0.19775390625,0.7568359375,-0.68701171875
2023-07-30T11:09:58.478616,0.9930769801139832,0.07201999425888062,-0.08604081720113754,0.034756921231746674,-0.17822265625,0.701171875,-0.66162109375
2023-07-30T11:09:58.484124,0.9926145672798157,0.0763077437877655,-0.08634515851736069,0.03792049363255501,-0.17822265625,0.701171875,-0.66162109375
2023-07-30T11:09:58.492134,0.9926145672798157,0.0763077437877655,-0.08634515851736069,0.03792049363255501,-0.22216796875,0.77197265625,-0.66455078125
2023-07-30T11:09:58.492134,0.9921502470970154,0.08052476495504379,-0.08638928830623627,0.04111556336283684,-0.22216796875,0.77197265625,-0.66455078125
2023-07-30T11:09:58.500205,0.9921502470970154,0.08052476495504379,-0.08638928830623627,0.04111556336283684,-0.17626953125,0.7470703125,-0.5673828125
2023-07-30T11:09:58.501202,0.9916648864746094,0.0849200189113617,-0.08584433794021606,0.04494423791766167,-0.17626953125,0.7470703125,-0.5673828125
2023-07-30T11:09:58.507208,0.9916648864746094,0.0849200189113617,-0.08584433794021606,0.04494423791766167,-0.12353515625,0.80859375,-0.61376953125
2023-07-30T11:09:58.508210,0.990915834903717,0.09021113067865372,-0.08714552223682404,0.04851055517792702,-0.12353515625,0.80859375,-0.61376953125
2023-07-30T11:09:58.531760,0.990915834903717,0.09021113067865372,-0.08714552223682404,0.04851055517792702,-0.14404296875,0.9287109375,-0.67431640625
2023-07-30T11:09:58.532758,0.9905975461006165,0.09346026927232742,-0.08614510297775269,0.050603464245796204,-0.14404296875,0.9287109375,-0.67431640625
2023-07-30T11:09:58.533755,0.9905975461006165,0.09346026927232742,-0.08614510297775269,0.050603464245796204,-0.072265625,0.85888671875,-0.66650390625
2023-07-30T11:09:58.549808,0.9904419779777527,0.09555341303348541,-0.08478229492902756,0.052021969109773636,-0.072265625,0.85888671875,-0.66650390625
2023-07-30T11:09:58.550805,0.9904419779777527,0.09555341303348541,-0.08478229492902756,0.052021969109773636,-0.0693359375,0.8681640625,-0.71533203125
2023-07-30T11:09:58.551802,0.9903343319892883,0.09743111580610275,-0.08361764252185822,0.05247009918093681,-0.0693359375,0.8681640625,-0.71533203125
2023-07-30T11:09:58.555305,0.9903343319892883,0.09743111580610275,-0.08361764252185822,0.05247009918093681,-0.09765625,0.8681640625,-0.74365234375
2023-07-30T11:09:58.555305,0.9902316331863403,0.09936382621526718,-0.08295485377311707,0.05183202028274536,-0.09765625,0.8681640625,-0.74365234375
2023-07-30T11:09:58.562799,0.9902316331863403,0.09936382621526718,-0.08295485377311707,0.05183202028274536,-0.11376953125,0.8740234375,-0.7666015625
2023-07-30T11:09:58.565305,0.9900566935539246,0.10170866549015045,-0.08335493505001068,0.049951259046792984,-0.11376953125,0.8740234375,-0.7666015625
2023-07-30T11:09:58.575305,0.9900566935539246,0.10170866549015045,-0.08335493505001068,0.049951259046792984,-0.12548828125,0.84423828125,-0.73291015625
2023-07-30T11:09:58.576810,0.989883303642273,0.10381291806697845,-0.08429720252752304,0.047412481158971786,-0.12548828125,0.84423828125,-0.73291015625
2023-07-30T11:09:58.583321,0.989883303642273,0.10381291806697845,-0.08429720252752304,0.047412481158971786,-0.14697265625,0.79052734375,-0.67138671875
2023-07-30T11:09:58.584318,0.9897627234458923,0.10541101545095444,-0.08516295254230499,0.04478266090154648,-0.14697265625,0.79052734375,-0.67138671875
2023-07-30T11:09:58.590328,0.9897627234458923,0.10541101545095444,-0.08516295254230499,0.04478266090154648,-0.19384765625,0.75341796875,-0.6201171875
2023-07-30T11:09:58.612329,0.9897227883338928,0.10648486763238907,-0.08551552146673203,0.0423893928527832,-0.19384765625,0.75341796875,-0.6201171875
2023-07-30T11:09:58.613327,0.9897227883338928,0.10648486763238907,-0.08551552146673203,0.0423893928527832,-0.21826171875,0.70654296875,-0.58837890625
2023-07-30T11:09:58.615321,0.9897878766059875,0.10702601820230484,-0.0849975049495697,0.040505632758140564,-0.21826171875,0.70654296875,-0.58837890625
2023-07-30T11:09:58.616330,0.9897878766059875,0.10702601820230484,-0.0849975049495697,0.040505632758140564,-0.232421875,0.67578125,-0.5830078125
2023-07-30T11:09:58.617426,0.9900173544883728,0.10635458678007126,-0.08366294205188751,0.039431728422641754,-0.232421875,0.67578125,-0.5830078125
2023-07-30T11:09:58.661329,0.9900173544883728,0.10635458678007126,-0.08366294205188751,0.039431728422641754,-0.2373046875,0.6259765625,-0.548828125
2023-07-30T11:09:58.662325,0.9904389977455139,0.10450517386198044,-0.08088115602731705,0.039591073989868164,-0.2373046875,0.6259765625,-0.548828125
2023-07-30T11:09:58.663323,0.9904389977455139,0.10450517386198044,-0.08088115602731705,0.039591073989868164,-0.26318359375,0.56884765625,-0.47412109375
2023-07-30T11:09:58.664320,0.9910547137260437,0.10175929218530655,-0.07590888440608978,0.04115299507975578,-0.26318359375,0.56884765625,-0.47412109375
2023-07-30T11:09:58.667428,0.9910547137260437,0.10175929218530655,-0.07590888440608978,0.04115299507975578,-0.25146484375,0.60595703125,-0.51025390625
2023-07-30T11:09:58.668341,0.9917631149291992,0.09864287823438644,-0.06935953348875046,0.04318292811512947,-0.25146484375,0.60595703125,-0.51025390625
2023-07-30T11:09:58.669339,0.9917631149291992,0.09864287823438644,-0.06935953348875046,0.04318292811512947,-0.1982421875,0.642578125,-0.5830078125
2023-07-30T11:09:58.670337,0.9925211668014526,0.09543469548225403,-0.06160518154501915,0.04470750689506531,-0.1982421875,0.642578125,-0.5830078125
2023-07-30T11:09:58.670337,0.9925211668014526,0.09543469548225403,-0.06160518154501915,0.04470750689506531,-0.16455078125,0.60546875,-0.5908203125
2023-07-30T11:09:58.672332,0.993398904800415,0.09087523072957993,-0.05242324247956276,0.04639161378145218,-0.16455078125,0.60546875,-0.5908203125
2023-07-30T11:09:58.672332,0.993398904800415,0.09087523072957993,-0.05242324247956276,0.04639161378145218,-0.224609375,0.576171875,-0.603515625
2023-07-30T11:09:58.673329,0.994475245475769,0.08335332572460175,-0.04170898720622063,0.04828602820634842,-0.224609375,0.576171875,-0.603515625
2023-07-30T11:09:58.687246,0.994475245475769,0.08335332572460175,-0.04170898720622063,0.04828602820634842,-0.36181640625,0.60693359375,-0.701171875
2023-07-30T11:09:58.688254,0.9956388473510742,0.0723126083612442,-0.030588647350668907,0.050383325666189194,-0.36181640625,0.60693359375,-0.701171875
2023-07-30T11:09:58.689251,0.9956388473510742,0.0723126083612442,-0.030588647350668907,0.050383325666189194,-0.4169921875,0.5146484375,-0.61328125
2023-07-30T11:09:58.695236,0.9967679381370544,0.05839008465409279,-0.016192231327295303,0.052744440734386444,-0.4169921875,0.5146484375,-0.61328125
2023-07-30T11:09:58.695236,0.9967679381370544,0.05839008465409279,-0.016192231327295303,0.052744440734386444,-0.44140625,0.41455078125,-0.525390625
2023-07-30T11:09:58.696447,0.997645378112793,0.03835328668355942,0.0018564986530691385,0.05682716146111488,-0.44140625,0.41455078125,-0.525390625
2023-07-30T11:09:58.709761,0.997645378112793,0.03835328668355942,0.0018564986530691385,0.05682716146111488,-0.501953125,0.41357421875,-0.56982421875
2023-07-30T11:09:58.710758,0.9975605607032776,0.014345083385705948,0.023321053013205528,0.06421296298503876,-0.501953125,0.41357421875,-0.56982421875
2023-07-30T11:09:58.718761,0.9975605607032776,0.014345083385705948,0.023321053013205528,0.06421296298503876,-0.53271484375,0.41650390625,-0.63134765625
2023-07-30T11:09:58.718761,0.9960852861404419,-0.015455490909516811,0.04687189310789108,0.07333623617887497,-0.53271484375,0.41650390625,-0.63134765625
2023-07-30T11:09:58.748760,0.9960852861404419,-0.015455490909516811,0.04687189310789108,0.07333623617887497,-0.521484375,0.4169921875,-0.57177734375
2023-07-30T11:09:58.748760,0.9924793839454651,-0.04839364066720009,0.07439057528972626,0.0843137726187706,-0.521484375,0.4169921875,-0.57177734375
2023-07-30T11:09:58.749757,0.9924793839454651,-0.04839364066720009,0.07439057528972626,0.0843137726187706,-0.34130859375,0.4619140625,-0.4755859375
2023-07-30T11:09:58.749757,0.9858531951904297,-0.0885431170463562,0.10332997143268585,0.09785930812358856,-0.34130859375,0.4619140625,-0.4755859375
2023-07-30T11:09:58.750755,0.9858531951904297,-0.0885431170463562,0.10332997143268585,0.09785930812358856,-0.25830078125,0.591796875,-0.45166015625
2023-07-30T11:09:58.750755,0.9764061570167542,-0.1289454847574234,0.13359743356704712,0.11025292426347733,-0.25830078125,0.591796875,-0.45166015625
2023-07-30T11:09:58.757320,0.9764061570167542,-0.1289454847574234,0.13359743356704712,0.11025292426347733,-0.0986328125,0.66064453125,-0.28369140625
2023-07-30T11:09:58.758317,0.9645864367485046,-0.16560004651546478,0.16515186429023743,0.12196071445941925,-0.0986328125,0.66064453125,-0.28369140625
2023-07-30T11:09:58.774291,0.9645864367485046,-0.16560004651546478,0.16515186429023743,0.12196071445941925,0.05419921875,0.5810546875,-0.1318359375
2023-07-30T11:09:58.781290,0.9503993391990662,-0.20084689557552338,0.1958303153514862,0.13435813784599304,0.05419921875,0.5810546875,-0.1318359375
2023-07-30T11:09:58.782288,0.9503993391990662,-0.20084689557552338,0.1958303153514862,0.13435813784599304,0.23486328125,0.42919921875,-0.0693359375
2023-07-30T11:09:58.783301,0.9353270530700684,-0.22971953451633453,0.22443866729736328,0.14838935434818268,0.23486328125,0.42919921875,-0.0693359375
2023-07-30T11:09:58.800315,0.9353270530700684,-0.22971953451633453,0.22443866729736328,0.14838935434818268,0.39990234375,0.25830078125,-0.15234375
2023-07-30T11:09:58.801312,0.9232296943664551,-0.24545803666114807,0.24526409804821014,0.1650538295507431,0.39990234375,0.25830078125,-0.15234375
2023-07-30T11:09:58.807321,0.9232296943664551,-0.24545803666114807,0.24526409804821014,0.1650538295507431,0.541015625,0.267578125,0.09130859375
2023-07-30T11:09:58.808322,0.912834107875824,-0.2533012628555298,0.25898247957229614,0.18841584026813507,0.541015625,0.267578125,0.09130859375
2023-07-30T11:09:58.808322,0.912834107875824,-0.2533012628555298,0.25898247957229614,0.18841584026813507,0.587890625,1.115234375,0.82373046875
2023-07-30T11:09:58.825468,0.9005734920501709,-0.2653436064720154,0.2740885019302368,0.20841221511363983,0.587890625,1.115234375,0.82373046875
2023-07-30T11:09:58.829976,0.9005734920501709,-0.2653436064720154,0.2740885019302368,0.20841221511363983,0.8857421875,1.2216796875,0.60546875
2023-07-30T11:09:58.849044,0.8871402740478516,-0.28341034054756165,0.28548917174339294,0.22617825865745544,0.8857421875,1.2216796875,0.60546875
2023-07-30T11:09:58.851039,0.8871402740478516,-0.28341034054756165,0.28548917174339294,0.22617825865745544,0.98193359375,1.19921875,0.634765625
2023-07-30T11:09:58.852037,0.8730300068855286,-0.30596616864204407,0.2944709360599518,0.23977068066596985,0.98193359375,1.19921875,0.634765625
2023-07-30T11:09:58.852037,0.8730300068855286,-0.30596616864204407,0.2944709360599518,0.23977068066596985,1.02294921875,1.05712890625,0.5126953125
2023-07-30T11:09:58.853033,0.8609814047813416,-0.32391029596328735,0.30397719144821167,0.24777208268642426,1.02294921875,1.05712890625,0.5126953125
2023-07-30T11:09:58.854031,0.8609814047813416,-0.32391029596328735,0.30397719144821167,0.24777208268642426,1.01611328125,0.9716796875,0.38330078125
2023-07-30T11:09:58.855538,0.8492400646209717,-0.34072330594062805,0.3124796152114868,0.25505945086479187,1.01611328125,0.9716796875,0.38330078125
2023-07-30T11:09:58.869123,0.8492400646209717,-0.34072330594062805,0.3124796152114868,0.25505945086479187,1.0224609375,0.896484375,0.36181640625
2023-07-30T11:09:58.870121,0.8365985155105591,-0.3606001138687134,0.3150433301925659,0.26611682772636414,1.0224609375,0.896484375,0.36181640625
2023-07-30T11:09:58.871118,0.8365985155105591,-0.3606001138687134,0.3150433301925659,0.26611682772636414,0.85498046875,0.982421875,0.49853515625
2023-07-30T11:09:58.872115,0.8227330446243286,-0.3834279477596283,0.31427398324012756,0.2780742943286896,0.85498046875,0.982421875,0.49853515625
2023-07-30T11:09:58.915663,0.8227330446243286,-0.3834279477596283,0.31427398324012756,0.2780742943286896,0.66943359375,0.97119140625,0.6279296875
2023-07-30T11:09:58.958750,0.809779703617096,-0.4045424163341522,0.31247615814208984,0.288029283285141,0.66943359375,0.97119140625,0.6279296875
2023-07-30T11:09:58.959747,0.809779703617096,-0.4045424163341522,0.31247615814208984,0.288029283285141,0.494140625,1.0595703125,0.65966796875
2023-07-30T11:09:58.960744,0.7969819903373718,-0.42229917645454407,0.3152673542499542,0.2951095700263977,0.494140625,1.0595703125,0.65966796875
2023-07-30T11:09:58.961740,0.7969819903373718,-0.42229917645454407,0.3152673542499542,0.2951095700263977,0.44140625,1.00244140625,0.671875
2023-07-30T11:09:58.963736,0.7857288718223572,-0.43499335646629333,0.3225431442260742,0.2989594042301178,0.44140625,1.00244140625,0.671875
2023-07-30T11:09:58.963736,0.7857288718223572,-0.43499335646629333,0.3225431442260742,0.2989594042301178,0.5068359375,0.86865234375,0.71044921875
2023-07-30T11:09:58.966745,0.7754331231117249,-0.44283920526504517,0.3326515257358551,0.3032160699367523,0.5068359375,0.86865234375,0.71044921875
2023-07-30T11:09:58.967744,0.7754331231117249,-0.44283920526504517,0.3326515257358551,0.3032160699367523,0.576171875,0.7421875,0.6962890625
2023-07-30T11:09:58.969740,0.7657247185707092,-0.4470802843570709,0.3442661464214325,0.30865150690078735,0.576171875,0.7421875,0.6962890625
2023-07-30T11:09:58.969740,0.7657247185707092,-0.4470802843570709,0.3442661464214325,0.30865150690078735,0.5810546875,0.71728515625,0.66015625
2023-07-30T11:09:58.971735,0.7571080923080444,-0.45067939162254333,0.35337987542152405,0.3143215775489807,0.5810546875,0.71728515625,0.66015625
2023-07-30T11:09:58.972732,0.7571080923080444,-0.45067939162254333,0.35337987542152405,0.3143215775489807,0.63525390625,0.7333984375,0.6142578125
2023-07-30T11:09:58.973740,0.7512691020965576,-0.45118778944015503,0.3617731034755707,0.3180321753025055,0.63525390625,0.7333984375,0.6142578125
2023-07-30T11:09:58.975248,0.7512691020965576,-0.45118778944015503,0.3617731034755707,0.3180321753025055,0.67724609375,0.67333984375,0.5927734375
2023-07-30T11:09:58.975248,0.7465547919273376,-0.4522407650947571,0.3673225939273834,0.3212607204914093,0.67724609375,0.67333984375,0.5927734375
2023-07-30T11:09:58.976248,0.7465547919273376,-0.4522407650947571,0.3673225939273834,0.3212607204914093,0.6572265625,0.73486328125,0.5771484375
2023-07-30T11:09:58.976754,0.7435633540153503,-0.45147863030433655,0.37292665243148804,0.3228099048137665,0.6572265625,0.73486328125,0.5771484375
2023-07-30T11:09:58.977753,0.7435633540153503,-0.45147863030433655,0.37292665243148804,0.3228099048137665,0.7001953125,0.787109375,0.51025390625
2023-07-30T11:09:58.980746,0.7416192293167114,-0.45092880725860596,0.3767520487308502,0.3236076831817627,0.7001953125,0.787109375,0.51025390625
2023-07-30T11:09:58.987249,0.7416192293167114,-0.45092880725860596,0.3767520487308502,0.3236076831817627,0.7021484375,0.86572265625,0.34619140625
2023-07-30T11:09:58.988275,0.742701530456543,-0.4496423304080963,0.37769845128059387,0.3218075931072235,0.7021484375,0.86572265625,0.34619140625
2023-07-30T11:09:59.056769,0.742701530456543,-0.4496423304080963,0.37769845128059387,0.3218075931072235,0.6953125,0.94091796875,0.23876953125
2023-07-30T11:09:59.062757,0.7474070191383362,-0.4476138651371002,0.37472307682037354,0.31718647480010986,0.6953125,0.94091796875,0.23876953125
2023-07-30T11:09:59.063753,0.7474070191383362,-0.4476138651371002,0.37472307682037354,0.31718647480010986,0.76416015625,0.76611328125,0.13720703125
2023-07-30T11:09:59.063753,0.7533929944038391,-0.45056554675102234,0.36423391103744507,0.31100356578826904,0.76416015625,0.76611328125,0.13720703125
2023-07-30T11:09:59.067771,0.7533929944038391,-0.45056554675102234,0.36423391103744507,0.31100356578826904,0.7861328125,0.65869140625,0.1123046875
2023-07-30T11:09:59.068768,0.7604657411575317,-0.4509788751602173,0.35194364190101624,0.30731990933418274,0.7861328125,0.65869140625,0.1123046875
2023-07-30T11:09:59.072757,0.7604657411575317,-0.4509788751602173,0.35194364190101624,0.30731990933418274,0.64892578125,0.984375,0.25048828125
2023-07-30T11:09:59.073755,0.7692392468452454,-0.4488111436367035,0.33992207050323486,0.30214646458625793,0.64892578125,0.984375,0.25048828125
2023-07-30T11:09:59.075263,0.7692392468452454,-0.4488111436367035,0.33992207050323486,0.30214646458625793,0.69189453125,0.9208984375,0.2421875
2023-07-30T11:09:59.075263,0.7799784541130066,-0.4459381699562073,0.3259611427783966,0.2941463589668274,0.69189453125,0.9208984375,0.2421875
2023-07-30T11:09:59.077772,0.7799784541130066,-0.4459381699562073,0.3259611427783966,0.2941463589668274,0.716796875,0.86279296875,0.28076171875
2023-07-30T11:09:59.079767,0.7921108603477478,-0.4421817362308502,0.31054458022117615,0.28389742970466614,0.716796875,0.86279296875,0.28076171875
2023-07-30T11:09:59.084287,0.7921108603477478,-0.4421817362308502,0.31054458022117615,0.28389742970466614,0.6923828125,0.84228515625,0.291015625
2023-07-30T11:09:59.085790,0.805530309677124,-0.4378535747528076,0.2932097911834717,0.27098575234413147,0.6923828125,0.84228515625,0.291015625
2023-07-30T11:09:59.110445,0.805530309677124,-0.4378535747528076,0.2932097911834717,0.27098575234413147,0.681640625,0.91259765625,0.3681640625
2023-07-30T11:09:59.110445,0.8189201951026917,-0.43760937452316284,0.2719474732875824,0.25280874967575073,0.681640625,0.91259765625,0.3681640625
2023-07-30T11:09:59.111443,0.8189201951026917,-0.43760937452316284,0.2719474732875824,0.25280874967575073,0.69384765625,0.8486328125,0.37890625
2023-07-30T11:09:59.112440,0.8305282592773438,-0.4442019760608673,0.24602143466472626,0.2288687527179718,0.69384765625,0.8486328125,0.37890625
2023-07-30T11:09:59.118723,0.8305282592773438,-0.4442019760608673,0.24602143466472626,0.2288687527179718,0.68310546875,0.693359375,0.36279296875
2023-07-30T11:09:59.120717,0.839056670665741,-0.4573666751384735,0.21659089624881744,0.1997198760509491,0.68310546875,0.693359375,0.36279296875
2023-07-30T11:09:59.121715,0.839056670665741,-0.4573666751384735,0.21659089624881744,0.1997198760509491,0.5234375,0.72998046875,0.25
2023-07-30T11:09:59.128715,0.8474923372268677,-0.4685606360435486,0.1852065771818161,0.16705194115638733,0.5234375,0.72998046875,0.25
2023-07-30T11:09:59.129714,0.8474923372268677,-0.4685606360435486,0.1852065771818161,0.16705194115638733,0.4365234375,0.6669921875,0.2236328125
2023-07-30T11:09:59.138737,0.8545778393745422,-0.47462543845176697,0.1587284803390503,0.13868185877799988,0.4365234375,0.6669921875,0.2236328125
2023-07-30T11:09:59.139735,0.8545778393745422,-0.47462543845176697,0.1587284803390503,0.13868185877799988,0.431640625,0.60107421875,0.34228515625
2023-07-30T11:09:59.140732,0.8620271682739258,-0.47480064630508423,0.13789403438568115,0.11161866784095764,0.431640625,0.60107421875,0.34228515625
2023-07-30T11:09:59.140732,0.8620271682739258,-0.47480064630508423,0.13789403438568115,0.11161866784095764,0.10546875,0.9931640625,0.6240234375
2023-07-30T11:09:59.159284,0.8658332824707031,-0.4766891896724701,0.122763991355896,0.08960511535406113,0.10546875,0.9931640625,0.6240234375
2023-07-30T11:09:59.159284,0.8658332824707031,-0.4766891896724701,0.122763991355896,0.08960511535406113,-0.076171875,0.75537109375,0.10986328125
2023-07-30T11:09:59.160281,0.8784666657447815,-0.45739859342575073,0.11884136497974396,0.07042431831359863,-0.076171875,0.75537109375,0.10986328125
2023-07-30T11:09:59.227324,0.8784666657447815,-0.45739859342575073,0.11884136497974396,0.07042431831359863,-0.08251953125,0.73974609375,0.2978515625
2023-07-30T11:09:59.228321,0.8906815052032471,-0.43727830052375793,0.1147732064127922,0.04797125980257988,-0.08251953125,0.73974609375,0.2978515625
2023-07-30T11:09:59.229318,0.8906815052032471,-0.43727830052375793,0.1147732064127922,0.04797125980257988,0.05859375,0.7021484375,0.65625
2023-07-30T11:09:59.230315,0.8987641334533691,-0.4219660758972168,0.11397493630647659,0.03431147709488869,0.05859375,0.7021484375,0.65625
2023-07-30T11:09:59.248576,0.8987641334533691,-0.4219660758972168,0.11397493630647659,0.03431147709488869,-0.05322265625,0.92333984375,0.4892578125
2023-07-30T11:09:59.249574,0.9038249850273132,-0.41046276688575745,0.11598441749811172,0.03418136388063431,-0.05322265625,0.92333984375,0.4892578125
2023-07-30T11:09:59.250572,0.9038249850273132,-0.41046276688575745,0.11598441749811172,0.03418136388063431,-0.158203125,0.90087890625,0.39111328125
2023-07-30T11:09:59.250572,0.9080638289451599,-0.4006034731864929,0.11733423918485641,0.0341988280415535,-0.158203125,0.90087890625,0.39111328125
2023-07-30T11:09:59.276367,0.9080638289451599,-0.4006034731864929,0.11733423918485641,0.0341988280415535,-0.20947265625,0.93310546875,0.3564453125
2023-07-30T11:09:59.276367,0.91122967004776,-0.3929818272590637,0.11829479038715363,0.035100504755973816,-0.20947265625,0.93310546875,0.3564453125
2023-07-30T11:09:59.278618,0.91122967004776,-0.3929818272590637,0.11829479038715363,0.035100504755973816,-0.2509765625,0.9521484375,0.31689453125
2023-07-30T11:09:59.278618,0.9133973121643066,-0.38750335574150085,0.11934778839349747,0.0360923670232296,-0.2509765625,0.9521484375,0.31689453125
2023-07-30T11:09:59.279616,0.9133973121643066,-0.38750335574150085,0.11934778839349747,0.0360923670232296,-0.29345703125,0.865234375,0.3037109375
2023-07-30T11:09:59.280613,0.914676308631897,-0.383979469537735,0.12056919932365417,0.03728494048118591,-0.29345703125,0.865234375,0.3037109375
2023-07-30T11:09:59.280613,0.914676308631897,-0.383979469537735,0.12056919932365417,0.03728494048118591,-0.29931640625,0.8544921875,0.3232421875
2023-07-30T11:09:59.280613,0.9151889085769653,-0.3822920322418213,0.12198378145694733,0.037444595247507095,-0.29931640625,0.8544921875,0.3232421875
2023-07-30T11:09:59.282121,0.9151889085769653,-0.3822920322418213,0.12198378145694733,0.037444595247507095,-0.26025390625,0.904296875,0.29638671875
2023-07-30T11:09:59.283135,0.9149785041809082,-0.3820893466472626,0.12374604493379593,0.03884687274694443,-0.26025390625,0.904296875,0.29638671875
2023-07-30T11:09:59.284131,0.9149785041809082,-0.3820893466472626,0.12374604493379593,0.03884687274694443,-0.13525390625,0.83203125,0.255859375
2023-07-30T11:09:59.284131,0.9145925641059875,-0.38236203789711,0.12549465894699097,0.03963286802172661,-0.13525390625,0.83203125,0.255859375
2023-07-30T11:09:59.289094,0.9145925641059875,-0.38236203789711,0.12549465894699097,0.03963286802172661,-0.14990234375,0.90576171875,0.2412109375
2023-07-30T11:09:59.290093,0.9142884612083435,-0.38203001022338867,0.1279594451189041,0.04190468788146973,-0.14990234375,0.90576171875,0.2412109375
2023-07-30T11:09:59.290093,0.9142884612083435,-0.38203001022338867,0.1279594451189041,0.04190468788146973,-0.0947265625,0.9951171875,0.251953125
2023-07-30T11:09:59.294083,0.9142270684242249,-0.38117772340774536,0.13035860657691956,0.043578047305345535,-0.0947265625,0.9951171875,0.251953125
2023-07-30T11:09:59.296105,0.9142270684242249,-0.38117772340774536,0.13035860657691956,0.043578047305345535,-0.0322265625,0.931640625,0.25537109375
2023-07-30T11:09:59.297114,0.914280116558075,-0.3798142969608307,0.1333853304386139,0.045181404799222946,-0.0322265625,0.931640625,0.25537109375
2023-07-30T11:09:59.303101,0.914280116558075,-0.3798142969608307,0.1333853304386139,0.045181404799222946,-0.12158203125,0.99365234375,0.21533203125
2023-07-30T11:09:59.305095,0.9141954183578491,-0.3790847659111023,0.13554906845092773,0.04656052589416504,-0.12158203125,0.99365234375,0.21533203125
2023-07-30T11:09:59.306109,0.9141954183578491,-0.3790847659111023,0.13554906845092773,0.04656052589416504,-0.09912109375,0.9892578125,0.2001953125
2023-07-30T11:09:59.310112,0.91423100233078,-0.37814825773239136,0.13776223361492157,0.04697972163558006,-0.09912109375,0.9892578125,0.2001953125
2023-07-30T11:09:59.311109,0.91423100233078,-0.37814825773239136,0.13776223361492157,0.04697972163558006,-0.11083984375,0.91162109375,0.2255859375
2023-07-30T11:09:59.319579,0.9139907956123352,-0.377551406621933,0.14085400104522705,0.0472855381667614,-0.11083984375,0.91162109375,0.2255859375
2023-07-30T11:09:59.320576,0.9139907956123352,-0.377551406621933,0.14085400104522705,0.0472855381667614,-0.05224609375,0.91552734375,0.197265625
2023-07-30T11:09:59.321573,0.9134429097175598,-0.3775539696216583,0.14417974650859833,0.04782441258430481,-0.05224609375,0.91552734375,0.197265625
2023-07-30T11:09:59.338266,0.9134429097175598,-0.3775539696216583,0.14417974650859833,0.04782441258430481,-0.10400390625,0.89013671875,0.1259765625
2023-07-30T11:09:59.339264,0.9125730395317078,-0.378082811832428,0.14759990572929382,0.049779877066612244,-0.10400390625,0.89013671875,0.1259765625
2023-07-30T11:09:59.340261,0.9125730395317078,-0.378082811832428,0.14759990572929382,0.049779877066612244,-0.048828125,0.97216796875,0.14892578125
2023-07-30T11:09:59.340261,0.9114867448806763,-0.37915176153182983,0.15109440684318542,0.051052797585725784,-0.048828125,0.97216796875,0.14892578125
2023-07-30T11:09:59.342256,0.9114867448806763,-0.37915176153182983,0.15109440684318542,0.051052797585725784,-0.0625,0.93359375,0.18603515625
2023-07-30T11:09:59.347384,0.910248339176178,-0.3804253339767456,0.15506680309772491,0.051756907254457474,-0.0625,0.93359375,0.18603515625
2023-07-30T11:09:59.354262,0.910248339176178,-0.3804253339767456,0.15506680309772491,0.051756907254457474,-0.06201171875,0.8330078125,0.27099609375
2023-07-30T11:09:59.355763,0.9085171818733215,-0.38181787729263306,0.16111581027507782,0.05341579392552376,-0.06201171875,0.8330078125,0.27099609375
2023-07-30T11:09:59.398807,0.9085171818733215,-0.38181787729263306,0.16111581027507782,0.05341579392552376,-0.1181640625,0.82958984375,0.3076171875
2023-07-30T11:09:59.398807,0.9061499834060669,-0.3834150731563568,0.16947652399539948,0.0562392994761467,-0.1181640625,0.82958984375,0.3076171875
2023-07-30T11:09:59.423781,0.9061499834060669,-0.3834150731563568,0.16947652399539948,0.0562392994761467,-0.01025390625,0.958984375,0.28515625
2023-07-30T11:09:59.423781,0.9028449654579163,-0.38654330372810364,0.1789754331111908,0.05850723385810852,-0.01025390625,0.958984375,0.28515625
2023-07-30T11:09:59.442830,0.9028449654579163,-0.38654330372810364,0.1789754331111908,0.05850723385810852,0.11083984375,1.03564453125,0.2265625
2023-07-30T11:09:59.443827,0.8996054530143738,-0.38962095975875854,0.18805375695228577,0.05950953811407089,0.11083984375,1.03564453125,0.2265625
2023-07-30T11:09:59.443827,0.8996054530143738,-0.38962095975875854,0.18805375695228577,0.05950953811407089,0.0595703125,1.03564453125,0.1982421875
2023-07-30T11:09:59.445334,0.8961631655693054,-0.39300957322120667,0.19720250368118286,0.05954999849200249,0.0595703125,1.03564453125,0.1982421875
2023-07-30T11:09:59.445334,0.8961631655693054,-0.39300957322120667,0.19720250368118286,0.05954999849200249,0.0556640625,0.9990234375,0.26416015625
2023-07-30T11:09:59.446333,0.8919199705123901,-0.39733952283859253,0.20766706764698029,0.05894409120082855,0.0556640625,0.9990234375,0.26416015625
2023-07-30T11:09:59.446333,0.8919199705123901,-0.39733952283859253,0.20766706764698029,0.05894409120082855,0.00927734375,0.947265625,0.32275390625
2023-07-30T11:09:59.447352,0.8862715363502502,-0.4029117822647095,0.22097104787826538,0.057936251163482666,0.00927734375,0.947265625,0.32275390625
2023-07-30T11:09:59.507936,0.8862715363502502,-0.4029117822647095,0.22097104787826538,0.057936251163482666,-0.013671875,0.83837890625,0.35693359375
2023-07-30T11:09:59.508934,0.8787261843681335,-0.409574031829834,0.2381545603275299,0.058067359030246735,-0.013671875,0.83837890625,0.35693359375
2023-07-30T11:09:59.509931,0.8787261843681335,-0.409574031829834,0.2381545603275299,0.058067359030246735,-0.087890625,0.78271484375,0.39404296875
2023-07-30T11:09:59.509931,0.8692189455032349,-0.41692110896110535,0.2590857446193695,0.05924280360341072,-0.087890625,0.78271484375,0.39404296875
2023-07-30T11:09:59.510929,0.8692189455032349,-0.41692110896110535,0.2590857446193695,0.05924280360341072,-0.0712890625,0.72314453125,0.46826171875
2023-07-30T11:09:59.511926,0.8581762313842773,-0.42370539903640747,0.2830495834350586,0.062371719628572464,-0.0712890625,0.72314453125,0.46826171875
2023-07-30T11:09:59.527922,0.8581762313842773,-0.42370539903640747,0.2830495834350586,0.062371719628572464,0.087890625,0.83154296875,0.52294921875
2023-07-30T11:09:59.527922,0.8462938666343689,-0.429368257522583,0.3084985017776489,0.06525563448667526,0.087890625,0.83154296875,0.52294921875
2023-07-30T11:09:59.533907,0.8462938666343689,-0.429368257522583,0.3084985017776489,0.06525563448667526,0.14111328125,0.87353515625,0.45166015625
2023-07-30T11:09:59.535413,0.8347338438034058,-0.43316128849983215,0.3331567645072937,0.06780359894037247,0.14111328125,0.87353515625,0.45166015625
2023-07-30T11:09:59.536414,0.8347338438034058,-0.43316128849983215,0.3331567645072937,0.06780359894037247,0.1962890625,0.88232421875,0.447265625
2023-07-30T11:09:59.549906,0.8237800598144531,-0.43496638536453247,0.35676562786102295,0.07006426155567169,0.1962890625,0.88232421875,0.447265625
2023-07-30T11:09:59.549906,0.8237800598144531,-0.43496638536453247,0.35676562786102295,0.07006426155567169,0.181640625,0.9111328125,0.478515625
2023-07-30T11:09:59.550904,0.8134859204292297,-0.4349905550479889,0.3794082999229431,0.071226105093956,0.181640625,0.9111328125,0.478515625
2023-07-30T11:09:59.557375,0.8134859204292297,-0.4349905550479889,0.3794082999229431,0.071226105093956,0.15625,0.884765625,0.42626953125
2023-07-30T11:09:59.557908,0.8032658100128174,-0.43368953466415405,0.4019591212272644,0.07145785540342331,0.15625,0.884765625,0.42626953125
2023-07-30T11:09:59.563892,0.8032658100128174,-0.43368953466415405,0.4019591212272644,0.07145785540342331,0.10888671875,0.8046875,0.3828125
2023-07-30T11:09:59.579564,0.7927341461181641,-0.4323452115058899,0.42359331250190735,0.07224215567111969,0.10888671875,0.8046875,0.3828125
2023-07-30T11:09:59.602389,0.7927341461181641,-0.4323452115058899,0.42359331250190735,0.07224215567111969,0.06005859375,0.75390625,0.39990234375
2023-07-30T11:09:59.625223,0.7806262373924255,-0.43164005875587463,0.44577524065971375,0.07479172199964523,0.06005859375,0.75390625,0.39990234375
2023-07-30T11:09:59.625223,0.7806262373924255,-0.43164005875587463,0.44577524065971375,0.07479172199964523,0.0703125,0.70751953125,0.466796875
2023-07-30T11:09:59.626222,0.7680056095123291,-0.43054401874542236,0.46753570437431335,0.07880061119794846,0.0703125,0.70751953125,0.466796875
2023-07-30T11:09:59.632423,0.7680056095123291,-0.43054401874542236,0.46753570437431335,0.07880061119794846,0.1630859375,0.751953125,0.4736328125
2023-07-30T11:09:59.633421,0.7568203806877136,-0.42745789885520935,0.48746854066848755,0.0829283818602562,0.1630859375,0.751953125,0.4736328125
2023-07-30T11:09:59.639427,0.7568203806877136,-0.42745789885520935,0.48746854066848755,0.0829283818602562,0.2421875,0.82568359375,0.3701171875
2023-07-30T11:09:59.654410,0.7487759590148926,-0.4215276837348938,0.5041000247001648,0.08678783476352692,0.2421875,0.82568359375,0.3701171875
2023-07-30T11:09:59.655407,0.7487759590148926,-0.4215276837348938,0.5041000247001648,0.08678783476352692,0.24169921875,0.9267578125,0.2509765625
2023-07-30T11:09:59.655992,0.7440856695175171,-0.4135691523551941,0.5168221592903137,0.09050890803337097,0.24169921875,0.9267578125,0.2509765625
2023-07-30T11:09:59.666001,0.7440856695175171,-0.4135691523551941,0.5168221592903137,0.09050890803337097,0.2041015625,0.990234375,0.19775390625
2023-07-30T11:09:59.677122,0.7411620616912842,-0.40539607405662537,0.5266682505607605,0.0946221873164177,0.2041015625,0.990234375,0.19775390625
2023-07-30T11:09:59.691633,0.7411620616912842,-0.40539607405662537,0.5266682505607605,0.0946221873164177,0.22314453125,0.9736328125,0.26806640625
2023-07-30T11:09:59.692631,0.738336443901062,-0.39855387806892395,0.5349764227867126,0.09906656295061111,0.22314453125,0.9736328125,0.26806640625
2023-07-30T11:09:59.699193,0.738336443901062,-0.39855387806892395,0.5349764227867126,0.09906656295061111,0.24462890625,0.96826171875,0.36279296875
2023-07-30T11:09:59.700191,0.7348829507827759,-0.3928763270378113,0.5430310368537903,0.1035013347864151,0.24462890625,0.96826171875,0.36279296875
2023-07-30T11:09:59.700191,0.7348829507827759,-0.3928763270378113,0.5430310368537903,0.1035013347864151,0.28564453125,0.90478515625,0.42431640625
2023-07-30T11:09:59.714451,0.7306510806083679,-0.38817721605300903,0.5511957406997681,0.10793834924697876,0.28564453125,0.90478515625,0.42431640625
2023-07-30T11:09:59.715954,0.7306510806083679,-0.38817721605300903,0.5511957406997681,0.10793834924697876,0.3095703125,0.8115234375,0.43603515625
2023-07-30T11:09:59.716459,0.7256271839141846,-0.3838249742984772,0.5598782300949097,0.11260504275560379,0.3095703125,0.8115234375,0.43603515625
2023-07-30T11:09:59.721643,0.7256271839141846,-0.3838249742984772,0.5598782300949097,0.11260504275560379,0.31103515625,0.74169921875,0.4365234375
2023-07-30T11:09:59.722640,0.7199134826660156,-0.3791545629501343,0.5692101120948792,0.11817845702171326,0.31103515625,0.74169921875,0.4365234375
2023-07-30T11:09:59.723638,0.7199134826660156,-0.3791545629501343,0.5692101120948792,0.11817845702171326,0.31787109375,0.7802734375,0.30078125
2023-07-30T11:09:59.729738,0.7199134826660156,-0.3791545629501343,0.5692101120948792,0.11817845702171326,0.35400390625,0.98291015625,0.13671875
2023-07-30T11:09:59.737370,0.7076904773712158,-0.3522273302078247,0.5954999327659607,0.14314283430576324,0.35400390625,0.98291015625,0.13671875
2023-07-30T11:09:59.737370,0.7076904773712158,-0.3522273302078247,0.5954999327659607,0.14314283430576324,0.42333984375,0.97900390625,0.2158203125
2023-07-30T11:09:59.738367,0.7078356742858887,-0.3458082973957062,0.5975967645645142,0.14920969307422638,0.42333984375,0.97900390625,0.2158203125
2023-07-30T11:09:59.744350,0.7078356742858887,-0.3458082973957062,0.5975967645645142,0.14920969307422638,0.48095703125,0.9765625,0.384765625
2023-07-30T11:09:59.744350,0.7076904773712158,-0.34048110246658325,0.5995002388954163,0.15442229807376862,0.48095703125,0.9765625,0.384765625
2023-07-30T11:09:59.745851,0.7063655853271484,-0.3365088105201721,0.6022014021873474,0.15862825512886047,0.48095703125,0.9765625,0.384765625
2023-07-30T11:09:59.751830,0.7063655853271484,-0.3365088105201721,0.6022014021873474,0.15862825512886047,0.546875,0.85791015625,0.54736328125
2023-07-30T11:09:59.752828,0.7034392952919006,-0.33357101678848267,0.6063035130500793,0.16217154264450073,0.546875,0.85791015625,0.54736328125
2023-07-30T11:09:59.752828,0.7034392952919006,-0.33357101678848267,0.6063035130500793,0.16217154264450073,0.4970703125,0.794921875,0.51171875
2023-07-30T11:09:59.758832,0.7034392952919006,-0.33357101678848267,0.6063035130500793,0.16217154264450073,0.474609375,0.81298828125,0.4013671875
2023-07-30T11:09:59.766827,0.7034392952919006,-0.33357101678848267,0.6063035130500793,0.16217154264450073,0.51171875,0.88916015625,0.29296875
2023-07-30T11:09:59.773810,0.6928085088729858,-0.3256988525390625,0.6197152137756348,0.17288613319396973,0.51171875,0.88916015625,0.29296875
2023-07-30T11:09:59.775319,0.6928085088729858,-0.3256988525390625,0.6197152137756348,0.17288613319396973,0.55810546875,0.98583984375,0.2158203125
2023-07-30T11:09:59.776319,0.6920183300971985,-0.3225861191749573,0.6213942766189575,0.17583471536636353,0.55810546875,0.98583984375,0.2158203125
2023-07-30T11:09:59.782601,0.6920183300971985,-0.3225861191749573,0.6213942766189575,0.17583471536636353,0.5986328125,1.017578125,0.2353515625
2023-07-30T11:09:59.797413,0.6920183300971985,-0.3225861191749573,0.6213942766189575,0.17583471536636353,0.5966796875,0.98876953125,0.31298828125
2023-07-30T11:09:59.797413,0.693136990070343,-0.31879881024360657,0.6208142042160034,0.18032753467559814,0.5966796875,0.98876953125,0.31298828125
2023-07-30T11:09:59.798286,0.693136990070343,-0.31879881024360657,0.6208142042160034,0.18032753467559814,0.58447265625,0.9453125,0.39404296875
2023-07-30T11:09:59.804271,0.6942065358161926,-0.3182564079761505,0.6195712089538574,0.1814434975385666,0.58447265625,0.9453125,0.39404296875
2023-07-30T11:09:59.805267,0.6942065358161926,-0.3182564079761505,0.6195712089538574,0.1814434975385666,0.59375,0.87646484375,0.47412109375
2023-07-30T11:09:59.805770,0.6949763894081116,-0.31833675503730774,0.6185785531997681,0.1817418485879898,0.59375,0.87646484375,0.47412109375
2023-07-30T11:09:59.842246,0.6949763894081116,-0.31833675503730774,0.6185785531997681,0.1817418485879898,0.56884765625,0.755859375,0.54736328125
2023-07-30T11:09:59.842246,0.6945822238922119,-0.3185708820819855,0.6188315749168396,0.18197661638259888,0.56884765625,0.755859375,0.54736328125
2023-07-30T11:09:59.843243,0.6945822238922119,-0.3185708820819855,0.6188315749168396,0.18197661638259888,0.4833984375,0.7080078125,0.54052734375
2023-07-30T11:09:59.849290,0.6934151649475098,-0.3187951445579529,0.6199342012405396,0.18228188157081604,0.4833984375,0.7080078125,0.54052734375
2023-07-30T11:09:59.850287,0.6934151649475098,-0.3187951445579529,0.6199342012405396,0.18228188157081604,0.45458984375,0.71533203125,0.48291015625
2023-07-30T11:09:59.850287,0.6920223832130432,-0.31864988803863525,0.6213647723197937,0.18295641243457794,0.45458984375,0.71533203125,0.48291015625
2023-07-30T11:09:59.872342,0.6920223832130432,-0.31864988803863525,0.6213647723197937,0.18295641243457794,0.4580078125,0.75634765625,0.42041015625
2023-07-30T11:09:59.879363,0.6910720467567444,-0.31795385479927063,0.6225200891494751,0.18383006751537323,0.4580078125,0.75634765625,0.42041015625
2023-07-30T11:09:59.880360,0.6910720467567444,-0.31795385479927063,0.6225200891494751,0.18383006751537323,0.47119140625,0.82421875,0.37890625
2023-07-30T11:09:59.886921,0.690875232219696,-0.3168894350528717,0.6230246424674988,0.18469657003879547,0.47119140625,0.82421875,0.37890625
2023-07-30T11:09:59.887921,0.690875232219696,-0.3168894350528717,0.6230246424674988,0.18469657003879547,0.4833984375,0.87451171875,0.3759765625
2023-07-30T11:09:59.893905,0.6912195682525635,-0.3160249590873718,0.6228529214859009,0.18546682596206665,0.4833984375,0.87451171875,0.3759765625
2023-07-30T11:09:59.901901,0.6912195682525635,-0.3160249590873718,0.6228529214859009,0.18546682596206665,0.5029296875,0.93359375,0.39111328125
2023-07-30T11:09:59.902898,0.6920846104621887,-0.31567373871803284,0.6220595836639404,0.18550148606300354,0.5029296875,0.93359375,0.39111328125
2023-07-30T11:09:59.902898,0.6920846104621887,-0.31567373871803284,0.6220595836639404,0.18550148606300354,0.53173828125,0.94384765625,0.41650390625
2023-07-30T11:09:59.955376,0.6931827664375305,-0.3161175549030304,0.6208406686782837,0.18472765386104584,0.53173828125,0.94384765625,0.41650390625
2023-07-30T11:09:59.955376,0.6931827664375305,-0.3161175549030304,0.6208406686782837,0.18472765386104584,0.53271484375,0.91455078125,0.4482421875
2023-07-30T11:09:59.956446,0.694206953048706,-0.31730467081069946,0.6195700764656067,0.1831047534942627,0.53271484375,0.91455078125,0.4482421875
2023-07-30T11:09:59.961449,0.694206953048706,-0.31730467081069946,0.6195700764656067,0.1831047534942627,0.509765625,0.8349609375,0.494140625
2023-07-30T11:09:59.962447,0.6945828795433044,-0.3189624547958374,0.6189026236534119,0.18104475736618042,0.509765625,0.8349609375,0.494140625
2023-07-30T11:09:59.963444,0.6945828795433044,-0.3189624547958374,0.6189026236534119,0.18104475736618042,0.46533203125,0.8037109375,0.49560546875
2023-07-30T11:09:59.969925,0.6945231556892395,-0.32083433866500854,0.6186436414718628,0.17883747816085815,0.46533203125,0.8037109375,0.49560546875
2023-07-30T11:09:59.976420,0.6945231556892395,-0.32083433866500854,0.6186436414718628,0.17883747816085815,0.455078125,0.7841796875,0.4619140625
2023-07-30T11:09:59.977643,0.694367527961731,-0.32238686084747314,0.6186719536781311,0.17653700709342957,0.455078125,0.7841796875,0.4619140625
2023-07-30T11:09:59.977643,0.694367527961731,-0.32238686084747314,0.6186719536781311,0.17653700709342957,0.44921875,0.796875,0.43701171875
2023-07-30T11:10:00.007189,0.6943068504333496,-0.3236902356147766,0.6186917424201965,0.1743079423904419,0.44921875,0.796875,0.43701171875
2023-07-30T11:10:00.008022,0.6943068504333496,-0.3236902356147766,0.6186917424201965,0.1743079423904419,0.474609375,0.8837890625,0.3544921875
2023-07-30T11:10:00.008022,0.6952373385429382,-0.32473161816596985,0.6178387403488159,0.17166723310947418,0.474609375,0.8837890625,0.3544921875
2023-07-30T11:10:00.014007,0.6952373385429382,-0.32473161816596985,0.6178387403488159,0.17166723310947418,0.50439453125,0.9111328125,0.32080078125
2023-07-30T11:10:00.029636,0.6967467665672302,-0.32595574855804443,0.6163181662559509,0.16866706311702728,0.50439453125,0.9111328125,0.32080078125
2023-07-30T11:10:00.037129,0.6967467665672302,-0.32595574855804443,0.6163181662559509,0.16866706311702728,0.47607421875,0.890625,0.3662109375
2023-07-30T11:10:00.044113,0.6982011795043945,-0.3279441297054291,0.6144559979438782,0.1655639261007309,0.47607421875,0.890625,0.3662109375
2023-07-30T11:10:00.044113,0.6982011795043945,-0.3279441297054291,0.6144559979438782,0.1655639261007309,0.4677734375,0.87158203125,0.41064453125
2023-07-30T11:10:00.046133,0.6994777321815491,-0.3303469717502594,0.612621009349823,0.16216382384300232,0.4677734375,0.87158203125,0.41064453125
2023-07-30T11:10:00.059384,0.6994777321815491,-0.3303469717502594,0.612621009349823,0.16216382384300232,0.46875,0.8447265625,0.4482421875
2023-07-30T11:10:00.081451,0.7005167007446289,-0.3329692780971527,0.6110495328903198,0.15819695591926575,0.46875,0.8447265625,0.4482421875
2023-07-30T11:10:00.082958,0.7005167007446289,-0.3329692780971527,0.6110495328903198,0.15819695591926575,0.453125,0.79931640625,0.48046875
2023-07-30T11:10:00.083974,0.7005167007446289,-0.3329692780971527,0.6110495328903198,0.15819695591926575,0.376953125,0.83740234375,0.3583984375
2023-07-30T11:10:00.090025,0.6999481916427612,-0.3436446785926819,0.6097574830055237,0.1420448273420334,0.376953125,0.83740234375,0.3583984375
2023-07-30T11:10:00.090025,0.6999481916427612,-0.3436446785926819,0.6097574830055237,0.1420448273420334,0.400390625,0.9189453125,0.29638671875
2023-07-30T11:10:00.104022,0.700927734375,-0.34577614068984985,0.6083941459655762,0.13782456517219543,0.400390625,0.9189453125,0.29638671875
2023-07-30T11:10:00.112032,0.700927734375,-0.34577614068984985,0.6083941459655762,0.13782456517219543,0.42333984375,0.95166015625,0.298828125
2023-07-30T11:10:00.120116,0.7024134993553162,-0.3484375476837158,0.6062137484550476,0.13308435678482056,0.42333984375,0.95166015625,0.298828125
2023-07-30T11:10:00.120116,0.7024134993553162,-0.3484375476837158,0.6062137484550476,0.13308435678482056,0.41015625,0.94970703125,0.3779296875
2023-07-30T11:10:00.127174,0.7035634517669678,-0.35214897990226746,0.6038404107093811,0.12793099880218506,0.41015625,0.94970703125,0.3779296875
2023-07-30T11:10:00.128174,0.7035634517669678,-0.35214897990226746,0.6038404107093811,0.12793099880218506,0.40283203125,0.95263671875,0.4462890625
2023-07-30T11:10:00.129172,0.7039783596992493,-0.35695719718933105,0.6017560362815857,0.12200701236724854,0.40283203125,0.95263671875,0.4462890625
2023-07-30T11:10:00.197240,0.7039783596992493,-0.35695719718933105,0.6017560362815857,0.12200701236724854,0.40576171875,0.97509765625,0.447265625
2023-07-30T11:10:00.198104,0.7038299441337585,-0.36297860741615295,0.5996828675270081,0.11511032283306122,0.40576171875,0.97509765625,0.447265625
2023-07-30T11:10:00.199102,0.7038299441337585,-0.36297860741615295,0.5996828675270081,0.11511032283306122,0.42919921875,0.89697265625,0.44677734375
2023-07-30T11:10:00.199102,0.7028537392616272,-0.3693367540836334,0.5983222723007202,0.10769111663103104,0.42919921875,0.89697265625,0.44677734375
2023-07-30T11:10:00.199102,0.7028537392616272,-0.3693367540836334,0.5983222723007202,0.10769111663103104,0.35693359375,0.80810546875,0.4599609375
2023-07-30T11:10:00.200099,0.7028537392616272,-0.3693367540836334,0.5983222723007202,0.10769111663103104,0.26806640625,0.85400390625,0.3837890625
2023-07-30T11:10:00.200099,0.7028537392616272,-0.3693367540836334,0.5983222723007202,0.10769111663103104,0.30419921875,0.91015625,0.2783203125
2023-07-30T11:10:00.200099,0.7007902264595032,-0.3861946761608124,0.5937274694442749,0.08505511283874512,0.30419921875,0.91015625,0.2783203125
2023-07-30T11:10:00.201096,0.7007902264595032,-0.3861946761608124,0.5937274694442749,0.08505511283874512,0.271484375,0.96044921875,0.25
2023-07-30T11:10:00.201096,0.7025688886642456,-0.39148977398872375,0.58912593126297,0.07786760479211807,0.271484375,0.96044921875,0.25
2023-07-30T11:10:00.202094,0.7025688886642456,-0.39148977398872375,0.58912593126297,0.07786760479211807,0.2109375,0.923828125,0.3671875
2023-07-30T11:10:00.202094,0.7025688886642456,-0.39148977398872375,0.58912593126297,0.07786760479211807,0.20263671875,0.947265625,0.5498046875
2023-07-30T11:10:00.202094,0.7048264741897583,-0.4116678833961487,0.5749775171279907,0.056122902780771255,0.20263671875,0.947265625,0.5498046875
2023-07-30T11:10:00.203091,0.7048264741897583,-0.4116678833961487,0.5749775171279907,0.056122902780771255,0.16162109375,0.904296875,0.48974609375
2023-07-30T11:10:00.203091,0.7032572627067566,-0.4203040897846222,0.5713822841644287,0.04791566729545593,0.16162109375,0.904296875,0.48974609375
2023-07-30T11:10:00.204088,0.7032572627067566,-0.4203040897846222,0.5713822841644287,0.04791566729545593,0.13720703125,0.90234375,0.40966796875
2023-07-30T11:10:00.209104,0.7032572627067566,-0.4203040897846222,0.5713822841644287,0.04791566729545593,0.1630859375,0.7802734375,0.34765625
2023-07-30T11:10:00.210102,0.6993628144264221,-0.4370986223220825,0.5646308660507202,0.03206990659236908,0.1630859375,0.7802734375,0.34765625
2023-07-30T11:10:00.236093,0.6993628144264221,-0.4370986223220825,0.5646308660507202,0.03206990659236908,0.0556640625,0.58984375,0.3857421875
2023-07-30T11:10:00.236093,0.6978238821029663,-0.4429461658000946,0.5622663497924805,0.02640165016055107,0.0556640625,0.58984375,0.3857421875
2023-07-30T11:10:00.237103,0.6978238821029663,-0.4429461658000946,0.5622663497924805,0.02640165016055107,-0.11669921875,0.62939453125,0.39306640625
2023-07-30T11:10:00.237103,0.6966845989227295,-0.44741225242614746,0.5603407621383667,0.021705666556954384,-0.11669921875,0.62939453125,0.39306640625
2023-07-30T11:10:00.237103,0.6965684294700623,-0.4505421817302704,0.5580675601959229,0.019098706543445587,-0.11669921875,0.62939453125,0.39306640625
2023-07-30T11:10:00.238104,0.6965684294700623,-0.4505421817302704,0.5580675601959229,0.019098706543445587,-0.08984375,0.76025390625,0.43994140625
2023-07-30T11:10:00.238104,0.6963241100311279,-0.4529658854007721,0.5564988255500793,0.016237551346421242,-0.08984375,0.76025390625,0.43994140625
2023-07-30T11:10:00.242094,0.6963241100311279,-0.4529658854007721,0.5564988255500793,0.016237551346421242,-0.08642578125,0.85546875,0.4765625
2023-07-30T11:10:00.243091,0.6960064172744751,-0.45540884137153625,0.5549789667129517,0.01327511202543974,-0.08642578125,0.85546875,0.4765625
2023-07-30T11:10:00.243091,0.6960064172744751,-0.45540884137153625,0.5549789667129517,0.01327511202543974,-0.033203125,0.9267578125,0.4111328125
2023-07-30T11:10:00.243091,0.6958315372467041,-0.4582882225513458,0.5528905391693115,0.010123179294168949,-0.033203125,0.9267578125,0.4111328125
2023-07-30T11:10:00.244089,0.6958315372467041,-0.4582882225513458,0.5528905391693115,0.010123179294168949,-0.052734375,0.96142578125,0.35400390625
2023-07-30T11:10:00.244089,0.6955085396766663,-0.4620117247104645,0.5502450466156006,0.006578437983989716,-0.052734375,0.96142578125,0.35400390625
2023-07-30T11:10:00.252090,0.6955085396766663,-0.4620117247104645,0.5502450466156006,0.006578437983989716,-0.05126953125,0.97802734375,0.365234375
2023-07-30T11:10:00.252090,0.6949597001075745,-0.4667929410934448,0.5469268560409546,0.0025125176180154085,-0.05126953125,0.97802734375,0.365234375
2023-07-30T11:10:00.253088,0.6949597001075745,-0.4667929410934448,0.5469268560409546,0.0025125176180154085,-0.0166015625,0.9677734375,0.38916015625
2023-07-30T11:10:00.255082,0.6941069960594177,-0.4722956120967865,0.5432759523391724,-0.0018942514434456825,-0.0166015625,0.9677734375,0.38916015625
2023-07-30T11:10:00.255588,0.6941069960594177,-0.4722956120967865,0.5432759523391724,-0.0018942514434456825,-0.037109375,0.94384765625,0.3798828125
2023-07-30T11:10:00.256093,0.6931620836257935,-0.47847217321395874,0.5390258431434631,-0.006465095095336437,-0.037109375,0.94384765625,0.3798828125
2023-07-30T11:10:00.262093,0.6931620836257935,-0.47847217321395874,0.5390258431434631,-0.006465095095336437,-0.0361328125,0.8603515625,0.40478515625
2023-07-30T11:10:00.263091,0.6919366121292114,-0.48475533723831177,0.5349061489105225,-0.010554485954344273,-0.0361328125,0.8603515625,0.40478515625
2023-07-30T11:10:00.264087,0.6919366121292114,-0.48475533723831177,0.5349061489105225,-0.010554485954344273,-0.08935546875,0.796875,0.43603515625
2023-07-30T11:10:00.277161,0.6909405589103699,-0.49056440591812134,0.5307983160018921,-0.014170710928738117,-0.08935546875,0.796875,0.43603515625
2023-07-30T11:10:00.278161,0.6909405589103699,-0.49056440591812134,0.5307983160018921,-0.014170710928738117,-0.13623046875,0.77685546875,0.4296875
2023-07-30T11:10:00.278161,0.6906003355979919,-0.49525558948516846,0.5267859697341919,-0.017019756138324738,-0.13623046875,0.77685546875,0.4296875
2023-07-30T11:10:00.283653,0.6906003355979919,-0.49525558948516846,0.5267859697341919,-0.017019756138324738,-0.1904296875,0.78125,0.3896484375
2023-07-30T11:10:00.285160,0.6912746429443359,-0.49928680062294006,0.5220147967338562,-0.018778802827000618,-0.1904296875,0.78125,0.3896484375
2023-07-30T11:10:00.286161,0.6912746429443359,-0.49928680062294006,0.5220147967338562,-0.018778802827000618,-0.24462890625,0.841796875,0.298828125
2023-07-30T11:10:00.292652,0.6928957104682922,-0.5035765767097473,0.5156872272491455,-0.01930391974747181,-0.24462890625,0.841796875,0.298828125
2023-07-30T11:10:00.300656,0.6928957104682922,-0.5035765767097473,0.5156872272491455,-0.01930391974747181,-0.26318359375,0.888671875,0.2978515625
2023-07-30T11:10:00.322645,0.6948075294494629,-0.5088712573051453,0.5078834891319275,-0.018625032156705856,-0.26318359375,0.888671875,0.2978515625
2023-07-30T11:10:00.322645,0.6948075294494629,-0.5088712573051453,0.5078834891319275,-0.018625032156705856,-0.30078125,1.03466796875,0.318359375
2023-07-30T11:10:00.323642,0.6966698169708252,-0.5164846181869507,0.49759143590927124,-0.017252745106816292,-0.30078125,1.03466796875,0.318359375
2023-07-30T11:10:00.330649,0.6966698169708252,-0.5164846181869507,0.49759143590927124,-0.017252745106816292,-0.24951171875,1.20751953125,0.228515625
2023-07-30T11:10:00.337652,0.6989374756813049,-0.5264778137207031,0.48381906747817993,-0.015054508112370968,-0.24951171875,1.20751953125,0.228515625
2023-07-30T11:10:00.352638,0.6989374756813049,-0.5264778137207031,0.48381906747817993,-0.015054508112370968,-0.18212890625,1.20751953125,0.0986328125
2023-07-30T11:10:00.353635,0.7011907696723938,-0.5397753119468689,0.46565887331962585,-0.01165873371064663,-0.18212890625,1.20751953125,0.0986328125
2023-07-30T11:10:00.353635,0.7011907696723938,-0.5397753119468689,0.46565887331962585,-0.01165873371064663,-0.13427734375,0.9560546875,0.0634765625
2023-07-30T11:10:00.374256,0.705143392086029,-0.5533208847045898,0.44328978657722473,-0.01014513149857521,-0.13427734375,0.9560546875,0.0634765625
2023-07-30T11:10:00.375251,0.705143392086029,-0.5533208847045898,0.44328978657722473,-0.01014513149857521,-0.076171875,0.66162109375,0.072265625
2023-07-30T11:10:00.389396,0.7044040560722351,-0.5707215666770935,0.42185190320014954,-0.011526591144502163,-0.076171875,0.66162109375,0.072265625
2023-07-30T11:10:00.391391,0.7044040560722351,-0.5707215666770935,0.42185190320014954,-0.011526591144502163,-0.2724609375,0.814453125,0.3505859375
2023-07-30T11:10:00.392388,0.701636552810669,-0.5901198983192444,0.39924493432044983,-0.008256950415670872,-0.2724609375,0.814453125,0.3505859375
2023-07-30T11:10:00.399399,0.701636552810669,-0.5901198983192444,0.39924493432044983,-0.008256950415670872,-0.17333984375,0.62158203125,0.56982421875
2023-07-30T11:10:00.405383,0.6970542073249817,-0.6100802421569824,0.37670472264289856,-0.003329754574224353,-0.17333984375,0.62158203125,0.56982421875
2023-07-30T11:10:00.405887,0.6970542073249817,-0.6100802421569824,0.37670472264289856,-0.003329754574224353,-0.2548828125,0.646484375,0.59228515625
2023-07-30T11:10:00.406390,0.6919742822647095,-0.6303133964538574,0.35193875432014465,0.003969148732721806,-0.2548828125,0.646484375,0.59228515625
2023-07-30T11:10:00.421393,0.6919742822647095,-0.6303133964538574,0.35193875432014465,0.003969148732721806,-0.369140625,0.77685546875,0.4716796875
2023-07-30T11:10:00.421393,0.6872290372848511,-0.6514542102813721,0.3210645914077759,0.015530377626419067,-0.369140625,0.77685546875,0.4716796875
2023-07-30T11:10:00.422390,0.6872290372848511,-0.6514542102813721,0.3210645914077759,0.015530377626419067,-0.380859375,0.8583984375,0.31787109375
2023-07-30T11:10:00.434382,0.6813994646072388,-0.673509418964386,0.2847174406051636,0.03187126666307449,-0.380859375,0.8583984375,0.31787109375
2023-07-30T11:10:00.435380,0.6813994646072388,-0.673509418964386,0.2847174406051636,0.03187126666307449,-0.244140625,0.82470703125,0.15234375
2023-07-30T11:10:00.446391,0.676053524017334,-0.6921196579933167,0.2471182495355606,0.053428467363119125,-0.244140625,0.82470703125,0.15234375
2023-07-30T11:10:00.447404,0.676053524017334,-0.6921196579933167,0.2471182495355606,0.053428467363119125,-0.32373046875,0.80615234375,0.16015625
2023-07-30T11:10:00.447404,0.6660762429237366,-0.7125144600868225,0.2069055736064911,0.07652170956134796,-0.32373046875,0.80615234375,0.16015625
2023-07-30T11:10:00.448405,0.6660762429237366,-0.7125144600868225,0.2069055736064911,0.07652170956134796,0.072265625,0.65087890625,0.2900390625
2023-07-30T11:10:00.454390,0.6616230607032776,-0.7284047603607178,0.16004298627376556,0.07789488136768341,0.072265625,0.65087890625,0.2900390625
2023-07-30T11:10:00.455387,0.6616230607032776,-0.7284047603607178,0.16004298627376556,0.07789488136768341,0.13232421875,-0.03466796875,0.2841796875
2023-07-30T11:10:00.462397,0.6472280621528625,-0.7492053508758545,0.11865686625242233,0.07554885745048523,0.13232421875,-0.03466796875,0.2841796875
2023-07-30T11:10:00.465894,0.6472280621528625,-0.7492053508758545,0.11865686625242233,0.07554885745048523,0.3193359375,-0.10498046875,0.4052734375
2023-07-30T11:10:00.467408,0.6311591267585754,-0.7665215134620667,0.09339963644742966,0.07320794463157654,0.3193359375,-0.10498046875,0.4052734375
2023-07-30T11:10:00.468408,0.6311591267585754,-0.7665215134620667,0.09339963644742966,0.07320794463157654,0.5966796875,-0.064453125,0.509765625
2023-07-30T11:10:00.472398,0.6201055645942688,-0.7769193649291992,0.08326811343431473,0.07022649049758911,0.5966796875,-0.064453125,0.509765625
2023-07-30T11:10:00.473396,0.6201055645942688,-0.7769193649291992,0.08326811343431473,0.07022649049758911,0.33203125,-0.03955078125,0.4091796875
2023-07-30T11:10:00.474394,0.6137598156929016,-0.7826120257377625,0.08080974221229553,0.06547554582357407,0.33203125,-0.03955078125,0.4091796875
2023-07-30T11:10:00.475896,0.6137598156929016,-0.7826120257377625,0.08080974221229553,0.06547554582357407,0.20751953125,0.12109375,0.31640625
2023-07-30T11:10:00.477413,0.6083275675773621,-0.7874892950057983,0.08122750371694565,0.056570589542388916,0.20751953125,0.12109375,0.31640625
2023-07-30T11:10:00.480409,0.6083275675773621,-0.7874892950057983,0.08122750371694565,0.056570589542388916,0.14794921875,0.04638671875,0.71630859375
2023-07-30T11:10:00.480409,0.6199299693107605,-0.7787156105041504,0.0858103558421135,0.04388021305203438,0.14794921875,0.04638671875,0.71630859375
2023-07-30T11:10:00.484399,0.6199299693107605,-0.7787156105041504,0.0858103558421135,0.04388021305203438,-0.21044921875,0.53466796875,1.49658203125
2023-07-30T11:10:00.487413,0.6080792546272278,-0.788487434387207,0.06586317718029022,0.06472355127334595,-0.21044921875,0.53466796875,1.49658203125
2023-07-30T11:10:00.496406,0.6080792546272278,-0.788487434387207,0.06586317718029022,0.06472355127334595,-0.142578125,0.74755859375,0.6474609375
2023-07-30T11:10:00.496406,0.5863076448440552,-0.8036385178565979,0.03755449131131172,0.09485791623592377,-0.142578125,0.74755859375,0.6474609375
2023-07-30T11:10:00.503406,0.5863076448440552,-0.8036385178565979,0.03755449131131172,0.09485791623592377,0.2568359375,0.1318359375,0.841796875
2023-07-30T11:10:00.505904,0.5643116235733032,-0.8173865675926208,0.01991351507604122,0.11417082697153091,0.2568359375,0.1318359375,0.841796875
2023-07-30T11:10:00.510411,0.5643116235733032,-0.8173865675926208,0.01991351507604122,0.11417082697153091,0.36962890625,0.04638671875,1.26220703125
2023-07-30T11:10:00.510411,0.5438999533653259,-0.8296542763710022,0.005117995664477348,0.12577950954437256,0.36962890625,0.04638671875,1.26220703125
2023-07-30T11:10:00.525397,0.5438999533653259,-0.8296542763710022,0.005117995664477348,0.12577950954437256,0.25537109375,0.1787109375,1.47265625
2023-07-30T11:10:00.526406,0.5225272178649902,-0.8424306511878967,-0.00830300897359848,0.13117532432079315,0.25537109375,0.1787109375,1.47265625
2023-07-30T11:10:00.532404,0.5225272178649902,-0.8424306511878967,-0.00830300897359848,0.13117532432079315,0.14501953125,0.02880859375,1.2451171875
2023-07-30T11:10:00.534399,0.49860087037086487,-0.8556978702545166,-0.020945215597748756,0.13689245283603668,0.14501953125,0.02880859375,1.2451171875
2023-07-30T11:10:00.539412,0.49860087037086487,-0.8556978702545166,-0.020945215597748756,0.13689245283603668,0.06689453125,-0.080078125,0.94970703125
2023-07-30T11:10:00.542404,0.4776817560195923,-0.8661484718322754,-0.03512172773480415,0.1427352875471115,0.06689453125,-0.080078125,0.94970703125
2023-07-30T11:10:00.554400,0.4776817560195923,-0.8661484718322754,-0.03512172773480415,0.1427352875471115,-0.037109375,0.02490234375,0.71142578125
2023-07-30T11:10:00.555398,0.45927751064300537,-0.874158501625061,-0.0520537868142128,0.14900138974189758,-0.037109375,0.02490234375,0.71142578125
2023-07-30T11:10:00.563400,0.45927751064300537,-0.874158501625061,-0.0520537868142128,0.14900138974189758,0.12158203125,-0.197265625,0.85595703125
2023-07-30T11:10:00.564397,0.44144976139068604,-0.8809723258018494,-0.06676739454269409,0.15669035911560059,0.12158203125,-0.197265625,0.85595703125
2023-07-30T11:10:00.569409,0.44144976139068604,-0.8809723258018494,-0.06676739454269409,0.15669035911560059,0.21923828125,-0.44970703125,1.15966796875
2023-07-30T11:10:00.577475,0.42650529742240906,-0.8863581418991089,-0.07874109596014023,0.16205663979053497,0.21923828125,-0.44970703125,1.15966796875
2023-07-30T11:10:00.584459,0.42650529742240906,-0.8863581418991089,-0.07874109596014023,0.16205663979053497,0.15234375,-0.45166015625,1.2060546875
2023-07-30T11:10:00.586464,0.41592684388160706,-0.8907353281974792,-0.08634503185749054,0.16167855262756348,0.15234375,-0.45166015625,1.2060546875
2023-07-30T11:10:00.596460,0.41592684388160706,-0.8907353281974792,-0.08634503185749054,0.16167855262756348,0.13037109375,-0.3740234375,1.1123046875
2023-07-30T11:10:00.599466,0.4075145125389099,-0.894590437412262,-0.09039568156003952,0.15958870947360992,0.13037109375,-0.3740234375,1.1123046875
2023-07-30T11:10:00.601463,0.4075145125389099,-0.894590437412262,-0.09039568156003952,0.15958870947360992,0.1796875,-0.3037109375,1.13671875
2023-07-30T11:10:00.601463,0.39895886182785034,-0.8982722759246826,-0.09364768117666245,0.1586468666791916,0.1796875,-0.3037109375,1.13671875
2023-07-30T11:10:00.614451,0.39895886182785034,-0.8982722759246826,-0.09364768117666245,0.1586468666791916,0.29443359375,-0.322265625,1.2265625
2023-07-30T11:10:00.615953,0.3916996419429779,-0.9012292623519897,-0.09630637615919113,0.1583741158246994,0.29443359375,-0.322265625,1.2265625
2023-07-30T11:10:00.622458,0.3916996419429779,-0.9012292623519897,-0.09630637615919113,0.1583741158246994,0.39306640625,-0.35791015625,1.32275390625
2023-07-30T11:10:00.623456,0.38727831840515137,-0.9029833078384399,-0.09902670979499817,0.15757659077644348,0.39306640625,-0.35791015625,1.32275390625
2023-07-30T11:10:00.629465,0.38727831840515137,-0.9029833078384399,-0.09902670979499817,0.15757659077644348,0.41943359375,-0.37841796875,1.3583984375
2023-07-30T11:10:00.630463,0.38938435912132263,-0.9020405411720276,-0.10350622981786728,0.1548842489719391,0.41943359375,-0.37841796875,1.3583984375
2023-07-30T11:10:00.637465,0.38938435912132263,-0.9020405411720276,-0.10350622981786728,0.1548842489719391,0.36572265625,-0.27587890625,1.31298828125
2023-07-30T11:10:00.646456,0.3964081108570099,-0.8983513116836548,-0.11269388347864151,0.1520709991455078,0.36572265625,-0.27587890625,1.31298828125
2023-07-30T11:10:00.659226,0.3964081108570099,-0.8983513116836548,-0.11269388347864151,0.1520709991455078,0.38134765625,-0.20361328125,1.43359375
2023-07-30T11:10:00.660223,0.4019351005554199,-0.8943801522254944,-0.12483932822942734,0.1514841914176941,0.38134765625,-0.20361328125,1.43359375
2023-07-30T11:10:00.660223,0.4019351005554199,-0.8943801522254944,-0.12483932822942734,0.1514841914176941,0.4482421875,-0.18017578125,1.60400390625
2023-07-30T11:10:00.667378,0.4101162254810333,-0.8896520137786865,-0.1368354707956314,0.1469697654247284,0.4482421875,-0.18017578125,1.60400390625
2023-07-30T11:10:00.668227,0.4101162254810333,-0.8896520137786865,-0.1368354707956314,0.1469697654247284,0.4580078125,0.02099609375,1.47021484375
2023-07-30T11:10:00.669224,0.4159241318702698,-0.8849257230758667,-0.1506381332874298,0.14567692577838898,0.4580078125,0.02099609375,1.47021484375
2023-07-30T11:10:00.683214,0.4159241318702698,-0.8849257230758667,-0.1506381332874298,0.14567692577838898,0.62744140625,0.1083984375,1.576171875
2023-07-30T11:10:00.684211,0.4172094464302063,-0.8830791115760803,-0.15953221917152405,0.1437251716852188,0.62744140625,0.1083984375,1.576171875
2023-07-30T11:10:00.690221,0.4172094464302063,-0.8830791115760803,-0.15953221917152405,0.1437251716852188,0.83251953125,0.046875,1.74560546875
2023-07-30T11:10:00.690221,0.41754820942878723,-0.8829618096351624,-0.16264353692531586,0.13992510735988617,0.83251953125,0.046875,1.74560546875
2023-07-30T11:10:00.699229,0.41754820942878723,-0.8829618096351624,-0.16264353692531586,0.13992510735988617,0.8212890625,-0.0126953125,1.76513671875
2023-07-30T11:10:00.699229,0.4158092737197876,-0.8854724764823914,-0.15983596444129944,0.13226354122161865,0.8212890625,-0.0126953125,1.76513671875
2023-07-30T11:10:00.713220,0.4158092737197876,-0.8854724764823914,-0.15983596444129944,0.13226354122161865,0.6767578125,-0.0380859375,1.677734375
2023-07-30T11:10:00.718294,0.41018083691596985,-0.890605628490448,-0.15349039435386658,0.12253139168024063,0.6767578125,-0.0380859375,1.677734375
2023-07-30T11:10:00.722284,0.41018083691596985,-0.890605628490448,-0.15349039435386658,0.12253139168024063,0.51904296875,-0.1240234375,1.63525390625
2023-07-30T11:10:00.727293,0.4042050838470459,-0.8969523906707764,-0.1422211229801178,0.10893967747688293,0.51904296875,-0.1240234375,1.63525390625
2023-07-30T11:10:00.728296,0.4042050838470459,-0.8969523906707764,-0.1422211229801178,0.10893967747688293,0.32861328125,-0.1337890625,1.423828125
2023-07-30T11:10:00.729293,0.4019942879676819,-0.9014256000518799,-0.13078485429286957,0.09342236071825027,0.32861328125,-0.1337890625,1.423828125
2023-07-30T11:10:00.742281,0.4019942879676819,-0.9014256000518799,-0.13078485429286957,0.09342236071825027,0.15087890625,-0.03955078125,1.01806640625
2023-07-30T11:10:00.742281,0.40353164076805115,-0.902972936630249,-0.12346437573432922,0.08098500967025757,0.15087890625,-0.03955078125,1.01806640625
2023-07-30T11:10:00.750286,0.40353164076805115,-0.902972936630249,-0.12346437573432922,0.08098500967025757,0.03857421875,0.015625,0.869140625
2023-07-30T11:10:00.750286,0.40765276551246643,-0.9024671912193298,-0.1177080050110817,0.07427716255187988,0.03857421875,0.015625,0.869140625
2023-07-30T11:10:00.757437,0.40765276551246643,-0.9024671912193298,-0.1177080050110817,0.07427716255187988,0.07177734375,-0.03857421875,1.04443359375
2023-07-30T11:10:00.757437,0.4120182991027832,-0.9013705253601074,-0.1127098798751831,0.07119335234165192,0.07177734375,-0.03857421875,1.04443359375
2023-07-30T11:10:00.772276,0.4120182991027832,-0.9013705253601074,-0.1127098798751831,0.07119335234165192,0.15478515625,-0.09423828125,1.13623046875
2023-07-30T11:10:00.774270,0.4172878861427307,-0.8996700644493103,-0.10819937288761139,0.06897391378879547,0.15478515625,-0.09423828125,1.13623046875
2023-07-30T11:10:00.780280,0.4172878861427307,-0.8996700644493103,-0.10819937288761139,0.06897391378879547,0.16015625,-0.1962890625,1.12744140625
2023-07-30T11:10:00.781278,0.4214343726634979,-0.8982838988304138,-0.10506638139486313,0.06663379073143005,0.16015625,-0.1962890625,1.12744140625
2023-07-30T11:10:00.796281,0.4214343726634979,-0.8982838988304138,-0.10506638139486313,0.06663379073143005,0.16357421875,-0.2353515625,1.166015625
2023-07-30T11:10:00.796281,0.4254275858402252,-0.8969840407371521,-0.10195508599281311,0.06353039294481277,0.16357421875,-0.2353515625,1.166015625
2023-07-30T11:10:00.802279,0.4254275858402252,-0.8969840407371521,-0.10195508599281311,0.06353039294481277,0.0927734375,-0.17578125,1.048828125
2023-07-30T11:10:00.803277,0.4293389916419983,-0.8956040143966675,-0.09952680766582489,0.06046362966299057,0.0927734375,-0.17578125,1.048828125
2023-07-30T11:10:00.809287,0.4293389916419983,-0.8956040143966675,-0.09952680766582489,0.06046362966299057,0.04345703125,-0.08154296875,0.91943359375
2023-07-30T11:10:00.812280,0.4328440725803375,-0.8940685987472534,-0.09982029348611832,0.05764675512909889,0.04345703125,-0.08154296875,0.91943359375
2023-07-30T11:10:00.817432,0.4328440725803375,-0.8940685987472534,-0.09982029348611832,0.05764675512909889,0.03955078125,-0.037109375,0.849609375
2023-07-30T11:10:00.818290,0.4361938536167145,-0.8922795653343201,-0.10225070267915726,0.05582806468009949,0.03955078125,-0.037109375,0.849609375
2023-07-30T11:10:00.834322,0.4361938536167145,-0.8922795653343201,-0.10225070267915726,0.05582806468009949,0.08447265625,-0.06298828125,0.92578125
2023-07-30T11:10:00.835321,0.4396200180053711,-0.890423059463501,-0.10488249361515045,0.05367187410593033,0.08447265625,-0.06298828125,0.92578125
2023-07-30T11:10:00.839422,0.4396200180053711,-0.890423059463501,-0.10488249361515045,0.05367187410593033,0.103515625,-0.138671875,0.9833984375
2023-07-30T11:10:00.842413,0.44417813420295715,-0.8881915807723999,-0.10622702538967133,0.050372082740068436,0.103515625,-0.138671875,0.9833984375
2023-07-30T11:10:00.848546,0.44417813420295715,-0.8881915807723999,-0.10622702538967133,0.050372082740068436,0.0810546875,-0.25,0.96875
2023-07-30T11:10:00.848546,0.4489068388938904,-0.8860417604446411,-0.10668312013149261,0.04507046937942505,0.0810546875,-0.25,0.96875
2023-07-30T11:10:00.918123,0.4489068388938904,-0.8860417604446411,-0.10668312013149261,0.04507046937942505,0.0244140625,-0.3115234375,0.92919921875
2023-07-30T11:10:00.919120,0.45129361748695374,-0.885251522064209,-0.1056639701128006,0.03871651738882065,0.0244140625,-0.3115234375,0.92919921875
2023-07-30T11:10:00.919120,0.45129361748695374,-0.885251522064209,-0.1056639701128006,0.03871651738882065,-0.10205078125,-0.3544921875,0.845703125
2023-07-30T11:10:00.920117,0.45313066244125366,-0.8846837282180786,-0.10405700653791428,0.03434381261467934,-0.10205078125,-0.3544921875,0.845703125
2023-07-30T11:10:00.920117,0.45313066244125366,-0.8846837282180786,-0.10405700653791428,0.03434381261467934,-0.12353515625,-0.20263671875,0.66552734375
2023-07-30T11:10:00.921115,0.4556807577610016,-0.8834758400917053,-0.10363029688596725,0.03295915201306343,-0.12353515625,-0.20263671875,0.66552734375
2023-07-30T11:10:00.921115,0.4556807577610016,-0.8834758400917053,-0.10363029688596725,0.03295915201306343,-0.12646484375,-0.07861328125,0.68994140625
2023-07-30T11:10:00.921115,0.4581012725830078,-0.8819778561592102,-0.10550865530967712,0.0335589237511158,-0.12646484375,-0.07861328125,0.68994140625
2023-07-30T11:10:00.922112,0.4581012725830078,-0.8819778561592102,-0.10550865530967712,0.0335589237511158,-0.05859375,-0.14111328125,0.76123046875
2023-07-30T11:10:00.922112,0.4599676728248596,-0.8806454539299011,-0.1085008978843689,0.033478379249572754,-0.05859375,-0.14111328125,0.76123046875
2023-07-30T11:10:00.923110,0.4599676728248596,-0.8806454539299011,-0.1085008978843689,0.033478379249572754,-0.03564453125,-0.2109375,0.82177734375
2023-07-30T11:10:00.923110,0.4617888927459717,-0.8793754577636719,-0.11112356185913086,0.03318721428513527,-0.03564453125,-0.2109375,0.82177734375
2023-07-30T11:10:00.923110,0.4617888927459717,-0.8793754577636719,-0.11112356185913086,0.03318721428513527,-0.05517578125,-0.20361328125,0.81982421875
2023-07-30T11:10:00.956301,0.4639665484428406,-0.8779649138450623,-0.11330807954072952,0.032770827412605286,-0.05517578125,-0.20361328125,0.81982421875
2023-07-30T11:10:00.956806,0.4639665484428406,-0.8779649138450623,-0.11330807954072952,0.032770827412605286,-0.09326171875,-0.2392578125,0.78125
2023-07-30T11:10:00.956806,0.4667545557022095,-0.8762083053588867,-0.11542840301990509,0.03279396891593933,-0.09326171875,-0.2392578125,0.78125
2023-07-30T11:10:00.956806,0.4667545557022095,-0.8762083053588867,-0.11542840301990509,0.03279396891593933,-0.11376953125,-0.24609375,0.76416015625
2023-07-30T11:10:00.957806,0.4693733751773834,-0.8745200634002686,-0.11729424446821213,0.03384200856089592,-0.11376953125,-0.24609375,0.76416015625
2023-07-30T11:10:00.957806,0.4693733751773834,-0.8745200634002686,-0.11729424446821213,0.03384200856089592,-0.11279296875,-0.1767578125,0.826171875
2023-07-30T11:10:00.958804,0.47186893224716187,-0.8728452324867249,-0.11866047233343124,0.03742332011461258,-0.11279296875,-0.1767578125,0.826171875
2023-07-30T11:10:00.959801,0.47186893224716187,-0.8728452324867249,-0.11866047233343124,0.03742332011461258,-0.06884765625,-0.13818359375,0.82421875
2023-07-30T11:10:00.967807,0.4721536338329315,-0.8723933100700378,-0.11988574266433716,0.040350291877985,-0.06884765625,-0.13818359375,0.82421875
2023-07-30T11:10:00.968805,0.4721536338329315,-0.8723933100700378,-0.11988574266433716,0.040350291877985,-0.04736328125,-0.1416015625,0.9052734375
2023-07-30T11:10:00.987799,0.4708194136619568,-0.8728798031806946,-0.12084359675645828,0.04250684380531311,-0.04736328125,-0.1416015625,0.9052734375
2023-07-30T11:10:00.988797,0.4708194136619568,-0.8728798031806946,-0.12084359675645828,0.04250684380531311,-0.02734375,-0.0859375,1.01953125
2023-07-30T11:10:00.989794,0.46921801567077637,-0.8735650777816772,-0.12125080823898315,0.04490896686911583,-0.02734375,-0.0859375,1.01953125
2023-07-30T11:10:01.030391,0.46921801567077637,-0.8735650777816772,-0.12125080823898315,0.04490896686911583,0.0302734375,-0.046875,1.1044921875
2023-07-30T11:10:01.031388,0.46753063797950745,-0.8743818998336792,-0.12105460464954376,0.04708774387836456,0.0302734375,-0.046875,1.1044921875
2023-07-30T11:10:01.035881,0.46753063797950745,-0.8743818998336792,-0.12105460464954376,0.04708774387836456,0.0546875,-0.017578125,1.15966796875
2023-07-30T11:10:01.036385,0.46599051356315613,-0.8751621842384338,-0.12053553014993668,0.0491434782743454,0.0546875,-0.017578125,1.15966796875
2023-07-30T11:10:01.037476,0.46599051356315613,-0.8751621842384338,-0.12053553014993668,0.0491434782743454,0.0810546875,0.02783203125,1.18115234375
2023-07-30T11:10:01.037476,0.46478137373924255,-0.8758388161659241,-0.11965818703174591,0.05066097155213356,0.0810546875,0.02783203125,1.18115234375
2023-07-30T11:10:01.038392,0.46478137373924255,-0.8758388161659241,-0.11965818703174591,0.05066097155213356,0.0986328125,0.0771484375,1.2216796875
2023-07-30T11:10:01.039390,0.46439456939697266,-0.8760693669319153,-0.11904215067625046,0.051663581281900406,0.0986328125,0.0771484375,1.2216796875
2023-07-30T11:10:01.040388,0.46439456939697266,-0.8760693669319153,-0.11904215067625046,0.051663581281900406,0.10009765625,0.10888671875,1.2763671875
2023-07-30T11:10:01.040388,0.4651893973350525,-0.8756150007247925,-0.11852791160345078,0.05336927995085716,0.10009765625,0.10888671875,1.2763671875
2023-07-30T11:10:01.041385,0.4651893973350525,-0.8756150007247925,-0.11852791160345078,0.05336927995085716,0.12353515625,0.138671875,1.31787109375
2023-07-30T11:10:01.042383,0.4653529226779938,-0.8754472136497498,-0.11855442821979523,0.05462351813912392,0.12353515625,0.138671875,1.31787109375
2023-07-30T11:10:01.055374,0.4653529226779938,-0.8754472136497498,-0.11855442821979523,0.05462351813912392,0.16845703125,0.14794921875,1.34765625
2023-07-30T11:10:01.057496,0.4655041992664337,-0.8752785921096802,-0.1190742626786232,0.05490433797240257,0.16845703125,0.14794921875,1.34765625
2023-07-30T11:10:01.058391,0.4655041992664337,-0.8752785921096802,-0.1190742626786232,0.05490433797240257,0.171875,0.1630859375,1.421875
2023-07-30T11:10:01.058391,0.46621039509773254,-0.8748897314071655,-0.1194835677742958,0.0542171411216259,0.171875,0.1630859375,1.421875
2023-07-30T11:10:01.101881,0.46621039509773254,-0.8748897314071655,-0.1194835677742958,0.0542171411216259,0.193359375,0.16357421875,1.421875
2023-07-30T11:10:01.103876,0.46704933047294617,-0.8745806217193604,-0.11931588500738144,0.05231979489326477,0.193359375,0.16357421875,1.421875
2023-07-30T11:10:01.103876,0.46704933047294617,-0.8745806217193604,-0.11931588500738144,0.05231979489326477,0.17578125,0.11083984375,1.388671875
2023-07-30T11:10:01.105459,0.46809834241867065,-0.874249279499054,-0.11878194659948349,0.04962875694036484,0.17578125,0.11083984375,1.388671875
2023-07-30T11:10:01.106383,0.46809834241867065,-0.874249279499054,-0.11878194659948349,0.04962875694036484,0.16552734375,0.0908203125,1.369140625
2023-07-30T11:10:01.107483,0.46897080540657043,-0.8741798996925354,-0.11736404895782471,0.045842550694942474,0.16552734375,0.0908203125,1.369140625
2023-07-30T11:10:01.107483,0.46897080540657043,-0.8741798996925354,-0.11736404895782471,0.045842550694942474,0.13720703125,0.09619140625,1.29248046875
2023-07-30T11:10:01.108479,0.46965277194976807,-0.8742079138755798,-0.11601555347442627,0.04155910387635231,0.13720703125,0.09619140625,1.29248046875
2023-07-30T11:10:01.109477,0.46965277194976807,-0.8742079138755798,-0.11601555347442627,0.04155910387635231,0.10888671875,0.10546875,1.21484375
2023-07-30T11:10:01.117593,0.470417320728302,-0.8741142749786377,-0.11509305238723755,0.03722056746482849,0.10888671875,0.10546875,1.21484375
2023-07-30T11:10:01.118609,0.470417320728302,-0.8741142749786377,-0.11509305238723755,0.03722056746482849,0.1005859375,0.10888671875,1.17431640625
2023-07-30T11:10:01.124592,0.47117578983306885,-0.8739116787910461,-0.11483719199895859,0.03292730450630188,0.1005859375,0.10888671875,1.17431640625
2023-07-30T11:10:01.126093,0.47117578983306885,-0.8739116787910461,-0.11483719199895859,0.03292730450630188,0.10205078125,0.08935546875,1.1806640625
2023-07-30T11:10:01.126093,0.4723162353038788,-0.8734650015830994,-0.11482320725917816,0.028141098096966743,0.10205078125,0.08935546875,1.1806640625
2023-07-30T11:10:01.139170,0.4723162353038788,-0.8734650015830994,-0.11482320725917816,0.028141098096966743,0.10009765625,0.044921875,1.1826171875
2023-07-30T11:10:01.141165,0.473820298910141,-0.8728663325309753,-0.11443307995796204,0.0224447101354599,0.10009765625,0.044921875,1.1826171875
2023-07-30T11:10:01.146160,0.473820298910141,-0.8728663325309753,-0.11443307995796204,0.0224447101354599,0.0517578125,-0.0224609375,1.173828125
2023-07-30T11:10:01.147596,0.4777495265007019,-0.8709714412689209,-0.11320850998163223,0.01865525171160698,0.0517578125,-0.0224609375,1.173828125
2023-07-30T11:10:01.154580,0.4777495265007019,-0.8709714412689209,-0.11320850998163223,0.01865525171160698,0.06494140625,0.00634765625,1.1357421875
2023-07-30T11:10:01.155578,0.4825800955295563,-0.8687613010406494,-0.11034229397773743,0.013954983092844486,0.06494140625,0.00634765625,1.1357421875
2023-07-30T11:10:01.169130,0.4825800955295563,-0.8687613010406494,-0.11034229397773743,0.013954983092844486,0.0390625,-0.0712890625,1.0751953125
2023-07-30T11:10:01.170127,0.4895550012588501,-0.8653429746627808,-0.10696413367986679,0.00872588250786066,0.0390625,-0.0712890625,1.0751953125
2023-07-30T11:10:01.177206,0.4895550012588501,-0.8653429746627808,-0.10696413367986679,0.00872588250786066,-0.0380859375,-0.087890625,0.90869140625
2023-07-30T11:10:01.178214,0.49589061737060547,-0.8621490001678467,-0.10382958501577377,0.0033186583314090967,-0.0380859375,-0.087890625,0.90869140625
2023-07-30T11:10:01.185195,0.49589061737060547,-0.8621490001678467,-0.10382958501577377,0.0033186583314090967,-0.06689453125,-0.05126953125,0.830078125
2023-07-30T11:10:01.185195,0.5006468296051025,-0.8597813844680786,-0.10061172395944595,-0.0024170060642063618,-0.06689453125,-0.05126953125,0.830078125
2023-07-30T11:10:01.191543,0.5006468296051025,-0.8597813844680786,-0.10061172395944595,-0.0024170060642063618,-0.02685546875,-0.08203125,0.93310546875
2023-07-30T11:10:01.200546,0.5043349862098694,-0.8581333160400391,-0.09557053446769714,-0.010939783416688442,-0.02685546875,-0.08203125,0.93310546875
2023-07-30T11:10:01.207157,0.5043349862098694,-0.8581333160400391,-0.09557053446769714,-0.010939783416688442,-0.03662109375,-0.1357421875,0.9912109375
2023-07-30T11:10:01.222148,0.5080384612083435,-0.8565047383308411,-0.08852563798427582,-0.021441807970404625,-0.03662109375,-0.1357421875,0.9912109375
2023-07-30T11:10:01.223143,0.5080384612083435,-0.8565047383308411,-0.08852563798427582,-0.021441807970404625,-0.13818359375,-0.1298828125,0.87353515625
2023-07-30T11:10:01.223143,0.512533962726593,-0.8542296290397644,-0.08132286369800568,-0.03142029047012329,-0.13818359375,-0.1298828125,0.87353515625
2023-07-30T11:10:01.238191,0.512533962726593,-0.8542296290397644,-0.08132286369800568,-0.03142029047012329,-0.23046875,-0.07666015625,0.68603515625
2023-07-30T11:10:01.239186,0.5188490748405457,-0.8505674600601196,-0.07613632082939148,-0.039162080734968185,-0.23046875,-0.07666015625,0.68603515625
2023-07-30T11:10:01.239186,0.5188490748405457,-0.8505674600601196,-0.07613632082939148,-0.039162080734968185,-0.2373046875,-0.03759765625,0.5732421875
2023-07-30T11:10:01.254184,0.5261503458023071,-0.8460710644721985,-0.07246951758861542,-0.04558183625340462,-0.2373046875,-0.03759765625,0.5732421875
2023-07-30T11:10:01.255181,0.5261503458023071,-0.8460710644721985,-0.07246951758861542,-0.04558183625340462,-0.2294921875,-0.05322265625,0.55615234375
2023-07-30T11:10:01.256187,0.5330842733383179,-0.8416206240653992,-0.06948134303092957,-0.0516551174223423,-0.2294921875,-0.05322265625,0.55615234375
2023-07-30T11:10:01.259513,0.5330842733383179,-0.8416206240653992,-0.06948134303092957,-0.0516551174223423,-0.22607421875,-0.14794921875,0.59814453125
2023-07-30T11:10:01.260509,0.5384839773178101,-0.8379972577095032,-0.06616561114788055,-0.05846139043569565,-0.22607421875,-0.14794921875,0.59814453125
2023-07-30T11:10:01.267279,0.5384839773178101,-0.8379972577095032,-0.06616561114788055,-0.05846139043569565,-0.2421875,-0.1298828125,0.6591796875
2023-07-30T11:10:01.267279,0.5407291650772095,-0.8363985419273376,-0.06223931163549423,-0.06461887061595917,-0.2421875,-0.1298828125,0.6591796875
2023-07-30T11:10:01.282682,0.5407291650772095,-0.8363985419273376,-0.06223931163549423,-0.06461887061595917,-0.3125,-0.08642578125,0.6708984375
2023-07-30T11:10:01.283680,0.5418292284011841,-0.8355600833892822,-0.058741532266139984,-0.06935358047485352,-0.3125,-0.08642578125,0.6708984375
2023-07-30T11:10:01.283680,0.5418292284011841,-0.8355600833892822,-0.058741532266139984,-0.06935358047485352,-0.35205078125,-0.06298828125,0.6865234375
2023-07-30T11:10:01.289749,0.5437324643135071,-0.8342373371124268,-0.05656053498387337,-0.07213881611824036,-0.35205078125,-0.06298828125,0.6865234375
2023-07-30T11:10:01.297751,0.5437324643135071,-0.8342373371124268,-0.05656053498387337,-0.07213881611824036,-0.36083984375,-0.0244140625,0.66357421875
2023-07-30T11:10:01.298749,0.5449777245521545,-0.8333665132522583,-0.055503759533166885,-0.07361216843128204,-0.36083984375,-0.0244140625,0.66357421875
2023-07-30T11:10:01.303733,0.5449777245521545,-0.8333665132522583,-0.055503759533166885,-0.07361216843128204,-0.369140625,-0.072265625,0.70703125
2023-07-30T11:10:01.305241,0.543723464012146,-0.8342291712760925,-0.05337279289960861,-0.07468369603157043,-0.369140625,-0.072265625,0.70703125
2023-07-30T11:10:01.314245,0.543723464012146,-0.8342291712760925,-0.05337279289960861,-0.07468369603157043,-0.36865234375,-0.0693359375,0.78271484375
2023-07-30T11:10:01.315242,0.5403636693954468,-0.8366146087646484,-0.05033993721008301,-0.07449199259281158,-0.36865234375,-0.0693359375,0.78271484375
2023-07-30T11:10:01.327596,0.5403636693954468,-0.8366146087646484,-0.05033993721008301,-0.07449199259281158,-0.35595703125,-0.03076171875,0.8427734375
2023-07-30T11:10:01.327596,0.5370824933052063,-0.8390015959739685,-0.047386180609464645,-0.07330238819122314,-0.35595703125,-0.03076171875,0.8427734375
2023-07-30T11:10:01.334579,0.5370824933052063,-0.8390015959739685,-0.047386180609464645,-0.07330238819122314,-0.32763671875,0.00146484375,0.9248046875
2023-07-30T11:10:01.336082,0.5340213775634766,-0.8412621021270752,-0.044959258288145065,-0.07125966995954514,-0.32763671875,0.00146484375,0.9248046875
2023-07-30T11:10:01.342465,0.5340213775634766,-0.8412621021270752,-0.044959258288145065,-0.07125966995954514,-0.31005859375,0.03662109375,0.99072265625
2023-07-30T11:10:01.343463,0.5330672860145569,-0.8421472311019897,-0.04356931895017624,-0.0687684416770935,-0.31005859375,0.03662109375,0.99072265625
2023-07-30T11:10:01.357370,0.5330672860145569,-0.8421472311019897,-0.04356931895017624,-0.0687684416770935,-0.296875,0.12890625,1.02490234375
2023-07-30T11:10:01.357370,0.5313009023666382,-0.8435217142105103,-0.04248021915555,-0.06622631847858429,-0.296875,0.12890625,1.02490234375
2023-07-30T11:10:01.364352,0.5313009023666382,-0.8435217142105103,-0.04248021915555,-0.06622631847858429,-0.23583984375,0.19482421875,1.1455078125
2023-07-30T11:10:01.366434,0.5279325246810913,-0.8458869457244873,-0.04079151526093483,-0.06402036547660828,-0.23583984375,0.19482421875,1.1455078125
2023-07-30T11:10:01.372529,0.5279325246810913,-0.8458869457244873,-0.04079151526093483,-0.06402036547660828,-0.17431640625,0.21240234375,1.3232421875
2023-07-30T11:10:01.373526,0.5258368253707886,-0.8473526239395142,-0.0392724834382534,-0.06282378733158112,-0.17431640625,0.21240234375,1.3232421875
2023-07-30T11:10:01.387132,0.5258368253707886,-0.8473526239395142,-0.0392724834382534,-0.06282378733158112,-0.17822265625,0.2314453125,1.35595703125
2023-07-30T11:10:01.388131,0.5258777737617493,-0.8473969101905823,-0.03871694207191467,-0.062225695699453354,-0.17822265625,0.2314453125,1.35595703125
2023-07-30T11:10:01.394116,0.5258777737617493,-0.8473969101905823,-0.03871694207191467,-0.062225695699453354,-0.1923828125,0.2705078125,1.3408203125
2023-07-30T11:10:01.395113,0.5260213017463684,-0.8473477363586426,-0.03841140866279602,-0.061870597302913666,-0.1923828125,0.2705078125,1.3408203125
2023-07-30T11:10:01.404104,0.5260213017463684,-0.8473477363586426,-0.03841140866279602,-0.061870597302913666,-0.18359375,0.28271484375,1.380859375
2023-07-30T11:10:01.405101,0.5253432989120483,-0.8478100895881653,-0.037744827568531036,-0.06170760095119476,-0.18359375,0.28271484375,1.380859375
2023-07-30T11:10:01.417388,0.5253432989120483,-0.8478100895881653,-0.037744827568531036,-0.06170760095119476,-0.18115234375,0.29443359375,1.4365234375
2023-07-30T11:10:01.418309,0.5240058898925781,-0.8486651182174683,-0.037082940340042114,-0.06172703951597214,-0.18115234375,0.29443359375,1.4365234375
2023-07-30T11:10:01.424293,0.5240058898925781,-0.8486651182174683,-0.037082940340042114,-0.06172703951597214,-0.1826171875,0.30029296875,1.40283203125
2023-07-30T11:10:01.426299,0.52372145652771,-0.8488056659698486,-0.03659374266862869,-0.062495775520801544,-0.1826171875,0.30029296875,1.40283203125
2023-07-30T11:10:01.432520,0.52372145652771,-0.8488056659698486,-0.03659374266862869,-0.062495775520801544,-0.19677734375,0.31103515625,1.373046875
2023-07-30T11:10:01.434513,0.5234358310699463,-0.8489081859588623,-0.036541230976581573,-0.06351880729198456,-0.19677734375,0.31103515625,1.373046875
2023-07-30T11:10:01.458077,0.5234358310699463,-0.8489081859588623,-0.036541230976581573,-0.06351880729198456,-0.1748046875,0.328125,1.35302734375
2023-07-30T11:10:01.458077,0.523185670375824,-0.8489319682121277,-0.03689457103610039,-0.06503888219594955,-0.1748046875,0.328125,1.35302734375
2023-07-30T11:10:01.460073,0.523185670375824,-0.8489319682121277,-0.03689457103610039,-0.06503888219594955,-0.15966796875,0.3515625,1.31494140625
2023-07-30T11:10:01.461070,0.5227522850036621,-0.8490084409713745,-0.03767183795571327,-0.06704923510551453,-0.15966796875,0.3515625,1.31494140625
2023-07-30T11:10:01.462068,0.5227522850036621,-0.8490084409713745,-0.03767183795571327,-0.06704923510551453,-0.1767578125,0.32373046875,1.26123046875
2023-07-30T11:10:01.463065,0.5226457118988037,-0.8488220572471619,-0.03893187642097473,-0.06947655975818634,-0.1767578125,0.32373046875,1.26123046875
2023-07-30T11:10:01.478156,0.5226457118988037,-0.8488220572471619,-0.03893187642097473,-0.06947655975818634,-0.1865234375,0.2939453125,1.19580078125
2023-07-30T11:10:01.479153,0.5227379202842712,-0.8484558463096619,-0.04084344208240509,-0.07210758328437805,-0.1865234375,0.2939453125,1.19580078125
2023-07-30T11:10:01.484141,0.5227379202842712,-0.8484558463096619,-0.04084344208240509,-0.07210758328437805,-0.18798828125,0.240234375,1.14501953125
2023-07-30T11:10:01.485138,0.5236424803733826,-0.8475636839866638,-0.04241666570305824,-0.07506672292947769,-0.18798828125,0.240234375,1.14501953125
2023-07-30T11:10:01.492176,0.5236424803733826,-0.8475636839866638,-0.04241666570305824,-0.07506672292947769,-0.14208984375,0.20947265625,1.1650390625
2023-07-30T11:10:01.492176,0.5277776122093201,-0.8444055914878845,-0.04498086869716644,-0.08004166185855865,-0.14208984375,0.20947265625,1.1650390625
2023-07-30T11:10:01.499599,0.5277776122093201,-0.8444055914878845,-0.04498086869716644,-0.08004166185855865,-0.21923828125,0.24267578125,0.98828125
2023-07-30T11:10:01.506597,0.5315818190574646,-0.8413922786712646,-0.047976963222026825,-0.08472344279289246,-0.21923828125,0.24267578125,0.98828125
2023-07-30T11:10:01.515086,0.5315818190574646,-0.8413922786712646,-0.047976963222026825,-0.08472344279289246,-0.27734375,0.201171875,0.8505859375
2023-07-30T11:10:01.516085,0.5351795554161072,-0.8384872078895569,-0.05155354365706444,-0.08868112415075302,-0.27734375,0.201171875,0.8505859375
2023-07-30T11:10:01.522449,0.5351795554161072,-0.8384872078895569,-0.05155354365706444,-0.08868112415075302,-0.26318359375,0.18212890625,0.8662109375
2023-07-30T11:10:01.522449,0.53934246301651,-0.8351511359214783,-0.055426474660634995,-0.09252163767814636,-0.26318359375,0.18212890625,0.8662109375
2023-07-30T11:10:01.529452,0.53934246301651,-0.8351511359214783,-0.055426474660634995,-0.09252163767814636,-0.25146484375,0.2197265625,0.86181640625
2023-07-30T11:10:01.529452,0.5433580875396729,-0.8318312168121338,-0.05908825993537903,-0.09657768160104752,-0.25146484375,0.2197265625,0.86181640625
2023-07-30T11:10:01.551048,0.5433580875396729,-0.8318312168121338,-0.05908825993537903,-0.09657768160104752,-0.2568359375,0.2158203125,0.85302734375
2023-07-30T11:10:01.554041,0.5472663044929504,-0.8284761309623718,-0.062228139489889145,-0.10126449167728424,-0.2568359375,0.2158203125,0.85302734375
2023-07-30T11:10:01.554041,0.5472663044929504,-0.8284761309623718,-0.062228139489889145,-0.10126449167728424,-0.28076171875,0.203125,0.79248046875
2023-07-30T11:10:01.554041,0.5514752864837646,-0.8248240351676941,-0.06533417850732803,-0.10616863518953323,-0.28076171875,0.203125,0.79248046875
2023-07-30T11:10:01.560068,0.5514752864837646,-0.8248240351676941,-0.06533417850732803,-0.10616863518953323,-0.31884765625,0.17626953125,0.68701171875
2023-07-30T11:10:01.566080,0.5557544231414795,-0.8210664391517639,-0.06908732652664185,-0.11051633954048157,-0.31884765625,0.17626953125,0.68701171875
2023-07-30T11:10:01.576229,0.5557544231414795,-0.8210664391517639,-0.06908732652664185,-0.11051633954048157,-0.3212890625,0.154296875,0.62451171875
2023-07-30T11:10:01.577239,0.5596330165863037,-0.8175166249275208,-0.07342613488435745,-0.11439397931098938,-0.3212890625,0.154296875,0.62451171875
2023-07-30T11:10:01.583782,0.5596330165863037,-0.8175166249275208,-0.07342613488435745,-0.11439397931098938,-0.33642578125,0.0947265625,0.60107421875
2023-07-30T11:10:01.583782,0.5628867149353027,-0.8144037127494812,-0.07817641645669937,-0.11744587123394012,-0.33642578125,0.0947265625,0.60107421875
2023-07-30T11:10:01.607805,0.5628867149353027,-0.8144037127494812,-0.07817641645669937,-0.11744587123394012,-0.3564453125,0.01123046875,0.60498046875
2023-07-30T11:10:01.608804,0.5653166770935059,-0.8119513988494873,-0.0829564556479454,-0.11945822834968567,-0.3564453125,0.01123046875,0.60498046875
2023-07-30T11:10:01.609801,0.5653166770935059,-0.8119513988494873,-0.0829564556479454,-0.11945822834968567,-0.35400390625,-0.0419921875,0.63623046875
2023-07-30T11:10:01.610798,0.5668790340423584,-0.8101856112480164,-0.08771327883005142,-0.12063927948474884,-0.35400390625,-0.0419921875,0.63623046875
2023-07-30T11:10:01.613791,0.5668790340423584,-0.8101856112480164,-0.08771327883005142,-0.12063927948474884,-0.341796875,-0.06201171875,0.7001953125
2023-07-30T11:10:01.623793,0.5671221017837524,-0.80948805809021,-0.0918029323220253,-0.1211356520652771,-0.341796875,-0.06201171875,0.7001953125
2023-07-30T11:10:01.625301,0.5671221017837524,-0.80948805809021,-0.0918029323220253,-0.1211356520652771,-0.3173828125,-0.09375,0.7763671875
2023-07-30T11:10:01.626809,0.5669966340065002,-0.8091310858726501,-0.09525071084499359,-0.12144578248262405,-0.3173828125,-0.09375,0.7763671875
2023-07-30T11:10:01.638808,0.5669966340065002,-0.8091310858726501,-0.09525071084499359,-0.12144578248262405,-0.3310546875,-0.09375,0.79736328125
2023-07-30T11:10:01.639805,0.5665836334228516,-0.8090550303459167,-0.09857923537492752,-0.12122318148612976,-0.3310546875,-0.09375,0.79736328125
2023-07-30T11:10:01.645303,0.5665836334228516,-0.8090550303459167,-0.09857923537492752,-0.12122318148612976,-0.32177734375,-0.11669921875,0.8466796875
2023-07-30T11:10:01.646305,0.5661450624465942,-0.8090060353279114,-0.1018211841583252,-0.12091931700706482,-0.32177734375,-0.11669921875,0.8466796875
2023-07-30T11:10:01.658806,0.5661450624465942,-0.8090060353279114,-0.1018211841583252,-0.12091931700706482,-0.30810546875,-0.1767578125,0.8896484375
2023-07-30T11:10:01.659804,0.5657569766044617,-0.808999240398407,-0.10463005304336548,-0.12038229405879974,-0.30810546875,-0.1767578125,0.8896484375
2023-07-30T11:10:01.667811,0.5657569766044617,-0.808999240398407,-0.10463005304336548,-0.12038229405879974,-0.32080078125,-0.228515625,0.87158203125
2023-07-30T11:10:01.668808,0.5649738311767578,-0.8093899488449097,-0.10708747804164886,-0.11926731467247009,-0.32080078125,-0.228515625,0.87158203125
2023-07-30T11:10:01.673794,0.5649738311767578,-0.8093899488449097,-0.10708747804164886,-0.11926731467247009,-0.330078125,-0.265625,0.84619140625
2023-07-30T11:10:01.673794,0.563504695892334,-0.8104288578033447,-0.10908247530460358,-0.11733949929475784,-0.330078125,-0.265625,0.84619140625
2023-07-30T11:10:01.679800,0.563504695892334,-0.8104288578033447,-0.10908247530460358,-0.11733949929475784,-0.3271484375,-0.267578125,0.876953125
2023-07-30T11:10:01.680798,0.561292290687561,-0.8121733069419861,-0.11060409992933273,-0.11442093551158905,-0.3271484375,-0.267578125,0.876953125
2023-07-30T11:10:01.695296,0.561292290687561,-0.8121733069419861,-0.11060409992933273,-0.11442093551158905,-0.29150390625,-0.236328125,0.97509765625
2023-07-30T11:10:01.696297,0.5588403940200806,-0.8141646981239319,-0.11166323721408844,-0.11119620501995087,-0.29150390625,-0.236328125,0.97509765625
2023-07-30T11:10:01.702798,0.5588403940200806,-0.8141646981239319,-0.11166323721408844,-0.11119620501995087,-0.2666015625,-0.17333984375,1.0654296875
2023-07-30T11:10:01.703796,0.5565404891967773,-0.8160679340362549,-0.11242756247520447,-0.10796233266592026,-0.2666015625,-0.17333984375,1.0654296875
2023-07-30T11:10:01.709809,0.5565404891967773,-0.8160679340362549,-0.11242756247520447,-0.10796233266592026,-0.21435546875,-0.0673828125,1.13134765625
2023-07-30T11:10:01.717814,0.5544236302375793,-0.8178156614303589,-0.11292123049497604,-0.10507533699274063,-0.21435546875,-0.0673828125,1.13134765625
2023-07-30T11:10:01.747812,0.5544236302375793,-0.8178156614303589,-0.11292123049497604,-0.10507533699274063,-0.1953125,0.00927734375,1.2041015625
2023-07-30T11:10:01.748810,0.5530825257301331,-0.8189776539802551,-0.11312399804592133,-0.10285046696662903,-0.1953125,0.00927734375,1.2041015625
2023-07-30T11:10:01.749808,0.5530825257301331,-0.8189776539802551,-0.11312399804592133,-0.10285046696662903,-0.19580078125,0.06787109375,1.2607421875
2023-07-30T11:10:01.769803,0.5525091886520386,-0.8195927739143372,-0.11288128793239594,-0.1012876033782959,-0.19580078125,0.06787109375,1.2607421875
2023-07-30T11:10:01.783790,0.5525091886520386,-0.8195927739143372,-0.11288128793239594,-0.1012876033782959,-0.20556640625,0.1162109375,1.29736328125
2023-07-30T11:10:01.785296,0.5524661540985107,-0.8198413252830505,-0.11233660578727722,-0.1001092717051506,-0.20556640625,0.1162109375,1.29736328125
2023-07-30T11:10:01.800926,0.5524661540985107,-0.8198413252830505,-0.11233660578727722,-0.1001092717051506,-0.19580078125,0.1748046875,1.3388671875
2023-07-30T11:10:01.801923,0.5530471205711365,-0.8196340203285217,-0.11146146804094315,-0.09957509487867355,-0.19580078125,0.1748046875,1.3388671875
2023-07-30T11:10:01.808927,0.5530471205711365,-0.8196340203285217,-0.11146146804094315,-0.09957509487867355,-0.2099609375,0.25048828125,1.35009765625
2023-07-30T11:10:01.813913,0.5538055300712585,-0.8192641139030457,-0.11062068492174149,-0.09934131056070328,-0.2099609375,0.25048828125,1.35009765625
2023-07-30T11:10:01.815420,0.5538055300712585,-0.8192641139030457,-0.11062068492174149,-0.09934131056070328,-0.2041015625,0.34375,1.33447265625
2023-07-30T11:10:01.815420,0.5544754266738892,-0.8188767433166504,-0.10999420285224915,-0.09949351847171783,-0.2041015625,0.34375,1.33447265625
2023-07-30T11:10:01.825161,0.5544754266738892,-0.8188767433166504,-0.10999420285224915,-0.09949351847171783,-0.19384765625,0.4013671875,1.34228515625
2023-07-30T11:10:01.825161,0.5552271604537964,-0.8183049559593201,-0.10971512645483017,-0.10031139105558395,-0.19384765625,0.4013671875,1.34228515625
2023-07-30T11:10:01.826164,0.5552271604537964,-0.8183049559593201,-0.10971512645483017,-0.10031139105558395,-0.185546875,0.43505859375,1.37451171875
2023-07-30T11:10:01.830663,0.5560317635536194,-0.817599892616272,-0.10933718085289001,-0.1020025834441185,-0.185546875,0.43505859375,1.37451171875
2023-07-30T11:10:01.831660,0.5560317635536194,-0.817599892616272,-0.10933718085289001,-0.1020025834441185,-0.1591796875,0.48046875,1.3935546875
2023-07-30T11:10:01.837667,0.5572183132171631,-0.8164843916893005,-0.10880915075540543,-0.10498300939798355,-0.1591796875,0.48046875,1.3935546875
2023-07-30T11:10:01.838665,0.5572183132171631,-0.8164843916893005,-0.10880915075540543,-0.10498300939798355,-0.185546875,0.4775390625,1.36181640625
2023-07-30T11:10:01.839662,0.5598881840705872,-0.8141664862632751,-0.10855299234390259,-0.10896994918584824,-0.185546875,0.4775390625,1.36181640625
2023-07-30T11:10:01.845159,0.5598881840705872,-0.8141664862632751,-0.10855299234390259,-0.10896994918584824,-0.2373046875,0.4482421875,1.25390625
2023-07-30T11:10:01.845159,0.5632846355438232,-0.8111960291862488,-0.10878793895244598,-0.11329886317253113,-0.2373046875,0.4482421875,1.25390625
2023-07-30T11:10:01.847664,0.5632846355438232,-0.8111960291862488,-0.10878793895244598,-0.11329886317253113,-0.25537109375,0.39501953125,1.19873046875
2023-07-30T11:10:01.851654,0.5668041110038757,-0.8080728650093079,-0.10893639177083969,-0.11783047765493393,-0.25537109375,0.39501953125,1.19873046875
2023-07-30T11:10:01.852651,0.5668041110038757,-0.8080728650093079,-0.10893639177083969,-0.11783047765493393,-0.24755859375,0.34912109375,1.14892578125
2023-07-30T11:10:01.853648,0.570154070854187,-0.8049700856208801,-0.10870266705751419,-0.12300906330347061,-0.24755859375,0.34912109375,1.14892578125
2023-07-30T11:10:01.859658,0.570154070854187,-0.8049700856208801,-0.10870266705751419,-0.12300906330347061,-0.26806640625,0.29736328125,1.05517578125
2023-07-30T11:10:01.867659,0.5733686685562134,-0.8019155859947205,-0.10819356888532639,-0.12835118174552917,-0.26806640625,0.29736328125,1.05517578125
2023-07-30T11:10:01.868657,0.5733686685562134,-0.8019155859947205,-0.10819356888532639,-0.12835118174552917,-0.28125,0.3046875,0.94580078125
2023-07-30T11:10:01.869654,0.5761373043060303,-0.7991083264350891,-0.1080816313624382,-0.13345402479171753,-0.28125,0.3046875,0.94580078125
2023-07-30T11:10:01.876658,0.5761373043060303,-0.7991083264350891,-0.1080816313624382,-0.13345402479171753,-0.28466796875,0.31982421875,0.86474609375
2023-07-30T11:10:01.877659,0.5785409808158875,-0.7964526414871216,-0.10877295583486557,-0.1382819563150406,-0.28466796875,0.31982421875,0.86474609375
2023-07-30T11:10:01.883643,0.5785409808158875,-0.7964526414871216,-0.10877295583486557,-0.1382819563150406,-0.294921875,0.28955078125,0.833984375
2023-07-30T11:10:01.883643,0.5804774761199951,-0.7940249443054199,-0.11032992601394653,-0.14281976222991943,-0.294921875,0.28955078125,0.833984375
2023-07-30T11:10:01.889654,0.5804774761199951,-0.7940249443054199,-0.11032992601394653,-0.14281976222991943,-0.30322265625,0.2109375,0.84130859375
2023-07-30T11:10:01.890651,0.5820614695549011,-0.7918396592140198,-0.11211639642715454,-0.14705196022987366,-0.30322265625,0.2109375,0.84130859375
2023-07-30T11:10:01.903639,0.5820614695549011,-0.7918396592140198,-0.11211639642715454,-0.14705196022987366,-0.32275390625,0.1279296875,0.85693359375
2023-07-30T11:10:01.905145,0.5835156440734863,-0.7897415161132812,-0.1138639897108078,-0.15117156505584717,-0.32275390625,0.1279296875,0.85693359375
2023-07-30T11:10:01.912220,0.5835156440734863,-0.7897415161132812,-0.1138639897108078,-0.15117156505584717,-0.34423828125,0.0732421875,0.8369140625
2023-07-30T11:10:01.912220,0.5845694541931152,-0.788051187992096,-0.11511081457138062,-0.1549297571182251,-0.34423828125,0.0732421875,0.8369140625
2023-07-30T11:10:01.927354,0.5845694541931152,-0.788051187992096,-0.11511081457138062,-0.1549297571182251,-0.3505859375,0.01904296875,0.79443359375
2023-07-30T11:10:01.927354,0.5857322216033936,-0.7863690853118896,-0.1160561665892601,-0.15834267437458038,-0.3505859375,0.01904296875,0.79443359375
2023-07-30T11:10:01.928388,0.5857322216033936,-0.7863690853118896,-0.1160561665892601,-0.15834267437458038,-0.3642578125,0.00048828125,0.7421875
2023-07-30T11:10:01.934371,0.5870816111564636,-0.784584105014801,-0.11703692376613617,-0.16144751012325287,-0.3642578125,0.00048828125,0.7421875
2023-07-30T11:10:01.941752,0.5870816111564636,-0.784584105014801,-0.11703692376613617,-0.16144751012325287,-0.38330078125,-0.03662109375,0.70068359375
2023-07-30T11:10:01.942748,0.5885782837867737,-0.7827647924423218,-0.11799072474241257,-0.1641128957271576,-0.38330078125,-0.03662109375,0.70068359375
2023-07-30T11:10:01.949744,0.5885782837867737,-0.7827647924423218,-0.11799072474241257,-0.1641128957271576,-0.40234375,-0.09228515625,0.67041015625
2023-07-30T11:10:01.949744,0.5900110602378845,-0.7811312675476074,-0.11873241513967514,-0.1662033647298813,-0.40234375,-0.09228515625,0.67041015625
2023-07-30T11:10:01.957266,0.5900110602378845,-0.7811312675476074,-0.11873241513967514,-0.1662033647298813,-0.412109375,-0.11572265625,0.6513671875
2023-07-30T11:10:01.957266,0.5912021994590759,-0.7798193097114563,-0.1193295419216156,-0.16769680380821228,-0.412109375,-0.11572265625,0.6513671875
2023-07-30T11:10:01.971762,0.5912021994590759,-0.7798193097114563,-0.1193295419216156,-0.16769680380821228,-0.42822265625,-0.1484375,0.63427734375
2023-07-30T11:10:01.972759,0.5921398997306824,-0.7788607478141785,-0.11983469873666763,-0.16848143935203552,-0.42822265625,-0.1484375,0.63427734375
2023-07-30T11:10:01.979626,0.5921398997306824,-0.7788607478141785,-0.11983469873666763,-0.16848143935203552,-0.43798828125,-0.1650390625,0.60546875
2023-07-30T11:10:01.979626,0.5923886299133301,-0.7785959243774414,-0.120567686855793,-0.1683078557252884,-0.43798828125,-0.1650390625,0.60546875
2023-07-30T11:10:01.986626,0.5923886299133301,-0.7785959243774414,-0.120567686855793,-0.1683078557252884,-0.40673828125,-0.16064453125,0.599609375
2023-07-30T11:10:01.987626,0.5917842388153076,-0.779114305973053,-0.12123898416757584,-0.167551189661026,-0.40673828125,-0.16064453125,0.599609375
2023-07-30T11:10:02.002135,0.5917842388153076,-0.779114305973053,-0.12123898416757584,-0.167551189661026,-0.3916015625,-0.1904296875,0.63330078125
2023-07-30T11:10:02.010299,0.590752363204956,-0.780092716217041,-0.12173507362604141,-0.16627530753612518,-0.3916015625,-0.1904296875,0.63330078125
2023-07-30T11:10:02.010299,0.590752363204956,-0.780092716217041,-0.12173507362604141,-0.16627530753612518,-0.40380859375,-0.23583984375,0.63818359375
2023-07-30T11:10:02.017394,0.5893278121948242,-0.7815241813659668,-0.12204401195049286,-0.16437140107154846,-0.40380859375,-0.23583984375,0.63818359375
2023-07-30T11:10:02.018300,0.5893278121948242,-0.7815241813659668,-0.12204401195049286,-0.16437140107154846,-0.4052734375,-0.28173828125,0.6796875
2023-07-30T11:10:02.018300,0.5879071354866028,-0.7831591367721558,-0.12196188420057297,-0.16171640157699585,-0.4052734375,-0.28173828125,0.6796875
2023-07-30T11:10:02.032290,0.5879071354866028,-0.7831591367721558,-0.12196188420057297,-0.16171640157699585,-0.408203125,-0.29443359375,0.73388671875
2023-07-30T11:10:02.039456,0.5866210460662842,-0.7849022746086121,-0.12145541608333588,-0.15828049182891846,-0.408203125,-0.29443359375,0.73388671875
2023-07-30T11:10:02.040453,0.5866210460662842,-0.7849022746086121,-0.12145541608333588,-0.15828049182891846,-0.41455078125,-0.2421875,0.7490234375
2023-07-30T11:10:02.041450,0.584919273853302,-0.7871853113174438,-0.12071006000041962,-0.15374618768692017,-0.41455078125,-0.2421875,0.7490234375
2023-07-30T11:10:02.047455,0.584919273853302,-0.7871853113174438,-0.12071006000041962,-0.15374618768692017,-0.38037109375,-0.1806640625,0.7705078125
2023-07-30T11:10:02.047455,0.582728922367096,-0.7899593710899353,-0.11992794275283813,-0.14835242927074432,-0.38037109375,-0.1806640625,0.7705078125
2023-07-30T11:10:02.053990,0.582728922367096,-0.7899593710899353,-0.11992794275283813,-0.14835242927074432,-0.33154296875,-0.140625,0.84423828125
2023-07-30T11:10:02.063074,0.5805227160453796,-0.7928169369697571,-0.11890880763530731,-0.1424621343612671,-0.33154296875,-0.140625,0.84423828125
2023-07-30T11:10:02.070089,0.5805227160453796,-0.7928169369697571,-0.11890880763530731,-0.1424621343612671,-0.28173828125,-0.07568359375,0.921875
2023-07-30T11:10:02.077394,0.5784369707107544,-0.7955173254013062,-0.11770698428153992,-0.13677707314491272,-0.28173828125,-0.07568359375,0.921875
2023-07-30T11:10:02.078334,0.5784369707107544,-0.7955173254013062,-0.11770698428153992,-0.13677707314491272,-0.26708984375,-0.0439453125,0.95703125
2023-07-30T11:10:02.078334,0.5764515995979309,-0.7980682849884033,-0.11640122532844543,-0.131306454539299,-0.26708984375,-0.0439453125,0.95703125
2023-07-30T11:10:02.085316,0.5764515995979309,-0.7980682849884033,-0.11640122532844543,-0.131306454539299,-0.2685546875,-0.02783203125,0.99560546875
2023-07-30T11:10:02.085820,0.5746201276779175,-0.800531268119812,-0.1149064302444458,-0.1255304515361786,-0.2685546875,-0.02783203125,0.99560546875
2023-07-30T11:10:02.099552,0.5746201276779175,-0.800531268119812,-0.1149064302444458,-0.1255304515361786,-0.2705078125,0.03125,1.072265625
2023-07-30T11:10:02.099552,0.5727106928825378,-0.8030463457107544,-0.11338582634925842,-0.11942657083272934,-0.2705078125,0.03125,1.072265625
2023-07-30T11:10:02.107046,0.5727106928825378,-0.8030463457107544,-0.11338582634925842,-0.11942657083272934,-0.25732421875,0.10546875,1.17919921875
2023-07-30T11:10:02.108047,0.5703961849212646,-0.8058496117591858,-0.11130750924348831,-0.11342481523752213,-0.25732421875,0.10546875,1.17919921875
2023-07-30T11:10:02.116053,0.5703961849212646,-0.8058496117591858,-0.11130750924348831,-0.11342481523752213,-0.2509765625,0.1572265625,1.27294921875
2023-07-30T11:10:02.116053,0.5681521892547607,-0.8086040019989014,-0.1084909439086914,-0.10766769200563431,-0.2509765625,0.1572265625,1.27294921875
2023-07-30T11:10:02.130066,0.5681521892547607,-0.8086040019989014,-0.1084909439086914,-0.10766769200563431,-0.23486328125,0.23583984375,1.3095703125
2023-07-30T11:10:02.130066,0.5659447312355042,-0.811292827129364,-0.10512379556894302,-0.1022716611623764,-0.23486328125,0.23583984375,1.3095703125
2023-07-30T11:10:02.137252,0.5659447312355042,-0.811292827129364,-0.10512379556894302,-0.1022716611623764,-0.18408203125,0.33837890625,1.32568359375
2023-07-30T11:10:02.138082,0.563743531703949,-0.8138698935508728,-0.10136298835277557,-0.09764523059129715,-0.18408203125,0.33837890625,1.32568359375
2023-07-30T11:10:02.145567,0.563743531703949,-0.8138698935508728,-0.10136298835277557,-0.09764523059129715,-0.1591796875,0.41650390625,1.337890625
2023-07-30T11:10:02.146075,0.5619085431098938,-0.8160091638565063,-0.09768161922693253,-0.09405412524938583,-0.1591796875,0.41650390625,1.337890625
2023-07-30T11:10:02.162075,0.5619085431098938,-0.8160091638565063,-0.09768161922693253,-0.09405412524938583,-0.1650390625,0.47705078125,1.3017578125
2023-07-30T11:10:02.162075,0.560323178768158,-0.8177898526191711,-0.09462915360927582,-0.09112158417701721,-0.1650390625,0.47705078125,1.3017578125
2023-07-30T11:10:02.167239,0.560323178768158,-0.8177898526191711,-0.09462915360927582,-0.09112158417701721,-0.1640625,0.52783203125,1.27685546875
2023-07-30T11:10:02.168083,0.5589655637741089,-0.8192522525787354,-0.09227240830659866,-0.08870688825845718,-0.1640625,0.52783203125,1.27685546875
2023-07-30T11:10:02.175065,0.5589655637741089,-0.8192522525787354,-0.09227240830659866,-0.08870688825845718,-0.1630859375,0.56201171875,1.29150390625
2023-07-30T11:10:02.175570,0.5582451224327087,-0.820101797580719,-0.09078335762023926,-0.08691313117742538,-0.1630859375,0.56201171875,1.29150390625
2023-07-30T11:10:02.189244,0.5582451224327087,-0.820101797580719,-0.09078335762023926,-0.08691313117742538,-0.189453125,0.56884765625,1.31201171875
2023-07-30T11:10:02.197312,0.5580320954322815,-0.8204719424247742,-0.09004613012075424,-0.08554341644048691,-0.189453125,0.56884765625,1.31201171875
2023-07-30T11:10:02.198314,0.5580320954322815,-0.8204719424247742,-0.09004613012075424,-0.08554341644048691,-0.2001953125,0.56494140625,1.3359375
2023-07-30T11:10:02.199310,0.5579530596733093,-0.8206735849380493,-0.08964677900075912,-0.0845380425453186,-0.2001953125,0.56494140625,1.3359375
2023-07-30T11:10:02.204298,0.5579530596733093,-0.8206735849380493,-0.08964677900075912,-0.0845380425453186,-0.18359375,0.546875,1.3408203125
2023-07-30T11:10:02.213300,0.5580296516418457,-0.8207173943519592,-0.0889669731259346,-0.08432509750127792,-0.18359375,0.546875,1.3408203125
2023-07-30T11:10:02.219311,0.5580296516418457,-0.8207173943519592,-0.0889669731259346,-0.08432509750127792,-0.16943359375,0.52099609375,1.3583984375
2023-07-30T11:10:02.220308,0.5591102242469788,-0.819983720779419,-0.0876985490322113,-0.0856238380074501,-0.16943359375,0.52099609375,1.3583984375
2023-07-30T11:10:02.227752,0.5591102242469788,-0.819983720779419,-0.0876985490322113,-0.0856238380074501,-0.19580078125,0.51416015625,1.27490234375
2023-07-30T11:10:02.228749,0.5601708292961121,-0.8192073106765747,-0.0862298533320427,-0.08759250491857529,-0.19580078125,0.51416015625,1.27490234375
2023-07-30T11:10:02.233735,0.5601708292961121,-0.8192073106765747,-0.0862298533320427,-0.08759250491857529,-0.21044921875,0.48486328125,1.17626953125
2023-07-30T11:10:02.235244,0.561616837978363,-0.8180847764015198,-0.08510201424360275,-0.08989657461643219,-0.21044921875,0.48486328125,1.17626953125
2023-07-30T11:10:02.249741,0.561616837978363,-0.8180847764015198,-0.08510201424360275,-0.08989657461643219,-0.1865234375,0.4990234375,1.13818359375
2023-07-30T11:10:02.250737,0.5631433725357056,-0.8167926669120789,-0.08431030809879303,-0.09279602020978928,-0.1865234375,0.4990234375,1.13818359375
2023-07-30T11:10:02.257742,0.5631433725357056,-0.8167926669120789,-0.08431030809879303,-0.09279602020978928,-0.1767578125,0.47265625,1.0908203125
2023-07-30T11:10:02.258740,0.5647714138031006,-0.8152986168861389,-0.08399387449026108,-0.09626265615224838,-0.1767578125,0.47265625,1.0908203125
2023-07-30T11:10:02.263726,0.5647714138031006,-0.8152986168861389,-0.08399387449026108,-0.09626265615224838,-0.20703125,0.41943359375,1.0263671875
2023-07-30T11:10:02.266234,0.5666322708129883,-0.8135151267051697,-0.0843198299407959,-0.10005660355091095,-0.20703125,0.41943359375,1.0263671875
2023-07-30T11:10:02.279733,0.5666322708129883,-0.8135151267051697,-0.0843198299407959,-0.10005660355091095,-0.23583984375,0.3603515625,0.97119140625
2023-07-30T11:10:02.280732,0.5687642097473145,-0.8114302158355713,-0.08540403097867966,-0.1038961187005043,-0.23583984375,0.3603515625,0.97119140625
2023-07-30T11:10:02.287388,0.5687642097473145,-0.8114302158355713,-0.08540403097867966,-0.1038961187005043,-0.2490234375,0.28955078125,0.947265625
2023-07-30T11:10:02.293880,0.5710086226463318,-0.8092041611671448,-0.08678649365901947,-0.1077309176325798,-0.2490234375,0.28955078125,0.947265625
2023-07-30T11:10:02.295387,0.5710086226463318,-0.8092041611671448,-0.08678649365901947,-0.1077309176325798,-0.2666015625,0.20849609375,0.923828125
2023-07-30T11:10:02.295387,0.57319176197052,-0.8070018291473389,-0.08789411187171936,-0.11168625205755234,-0.2666015625,0.20849609375,0.923828125
2023-07-30T11:10:02.309881,0.57319176197052,-0.8070018291473389,-0.08789411187171936,-0.11168625205755234,-0.2919921875,0.13916015625,0.86474609375
2023-07-30T11:10:02.309881,0.5753354430198669,-0.8048437237739563,-0.08874256908893585,-0.1155005395412445,-0.2919921875,0.13916015625,0.86474609375
2023-07-30T11:10:02.317558,0.5753354430198669,-0.8048437237739563,-0.08874256908893585,-0.1155005395412445,-0.310546875,0.10791015625,0.7890625
2023-07-30T11:10:02.317884,0.5773129463195801,-0.8028290867805481,-0.08967507630586624,-0.11888409405946732,-0.310546875,0.10791015625,0.7890625
2023-07-30T11:10:02.323869,0.5773129463195801,-0.8028290867805481,-0.08967507630586624,-0.11888409405946732,-0.31494140625,0.07958984375,0.7412109375
2023-07-30T11:10:02.331871,0.578906238079071,-0.8010995984077454,-0.09086959809064865,-0.1218593567609787,-0.31494140625,0.07958984375,0.7412109375
2023-07-30T11:10:02.332869,0.578906238079071,-0.8010995984077454,-0.09086959809064865,-0.1218593567609787,-0.32080078125,0.02978515625,0.72216796875
2023-07-30T11:10:02.332869,0.5800869464874268,-0.7996962070465088,-0.09218958765268326,-0.12444349378347397,-0.32080078125,0.02978515625,0.72216796875
2023-07-30T11:10:02.346931,0.5800869464874268,-0.7996962070465088,-0.09218958765268326,-0.12444349378347397,-0.3232421875,0.001953125,0.71875
2023-07-30T11:10:02.347932,0.5808111429214478,-0.7986794114112854,-0.09338211268186569,-0.1266859620809555,-0.3232421875,0.001953125,0.71875
2023-07-30T11:10:02.353916,0.5808111429214478,-0.7986794114112854,-0.09338211268186569,-0.1266859620809555,-0.3427734375,-0.0224609375,0.71142578125
2023-07-30T11:10:02.355423,0.5812230110168457,-0.7979505062103271,-0.0945768803358078,-0.1284913867712021,-0.3427734375,-0.0224609375,0.71142578125
2023-07-30T11:10:02.361918,0.5812230110168457,-0.7979505062103271,-0.0945768803358078,-0.1284913867712021,-0.36572265625,-0.07666015625,0.72119140625
2023-07-30T11:10:02.362915,0.5819233059883118,-0.797085702419281,-0.09578870981931686,-0.12978501617908478,-0.36572265625,-0.07666015625,0.72119140625
2023-07-30T11:10:02.377505,0.5819233059883118,-0.797085702419281,-0.09578870981931686,-0.12978501617908478,-0.3779296875,-0.11669921875,0.72998046875
2023-07-30T11:10:02.377919,0.5828415155410767,-0.7961602210998535,-0.09686294943094254,-0.13054592907428741,-0.3779296875,-0.11669921875,0.72998046875
2023-07-30T11:10:02.383904,0.5828415155410767,-0.7961602210998535,-0.09686294943094254,-0.13054592907428741,-0.3818359375,-0.1630859375,0.7265625
2023-07-30T11:10:02.385411,0.5840231776237488,-0.7951512336730957,-0.09752590954303741,-0.13092035055160522,-0.3818359375,-0.1630859375,0.7265625
2023-07-30T11:10:02.391905,0.5840231776237488,-0.7951512336730957,-0.09752590954303741,-0.13092035055160522,-0.38671875,-0.2080078125,0.70703125
2023-07-30T11:10:02.392902,0.5851073861122131,-0.7943664789199829,-0.09757020324468613,-0.13080982863903046,-0.38671875,-0.2080078125,0.70703125
2023-07-30T11:10:02.407766,0.5851073861122131,-0.7943664789199829,-0.09757020324468613,-0.13080982863903046,-0.38720703125,-0.24365234375,0.6748046875
2023-07-30T11:10:02.407766,0.5856905579566956,-0.7941398620605469,-0.09692078083753586,-0.13005684316158295,-0.38720703125,-0.24365234375,0.6748046875
2023-07-30T11:10:02.413751,0.5856905579566956,-0.7941398620605469,-0.09692078083753586,-0.13005684316158295,-0.39697265625,-0.29443359375,0.65380859375
2023-07-30T11:10:02.415317,0.5859178900718689,-0.7944180965423584,-0.09552010148763657,-0.1283589005470276,-0.39697265625,-0.29443359375,0.65380859375
2023-07-30T11:10:02.421753,0.5859178900718689,-0.7944180965423584,-0.09552010148763657,-0.1283589005470276,-0.396484375,-0.29736328125,0.6220703125
2023-07-30T11:10:02.422751,0.5851851105690002,-0.7956507802009583,-0.09346567094326019,-0.1255485564470291,-0.396484375,-0.29736328125,0.6220703125
2023-07-30T11:10:02.437760,0.5851851105690002,-0.7956507802009583,-0.09346567094326019,-0.1255485564470291,-0.38330078125,-0.27197265625,0.60693359375
2023-07-30T11:10:02.437760,0.583391010761261,-0.7978655695915222,-0.09126842021942139,-0.12139007449150085,-0.38330078125,-0.27197265625,0.60693359375
2023-07-30T11:10:02.445251,0.583391010761261,-0.7978655695915222,-0.09126842021942139,-0.12139007449150085,-0.3642578125,-0.2470703125,0.640625
2023-07-30T11:10:02.445251,0.5807393193244934,-0.800852358341217,-0.08916168659925461,-0.11587731540203094,-0.3642578125,-0.2470703125,0.640625
2023-07-30T11:10:02.451744,0.5807393193244934,-0.800852358341217,-0.08916168659925461,-0.11587731540203094,-0.35595703125,-0.2236328125,0.71337890625
2023-07-30T11:10:02.452741,0.577809751033783,-0.8040967583656311,-0.08741271495819092,-0.10919374227523804,-0.35595703125,-0.2236328125,0.71337890625
