Timestamp,w,x,y,z,ax,ay,az
2023-07-30T13:45:38.721932,0.7808436155319214,-0.4890458881855011,0.2104501724243164,0.3268456757068634,0.1123046875,0.935546875,0.17236328125
2023-07-30T13:45:38.737949,0.7808436155319214,-0.4890458881855011,0.2104501724243164,0.3268456757068634,0.09716796875,0.9365234375,0.185546875
2023-07-30T13:45:38.737949,0.9999988675117493,0.0013529384741559625,0.0006125109503045678,-0.00033024244476109743,0.09716796875,0.9365234375,0.185546875
2023-07-30T13:45:38.737949,0.9999988675117493,0.0013529384741559625,0.0006125109503045678,-0.00033024244476109743,0.07568359375,0.955078125,0.1962890625
2023-07-30T13:45:38.737949,0.9999964237213135,0.002200207207351923,0.0013618137454614043,-0.0007172097102738917,0.07568359375,0.955078125,0.1962890625
2023-07-30T13:45:38.800437,0.9999964237213135,0.002200207207351923,0.0013618137454614043,-0.0007172097102738917,0.083984375,0.96728515625,0.181640625
2023-07-30T13:45:38.800437,0.9999922513961792,0.003265696344897151,0.00200596172362566,-0.0009196479222737253,0.083984375,0.96728515625,0.181640625
2023-07-30T13:45:38.800437,0.9999922513961792,0.003265696344897151,0.00200596172362566,-0.0009196479222737253,0.0673828125,0.96240234375,0.193359375
2023-07-30T13:45:38.800437,0.9999842047691345,0.004810940008610487,0.0027503969613462687,-0.0009789009345695376,0.0673828125,0.96240234375,0.193359375
2023-07-30T13:45:38.816059,0.9999842047691345,0.004810940008610487,0.0027503969613462687,-0.0009789009345695376,0.06640625,0.95068359375,0.1845703125
2023-07-30T13:45:38.816059,0.9999745488166809,0.006169725209474564,0.003390543395653367,-0.0011707001831382513,0.06640625,0.95068359375,0.1845703125
2023-07-30T13:45:38.832191,0.9999745488166809,0.006169725209474564,0.003390543395653367,-0.0011707001831382513,0.068359375,0.9580078125,0.1787109375
2023-07-30T13:45:38.832191,0.9999644160270691,0.007287945132702589,0.0039822617545723915,-0.0014691202668473125,0.068359375,0.9580078125,0.1787109375
2023-07-30T13:45:38.832191,0.9999644160270691,0.007287945132702589,0.0039822617545723915,-0.0014691202668473125,0.06298828125,0.97021484375,0.17822265625
2023-07-30T13:45:38.832191,0.999954342842102,0.008256090804934502,0.004482785705476999,-0.0017377682961523533,0.06298828125,0.97021484375,0.17822265625
2023-07-30T13:45:38.847698,0.999954342842102,0.008256090804934502,0.004482785705476999,-0.0017377682961523533,0.0556640625,0.97998046875,0.18212890625
2023-07-30T13:45:38.847698,0.9999434947967529,0.009224413894116879,0.004914315417408943,-0.0019385549239814281,0.0556640625,0.97998046875,0.18212890625
2023-07-30T13:45:38.863324,0.9999434947967529,0.009224413894116879,0.004914315417408943,-0.0019385549239814281,0.0576171875,0.9873046875,0.18896484375
2023-07-30T13:45:38.863324,0.9999317526817322,0.01016621571034193,0.00532512878999114,-0.002170984400436282,0.0576171875,0.9873046875,0.18896484375
2023-07-30T13:45:38.863324,0.9999317526817322,0.01016621571034193,0.00532512878999114,-0.002170984400436282,0.0673828125,0.96923828125,0.181640625
2023-07-30T13:45:38.863324,0.9999223947525024,0.010823621414601803,0.0056840283796191216,-0.0024129601661115885,0.0673828125,0.96923828125,0.181640625
2023-07-30T13:45:38.878944,0.9999223947525024,0.010823621414601803,0.0056840283796191216,-0.0024129601661115885,0.072265625,0.97705078125,0.1591796875
2023-07-30T13:45:38.878944,0.9999139308929443,0.01129611860960722,0.006044249050319195,-0.002832552185282111,0.072265625,0.97705078125,0.1591796875
2023-07-30T13:45:38.894566,0.9999139308929443,0.01129611860960722,0.006044249050319195,-0.002832552185282111,0.05419921875,1.01123046875,0.16162109375
2023-07-30T13:45:38.894566,0.9999139308929443,0.011186257936060429,0.006130208261311054,-0.0030995807610452175,0.05419921875,1.01123046875,0.16162109375
2023-07-30T13:45:38.894566,0.9999139308929443,0.011186257936060429,0.006130208261311054,-0.0030995807610452175,0.0380859375,0.99560546875,0.1953125
2023-07-30T13:45:38.894566,0.999914824962616,0.010968625545501709,0.006365194451063871,-0.003095620311796665,0.0380859375,0.99560546875,0.1953125
2023-07-30T13:45:38.910188,0.999914824962616,0.010968625545501709,0.006365194451063871,-0.003095620311796665,0.05712890625,0.97119140625,0.19384765625
2023-07-30T13:45:38.910188,0.9999110102653503,0.011174649931490421,0.006606630980968475,-0.0030942715238779783,0.05712890625,0.97119140625,0.19384765625
2023-07-30T13:45:38.925809,0.9999110102653503,0.011174649931490421,0.006606630980968475,-0.0030942715238779783,0.076171875,0.9619140625,0.16845703125
2023-07-30T13:45:38.925809,0.9999015927314758,0.011786877177655697,0.006982770748436451,-0.0030151221435517073,0.076171875,0.9619140625,0.16845703125
2023-07-30T13:45:38.932316,0.9999015927314758,0.011786877177655697,0.006982770748436451,-0.0030151221435517073,0.08154296875,0.9541015625,0.1552734375
2023-07-30T13:45:38.932316,0.9998865723609924,0.012668912298977375,0.007625522091984749,-0.002850470831617713,0.08154296875,0.9541015625,0.1552734375
2023-07-30T13:45:38.932316,0.9998865723609924,0.012668912298977375,0.007625522091984749,-0.002850470831617713,0.07958984375,0.94970703125,0.15771484375
2023-07-30T13:45:38.941824,0.9998598098754883,0.014078524895012379,0.008666479960083961,-0.002663707360625267,0.07958984375,0.94970703125,0.15771484375
2023-07-30T13:45:38.941824,0.9998598098754883,0.014078524895012379,0.008666479960083961,-0.002663707360625267,0.0693359375,1.001953125,0.17333984375
2023-07-30T13:45:38.941824,0.9998278021812439,0.015536464750766754,0.009708899073302746,-0.002966915024444461,0.0693359375,1.001953125,0.17333984375
2023-07-30T13:45:38.957448,0.9998278021812439,0.015536464750766754,0.009708899073302746,-0.002966915024444461,0.0283203125,0.96484375,0.1787109375
2023-07-30T13:45:38.957448,0.9998213648796082,0.015754705294966698,0.010053273290395737,-0.002816256834194064,0.0283203125,0.96484375,0.1787109375
2023-07-30T13:45:38.957448,0.9998213648796082,0.015754705294966698,0.010053273290395737,-0.002816256834194064,0.046875,0.92578125,0.1748046875
2023-07-30T13:45:38.973070,0.9998198747634888,0.015246144495904446,0.010818352922797203,-0.00327322562225163,0.046875,0.92578125,0.1748046875
2023-07-30T13:45:38.973070,0.9998198747634888,0.015246144495904446,0.010818352922797203,-0.00327322562225163,0.07080078125,0.9677734375,0.14501953125
2023-07-30T13:45:38.973070,0.9998167753219604,0.014851084910333157,0.011409075930714607,-0.003954858519136906,0.07080078125,0.9677734375,0.14501953125
2023-07-30T13:45:39.004312,0.9998167753219604,0.014851084910333157,0.011409075930714607,-0.003954858519136906,0.03466796875,0.99072265625,0.1513671875
2023-07-30T13:45:39.004312,0.9998264908790588,0.013869947753846645,0.011690942570567131,-0.004234332125633955,0.03466796875,0.99072265625,0.1513671875
2023-07-30T13:45:39.004312,0.9998264908790588,0.013869947753846645,0.011690942570567131,-0.004234332125633955,0.0205078125,0.97314453125,0.19921875
2023-07-30T13:45:39.004312,0.9998310208320618,0.013105549849569798,0.012087080627679825,-0.0044726161286234856,0.0205078125,0.97314453125,0.19921875
2023-07-30T13:45:39.004312,0.9998310208320618,0.013105549849569798,0.012087080627679825,-0.0044726161286234856,0.044921875,0.97509765625,0.19189453125
2023-07-30T13:45:39.004312,0.9998310208320618,0.012684711255133152,0.012337680906057358,-0.004974903538823128,0.044921875,0.97509765625,0.19189453125
2023-07-30T13:45:39.019934,0.9998310208320618,0.012684711255133152,0.012337680906057358,-0.004974903538823128,0.0810546875,0.9951171875,0.16259765625
2023-07-30T13:45:39.019934,0.9998388290405273,0.011829830706119537,0.01246593240648508,-0.0051996707916259766,0.0810546875,0.9951171875,0.16259765625
2023-07-30T13:45:39.019934,0.9998388290405273,0.011829830706119537,0.01246593240648508,-0.0051996707916259766,0.07421875,0.96240234375,0.16259765625
2023-07-30T13:45:39.019934,0.9998387098312378,0.011511674150824547,0.01280332449823618,-0.005102214869111776,0.07421875,0.96240234375,0.16259765625
2023-07-30T13:45:39.035949,0.9998387098312378,0.011511674150824547,0.01280332449823618,-0.005102214869111776,0.07373046875,0.970703125,0.17236328125
2023-07-30T13:45:39.035949,0.999821662902832,0.012344063259661198,0.01331122312694788,-0.005186849739402533,0.07373046875,0.970703125,0.17236328125
2023-07-30T13:45:39.051572,0.999821662902832,0.012344063259661198,0.01331122312694788,-0.005186849739402533,0.0634765625,0.98486328125,0.16650390625
2023-07-30T13:45:39.051572,0.9998024702072144,0.013453811407089233,0.013740107417106628,-0.005022499244660139,0.0634765625,0.98486328125,0.16650390625
2023-07-30T13:45:39.051572,0.9998024702072144,0.013453811407089233,0.013740107417106628,-0.005022499244660139,0.05517578125,0.98046875,0.16064453125
2023-07-30T13:45:39.051572,0.9997885823249817,0.014288298785686493,0.013955079019069672,-0.004894123412668705,0.05517578125,0.98046875,0.16064453125
2023-07-30T13:45:39.067194,0.9997885823249817,0.014288298785686493,0.013955079019069672,-0.004894123412668705,0.0498046875,0.98291015625,0.16845703125
2023-07-30T13:45:39.067194,0.999783456325531,0.014646160416305065,0.01395332720130682,-0.004899118561297655,0.0498046875,0.98291015625,0.16845703125
2023-07-30T13:45:39.082815,0.999783456325531,0.014646160416305065,0.01395332720130682,-0.004899118561297655,0.04541015625,0.978515625,0.17041015625
2023-07-30T13:45:39.082815,0.999779462814331,0.014909293502569199,0.013952036388218403,-0.004902790300548077,0.04541015625,0.978515625,0.17041015625
2023-07-30T13:45:39.082815,0.999779462814331,0.014909293502569199,0.013952036388218403,-0.004902790300548077,0.06201171875,0.98828125,0.15771484375
2023-07-30T13:45:39.082815,0.9997709393501282,0.015512771904468536,0.013947256840765476,-0.00478870514780283,0.06201171875,0.98828125,0.15771484375
2023-07-30T13:45:39.098436,0.9997709393501282,0.015512771904468536,0.013947256840765476,-0.00478870514780283,0.06884765625,0.9814453125,0.15087890625
2023-07-30T13:45:39.098436,0.9997572302818298,0.016467740759253502,0.013937567360699177,-0.0044714012183249,0.06884765625,0.9814453125,0.15087890625
2023-07-30T13:45:39.098436,0.9997572302818298,0.016467740759253502,0.013937567360699177,-0.0044714012183249,0.06884765625,0.96435546875,0.15576171875
2023-07-30T13:45:39.098436,0.9997382760047913,0.01756931282579899,0.014039621688425541,-0.004191964399069548,0.06884765625,0.96435546875,0.15576171875
2023-07-30T13:45:39.114058,0.9997382760047913,0.01756931282579899,0.014039621688425541,-0.004191964399069548,0.0732421875,0.9560546875,0.1494140625
2023-07-30T13:45:39.114058,0.9997239708900452,0.018333984538912773,0.014108390547335148,-0.004106664098799229,0.0732421875,0.9560546875,0.1494140625
2023-07-30T13:45:39.132684,0.9997239708900452,0.018333984538912773,0.014108390547335148,-0.004106664098799229,0.07861328125,0.9462890625,0.1357421875
2023-07-30T13:45:39.132684,0.999718189239502,0.018538283184170723,0.01422511413693428,-0.0042074196971952915,0.07861328125,0.9462890625,0.1357421875
2023-07-30T13:45:39.132684,0.999718189239502,0.018538283184170723,0.01422511413693428,-0.0042074196971952915,0.08251953125,0.953125,0.14208984375
2023-07-30T13:45:39.132684,0.9997080564498901,0.018757840618491173,0.014575253240764141,-0.004409348592162132,0.08251953125,0.953125,0.14208984375
2023-07-30T13:45:39.145689,0.9997080564498901,0.018757840618491173,0.014575253240764141,-0.004409348592162132,0.0732421875,0.958984375,0.1484375
2023-07-30T13:45:39.145689,0.999688446521759,0.019400175660848618,0.01503761950880289,-0.004525785334408283,0.0732421875,0.958984375,0.1484375
2023-07-30T13:45:39.161313,0.999688446521759,0.019400175660848618,0.01503761950880289,-0.004525785334408283,0.0634765625,0.9609375,0.146484375
2023-07-30T13:45:39.161313,0.9996663928031921,0.020146870985627174,0.015498600900173187,-0.004586581140756607,0.0634765625,0.9609375,0.146484375
2023-07-30T13:45:39.161313,0.9996663928031921,0.020146870985627174,0.015498600900173187,-0.004586581140756607,0.05810546875,0.970703125,0.14111328125
2023-07-30T13:45:39.161313,0.9996628761291504,0.020093416795134544,0.015734948217868805,-0.004767016973346472,0.05810546875,0.970703125,0.14111328125
2023-07-30T13:45:39.176934,0.9996628761291504,0.020093416795134544,0.015734948217868805,-0.004767016973346472,0.05859375,0.95751953125,0.13916015625
2023-07-30T13:45:39.176934,0.9996746182441711,0.019242582842707634,0.015953240916132927,-0.005079647060483694,0.05859375,0.95751953125,0.13916015625
2023-07-30T13:45:39.192557,0.9996746182441711,0.019242582842707634,0.015953240916132927,-0.005079647060483694,0.0791015625,0.95556640625,0.1240234375
2023-07-30T13:45:39.192557,0.9996907711029053,0.018150655552744865,0.01605302281677723,-0.005586918443441391,0.0791015625,0.95556640625,0.1240234375
2023-07-30T13:45:39.192557,0.9996907711029053,0.018150655552744865,0.01605302281677723,-0.005586918443441391,0.0966796875,0.94775390625,0.11279296875
2023-07-30T13:45:39.192557,0.9997097253799438,0.016725048422813416,0.01618351601064205,-0.006230451632291079,0.0966796875,0.94775390625,0.11279296875
2023-07-30T13:45:39.208178,0.9997097253799438,0.016725048422813416,0.01618351601064205,-0.006230451632291079,0.10205078125,0.94189453125,0.1259765625
2023-07-30T13:45:39.208178,0.9997263550758362,0.014866803772747517,0.016508525237441063,-0.007327045314013958,0.10205078125,0.94189453125,0.1259765625
2023-07-30T13:45:39.223798,0.9997263550758362,0.014866803772747517,0.016508525237441063,-0.007327045314013958,0.099609375,0.95068359375,0.12890625
2023-07-30T13:45:39.223798,0.9997411370277405,0.012363957241177559,0.017031092196702957,-0.008646968752145767,0.099609375,0.95068359375,0.12890625
2023-07-30T13:45:39.232804,0.9997411370277405,0.012363957241177559,0.017031092196702957,-0.008646968752145767,0.08203125,0.9462890625,0.13232421875
2023-07-30T13:45:39.232804,0.9997467994689941,0.009239991195499897,0.01785542443394661,-0.01010518241673708,0.08203125,0.9462890625,0.13232421875
2023-07-30T13:45:39.239824,0.9997467994689941,0.009239991195499897,0.01785542443394661,-0.01010518241673708,0.06201171875,0.953125,0.1435546875
2023-07-30T13:45:39.239824,0.9997383952140808,0.00546291982755065,0.01874716579914093,-0.011903713457286358,0.06201171875,0.953125,0.1435546875
2023-07-30T13:45:39.239824,0.9997383952140808,0.00546291982755065,0.01874716579914093,-0.011903713457286358,0.0361328125,0.94921875,0.16552734375
2023-07-30T13:45:39.255449,0.9997069835662842,0.00018732711032498628,0.01974254660308361,-0.014004682190716267,0.0361328125,0.94921875,0.16552734375
2023-07-30T13:45:39.255449,0.9997069835662842,0.00018732711032498628,0.01974254660308361,-0.014004682190716267,0.01953125,0.931640625,0.193359375
2023-07-30T13:45:39.255449,0.9996175169944763,-0.0067861732095479965,0.021018298342823982,-0.01664014905691147,0.01953125,0.931640625,0.193359375
2023-07-30T13:45:39.271070,0.9996175169944763,-0.0067861732095479965,0.021018298342823982,-0.01664014905691147,0.01708984375,0.9423828125,0.2216796875
2023-07-30T13:45:39.271070,0.9994357228279114,-0.015082522295415401,0.02266952581703663,-0.01966475136578083,0.01708984375,0.9423828125,0.2216796875
2023-07-30T13:45:39.286690,0.9994357228279114,-0.015082522295415401,0.02266952581703663,-0.01966475136578083,0.0107421875,0.96728515625,0.24755859375
2023-07-30T13:45:39.286690,0.9991527795791626,-0.0241914764046669,0.02439281716942787,-0.022659463807940483,0.0107421875,0.96728515625,0.24755859375
2023-07-30T13:45:39.286690,0.9991527795791626,-0.0241914764046669,0.02439281716942787,-0.022659463807940483,0.0029296875,0.96728515625,0.26904296875
2023-07-30T13:45:39.286690,0.9987769722938538,-0.033280763775110245,0.02622832916676998,-0.025476163253188133,0.0029296875,0.96728515625,0.26904296875
2023-07-30T13:45:39.286690,0.9987769722938538,-0.033280763775110245,0.02622832916676998,-0.025476163253188133,-0.00537109375,0.966796875,0.2783203125
2023-07-30T13:45:39.302312,0.9983204007148743,-0.04206705465912819,0.028152598068118095,-0.028180519118905067,-0.00537109375,0.966796875,0.2783203125
2023-07-30T13:45:39.302312,0.9983204007148743,-0.04206705465912819,0.028152598068118095,-0.028180519118905067,-0.01318359375,0.98974609375,0.30517578125
2023-07-30T13:45:39.302312,0.9978326559066772,-0.04983000457286835,0.030252091586589813,-0.030524838715791702,-0.01318359375,0.98974609375,0.30517578125
2023-07-30T13:45:39.317933,0.9978326559066772,-0.04983000457286835,0.030252091586589813,-0.030524838715791702,-0.0390625,1.0185546875,0.353515625
2023-07-30T13:45:39.317933,0.9975029826164246,-0.054509613662958145,0.03172078728675842,-0.031786058098077774,-0.0390625,1.0185546875,0.353515625
2023-07-30T13:45:39.349568,0.9975029826164246,-0.054509613662958145,0.03172078728675842,-0.031786058098077774,-0.05908203125,0.99560546875,0.38818359375
2023-07-30T13:45:39.349568,0.9974210262298584,-0.055279914289712906,0.032432012259960175,-0.03230438753962517,-0.05908203125,0.99560546875,0.38818359375
2023-07-30T13:45:39.349568,0.9974210262298584,-0.055279914289712906,0.032432012259960175,-0.03230438753962517,-0.0556640625,0.9658203125,0.37060546875
2023-07-30T13:45:39.349568,0.9975237846374512,-0.05363090708851814,0.03227921202778816,-0.03206261619925499,-0.0556640625,0.9658203125,0.37060546875
2023-07-30T13:45:39.349568,0.9975237846374512,-0.05363090708851814,0.03227921202778816,-0.03206261619925499,-0.02734375,0.9599609375,0.33056640625
2023-07-30T13:45:39.349568,0.9976462721824646,-0.05142718926072121,0.032331522554159164,-0.03180824592709541,-0.02734375,0.9599609375,0.33056640625
2023-07-30T13:45:39.349568,0.9976462721824646,-0.05142718926072121,0.032331522554159164,-0.03180824592709541,-0.0166015625,0.94384765625,0.2978515625
2023-07-30T13:45:39.349568,0.997765064239502,-0.049435533583164215,0.03209911659359932,-0.031474169343709946,-0.0166015625,0.94384765625,0.2978515625
2023-07-30T13:45:39.365188,0.997765064239502,-0.049435533583164215,0.03209911659359932,-0.031474169343709946,-0.00244140625,0.94091796875,0.28125
2023-07-30T13:45:39.365188,0.9978435039520264,-0.04795847833156586,0.03219813480973244,-0.031171392649412155,-0.00244140625,0.94091796875,0.28125
2023-07-30T13:45:39.380812,0.9978435039520264,-0.04795847833156586,0.03219813480973244,-0.031171392649412155,0.01123046875,0.9375,0.2783203125
2023-07-30T13:45:39.380812,0.9978985786437988,-0.04678095877170563,0.03236698731780052,-0.031022487208247185,0.01123046875,0.9375,0.2783203125
2023-07-30T13:45:39.380812,0.9978985786437988,-0.04678095877170563,0.03236698731780052,-0.031022487208247185,0.0107421875,0.9384765625,0.2763671875
2023-07-30T13:45:39.396432,0.9979420304298401,-0.045682553201913834,0.03266318142414093,-0.030950579792261124,0.0107421875,0.9384765625,0.2763671875
2023-07-30T13:45:39.396432,0.9979420304298401,-0.045682553201913834,0.03266318142414093,-0.030950579792261124,0.00634765625,0.9462890625,0.2744140625
2023-07-30T13:45:39.396432,0.9979653358459473,-0.044986922293901443,0.0328834243118763,-0.03098415397107601,0.00634765625,0.9462890625,0.2744140625
2023-07-30T13:45:39.412053,0.9979653358459473,-0.044986922293901443,0.0328834243118763,-0.03098415397107601,0.0,0.9384765625,0.2783203125
2023-07-30T13:45:39.412053,0.9979678988456726,-0.04475386068224907,0.03310750424861908,-0.031002014875411987,0.0,0.9384765625,0.2783203125
2023-07-30T13:45:39.412053,0.9979678988456726,-0.04475386068224907,0.03310750424861908,-0.031002014875411987,0.00146484375,0.9306640625,0.28466796875
2023-07-30T13:45:39.412053,0.9979637861251831,-0.04455060511827469,0.033357784152030945,-0.031156986951828003,0.00146484375,0.9306640625,0.28466796875
2023-07-30T13:45:39.433182,0.9979637861251831,-0.04455060511827469,0.033357784152030945,-0.031156986951828003,0.00634765625,0.9345703125,0.27880859375
2023-07-30T13:45:39.433182,0.9979552626609802,-0.04428557679057121,0.03369501978158951,-0.031444352120161057,0.00634765625,0.9345703125,0.27880859375
2023-07-30T13:45:39.433182,0.9979552626609802,-0.04428557679057121,0.03369501978158951,-0.031444352120161057,-0.0009765625,0.94140625,0.275390625
2023-07-30T13:45:39.443685,0.9979417324066162,-0.04411202296614647,0.034061022102832794,-0.03172222524881363,-0.0009765625,0.94140625,0.275390625
2023-07-30T13:45:39.443685,0.9979417324066162,-0.04411202296614647,0.034061022102832794,-0.03172222524881363,-0.00439453125,0.93994140625,0.2802734375
2023-07-30T13:45:39.443685,0.9979255199432373,-0.043968383222818375,0.03442144766449928,-0.03204319253563881,-0.00439453125,0.93994140625,0.2802734375
2023-07-30T13:45:39.506174,0.9979255199432373,-0.043968383222818375,0.03442144766449928,-0.03204319253563881,-0.00439453125,0.9345703125,0.27880859375
2023-07-30T13:45:39.506174,0.9979066252708435,-0.043975695967674255,0.03458835557103157,-0.03243473172187805,-0.00439453125,0.9345703125,0.27880859375
2023-07-30T13:45:39.506174,0.9979066252708435,-0.043975695967674255,0.03458835557103157,-0.03243473172187805,-0.00341796875,0.93896484375,0.27490234375
2023-07-30T13:45:39.506174,0.997870147228241,-0.044284481555223465,0.03479759395122528,-0.032912056893110275,-0.00341796875,0.93896484375,0.27490234375
2023-07-30T13:45:39.521795,0.997870147228241,-0.044284481555223465,0.03479759395122528,-0.032912056893110275,-0.00830078125,0.9501953125,0.2861328125
2023-07-30T13:45:39.521795,0.9978361129760742,-0.044478967785835266,0.03516605496406555,-0.03328447416424751,-0.00830078125,0.9501953125,0.2861328125
2023-07-30T13:45:39.521795,0.9978361129760742,-0.044478967785835266,0.03516605496406555,-0.03328447416424751,-0.0244140625,0.95947265625,0.30517578125
2023-07-30T13:45:39.521795,0.9978668093681335,-0.04366140440106392,0.03534118831157684,-0.03326409310102463,-0.0244140625,0.95947265625,0.30517578125
2023-07-30T13:45:39.521795,0.9978668093681335,-0.04366140440106392,0.03534118831157684,-0.03326409310102463,-0.01904296875,0.95166015625,0.2998046875
2023-07-30T13:45:39.521795,0.997942328453064,-0.04202859103679657,0.035421546548604965,-0.03301673382520676,-0.01904296875,0.95166015625,0.2998046875
2023-07-30T13:45:39.521795,0.997942328453064,-0.04202859103679657,0.035421546548604965,-0.03301673382520676,0.00048828125,0.94482421875,0.28369140625
2023-07-30T13:45:39.521795,0.9980229139328003,-0.040129683911800385,0.035654839128255844,-0.032690491527318954,0.00048828125,0.94482421875,0.28369140625
2023-07-30T13:45:39.521795,0.9980229139328003,-0.040129683911800385,0.035654839128255844,-0.032690491527318954,0.0009765625,0.953125,0.28125
2023-07-30T13:45:39.521795,0.9981037974357605,-0.03803565353155136,0.03586607798933983,-0.03249164670705795,0.0009765625,0.953125,0.28125
2023-07-30T13:45:39.521795,0.9981037974357605,-0.03803565353155136,0.03586607798933983,-0.03249164670705795,-0.0009765625,0.9482421875,0.26611328125
2023-07-30T13:45:39.533308,0.9981626272201538,-0.03625463321805,0.03613849729299545,-0.032418519258499146,-0.0009765625,0.9482421875,0.26611328125
2023-07-30T13:45:39.584680,0.9981626272201538,-0.03625463321805,0.03613849729299545,-0.032418519258499146,0.0029296875,0.95703125,0.25439453125
2023-07-30T13:45:39.584680,0.9981996417045593,-0.034789346158504486,0.03659481927752495,-0.0323733314871788,0.0029296875,0.95703125,0.25439453125
2023-07-30T13:45:39.584680,0.9981996417045593,-0.034789346158504486,0.03659481927752495,-0.0323733314871788,0.00341796875,0.97021484375,0.25927734375
2023-07-30T13:45:39.584680,0.9982426166534424,-0.03310486674308777,0.037006739526987076,-0.032345373183488846,0.00341796875,0.97021484375,0.25927734375
2023-07-30T13:45:39.584680,0.9982426166534424,-0.03310486674308777,0.037006739526987076,-0.032345373183488846,-0.0048828125,0.9658203125,0.25146484375
2023-07-30T13:45:39.600299,0.9982969164848328,-0.03117482364177704,0.03736303746700287,-0.0321774035692215,-0.0048828125,0.9658203125,0.25146484375
2023-07-30T13:45:39.604547,0.9982969164848328,-0.03117482364177704,0.03736303746700287,-0.0321774035692215,-0.0068359375,0.96923828125,0.25146484375
2023-07-30T13:45:39.604547,0.9983550906181335,-0.029007473960518837,0.03777805715799332,-0.03191481903195381,-0.0068359375,0.96923828125,0.25146484375
2023-07-30T13:45:39.605546,0.9983550906181335,-0.029007473960518837,0.03777805715799332,-0.03191481903195381,-0.0107421875,0.97998046875,0.25537109375
2023-07-30T13:45:39.606545,0.9984255433082581,-0.026216821745038033,0.03820095956325531,-0.03161844611167908,-0.0107421875,0.97998046875,0.25537109375
2023-07-30T13:45:39.607541,0.9984255433082581,-0.026216821745038033,0.03820095956325531,-0.03161844611167908,-0.0185546875,0.99853515625,0.259765625
2023-07-30T13:45:39.610533,0.9985489845275879,-0.02183571271598339,0.03836675360798836,-0.03084012307226658,-0.0185546875,0.99853515625,0.259765625
2023-07-30T13:45:39.611532,0.9985489845275879,-0.02183571271598339,0.03836675360798836,-0.03084012307226658,-0.02099609375,0.986328125,0.24951171875
2023-07-30T13:45:39.626495,0.9987012147903442,-0.015994518995285034,0.038283977657556534,-0.02956855669617653,-0.02099609375,0.986328125,0.24951171875
2023-07-30T13:45:39.627491,0.9987012147903442,-0.015994518995285034,0.038283977657556534,-0.02956855669617653,0.0068359375,0.9599609375,0.22119140625
2023-07-30T13:45:39.627491,0.9988066554069519,-0.01021286379545927,0.03834519535303116,-0.02847142331302166,0.0068359375,0.9599609375,0.22119140625
2023-07-30T13:45:39.628490,0.9988066554069519,-0.01021286379545927,0.03834519535303116,-0.02847142331302166,0.02734375,0.94384765625,0.19677734375
2023-07-30T13:45:39.633470,0.9988498091697693,-0.0057439240626990795,0.03861590102314949,-0.027835428714752197,0.02734375,0.94384765625,0.19677734375
2023-07-30T13:45:39.633470,0.9988498091697693,-0.0057439240626990795,0.03861590102314949,-0.027835428714752197,0.02978515625,0.94775390625,0.1884765625
2023-07-30T13:45:39.633470,0.9988566040992737,-0.002576360246166587,0.03905174508690834,-0.027454694733023643,0.02978515625,0.94775390625,0.1884765625
2023-07-30T13:45:39.633470,0.9988566040992737,-0.002576360246166587,0.03905174508690834,-0.027454694733023643,0.01806640625,0.95751953125,0.19384765625
2023-07-30T13:45:39.633470,0.9988489747047424,5.093196250527399e-06,0.03954510763287544,-0.02714565210044384,0.01806640625,0.95751953125,0.19384765625
2023-07-30T13:45:39.646476,0.9988489747047424,5.093196250527399e-06,0.03954510763287544,-0.02714565210044384,0.0126953125,0.9658203125,0.19677734375
2023-07-30T13:45:39.646476,0.9988278746604919,0.0029131413903087378,0.04019241780042648,-0.02681228332221508,0.0126953125,0.9658203125,0.19677734375
2023-07-30T13:45:39.662101,0.9988278746604919,0.0029131413903087378,0.04019241780042648,-0.02681228332221508,0.0166015625,0.95849609375,0.18603515625
2023-07-30T13:45:39.662101,0.9987952709197998,0.006175522692501545,0.04086132347583771,-0.02646118588745594,0.0166015625,0.95849609375,0.18603515625
2023-07-30T13:45:39.662101,0.9987952709197998,0.006175522692501545,0.04086132347583771,-0.02646118588745594,0.01708984375,0.9462890625,0.17333984375
2023-07-30T13:45:39.662101,0.998746931552887,0.009156566113233566,0.04159513860940933,-0.026278682053089142,0.01708984375,0.9462890625,0.17333984375
2023-07-30T13:45:39.662101,0.998746931552887,0.009156566113233566,0.04159513860940933,-0.026278682053089142,-0.00390625,0.95947265625,0.169921875
2023-07-30T13:45:39.662101,0.9986933469772339,0.011561564169824123,0.04227794334292412,-0.02627630904316902,-0.00390625,0.95947265625,0.169921875
2023-07-30T13:45:39.677722,0.9986933469772339,0.011561564169824123,0.04227794334292412,-0.02627630904316902,-0.029296875,0.984375,0.18359375
2023-07-30T13:45:39.677722,0.9986361265182495,0.014074659906327724,0.042919814586639404,-0.026184022426605225,-0.029296875,0.984375,0.18359375
2023-07-30T13:45:39.693342,0.9986361265182495,0.014074659906327724,0.042919814586639404,-0.026184022426605225,-0.03369140625,0.99755859375,0.18505859375
2023-07-30T13:45:39.693342,0.9985708594322205,0.017510563135147095,0.04332409054040909,-0.025934243574738503,-0.03369140625,0.99755859375,0.18505859375
2023-07-30T13:45:39.708964,0.9985708594322205,0.017510563135147095,0.04332409054040909,-0.025934243574738503,-0.0087890625,1.00146484375,0.16455078125
2023-07-30T13:45:39.708964,0.9984807968139648,0.021776502951979637,0.0436723418533802,-0.025583766400814056,-0.0087890625,1.00146484375,0.16455078125
2023-07-30T13:45:39.724586,0.9984807968139648,0.021776502951979637,0.0436723418533802,-0.025583766400814056,0.01953125,0.99072265625,0.1494140625
2023-07-30T13:45:39.724586,0.9983892440795898,0.0257230456918478,0.04374907538294792,-0.02536294050514698,0.01953125,0.99072265625,0.1494140625
2023-07-30T13:45:39.740598,0.9983892440795898,0.0257230456918478,0.04374907538294792,-0.02536294050514698,0.03173828125,0.97265625,0.14453125
2023-07-30T13:45:39.740598,0.99832683801651,0.028670920059084892,0.04346545413136482,-0.025144606828689575,0.03173828125,0.97265625,0.14453125
2023-07-30T13:45:39.740598,0.99832683801651,0.028670920059084892,0.04346545413136482,-0.025144606828689575,0.03125,0.96923828125,0.1328125
2023-07-30T13:45:39.740598,0.9982658624649048,0.031178386881947517,0.0432165265083313,-0.025011586025357246,0.03125,0.96923828125,0.1328125
2023-07-30T13:45:39.756222,0.9982658624649048,0.031178386881947517,0.0432165265083313,-0.025011586025357246,0.03076171875,0.982421875,0.1171875
2023-07-30T13:45:39.756222,0.9981784820556641,0.03396517410874367,0.04314235970377922,-0.02499362826347351,0.03076171875,0.982421875,0.1171875
2023-07-30T13:45:39.756222,0.9981784820556641,0.03396517410874367,0.04314235970377922,-0.02499362826347351,0.025390625,0.98486328125,0.1162109375
2023-07-30T13:45:39.756222,0.9980728030204773,0.036783162504434586,0.043303683400154114,-0.024946846067905426,0.025390625,0.98486328125,0.1162109375
2023-07-30T13:45:39.756222,0.9980728030204773,0.036783162504434586,0.043303683400154114,-0.024946846067905426,0.02294921875,0.9609375,0.1201171875
2023-07-30T13:45:39.756222,0.9979487657546997,0.03952701762318611,0.043746303766965866,-0.024941006675362587,0.02294921875,0.9609375,0.1201171875
2023-07-30T13:45:39.771844,0.9979487657546997,0.03952701762318611,0.043746303766965866,-0.024941006675362587,0.02734375,0.9462890625,0.11083984375
2023-07-30T13:45:39.771844,0.9978229999542236,0.04196368530392647,0.04429493471980095,-0.025022948160767555,0.02734375,0.9462890625,0.11083984375
2023-07-30T13:45:39.787464,0.9978229999542236,0.04196368530392647,0.04429493471980095,-0.025022948160767555,0.013671875,0.9541015625,0.099609375
2023-07-30T13:45:39.787464,0.9977140426635742,0.04382782429456711,0.04479733854532242,-0.025277020409703255,0.013671875,0.9541015625,0.099609375
2023-07-30T13:45:39.803196,0.9977140426635742,0.04382782429456711,0.04479733854532242,-0.025277020409703255,-0.00244140625,0.96728515625,0.1064453125
2023-07-30T13:45:39.804194,0.9976189732551575,0.04521852359175682,0.04537142440676689,-0.025554519146680832,-0.00244140625,0.96728515625,0.1064453125
2023-07-30T13:45:39.805191,0.9976189732551575,0.04521852359175682,0.04537142440676689,-0.025554519146680832,-0.0048828125,0.986328125,0.1171875
2023-07-30T13:45:39.810177,0.9975216388702393,0.0467459000647068,0.045864254236221313,-0.025727294385433197,-0.0048828125,0.986328125,0.1171875
2023-07-30T13:45:39.844240,0.9975216388702393,0.0467459000647068,0.045864254236221313,-0.025727294385433197,0.005859375,0.97509765625,0.107421875
2023-07-30T13:45:39.844240,0.9974289536476135,0.048289988189935684,0.04624991491436958,-0.025777826085686684,0.005859375,0.97509765625,0.107421875
2023-07-30T13:45:39.844240,0.9974289536476135,0.048289988189935684,0.04624991491436958,-0.025777826085686684,0.029296875,0.96337890625,0.08837890625
2023-07-30T13:45:39.859864,0.9973755478858948,0.049059949815273285,0.04643123969435692,-0.026061952114105225,0.029296875,0.96337890625,0.08837890625
2023-07-30T13:45:39.859864,0.9973755478858948,0.049059949815273285,0.04643123969435692,-0.026061952114105225,0.0302734375,0.94580078125,0.0830078125
2023-07-30T13:45:39.875485,0.9973715543746948,0.04882296919822693,0.046546097844839096,-0.026451531797647476,0.0302734375,0.94580078125,0.0830078125
2023-07-30T13:45:39.875485,0.9973715543746948,0.04882296919822693,0.046546097844839096,-0.026451531797647476,0.0263671875,0.9609375,0.08203125
2023-07-30T13:45:39.875485,0.9973835349082947,0.0482003316283226,0.046592652797698975,-0.027053814381361008,0.0263671875,0.9609375,0.08203125
2023-07-30T13:45:39.875485,0.9973835349082947,0.0482003316283226,0.046592652797698975,-0.027053814381361008,0.017578125,0.99462890625,0.087890625
2023-07-30T13:45:39.875485,0.9973840117454529,0.04765796288847923,0.046813610941171646,-0.02760888822376728,0.017578125,0.99462890625,0.087890625
2023-07-30T13:45:39.875485,0.9973840117454529,0.04765796288847923,0.046813610941171646,-0.02760888822376728,0.01171875,0.99462890625,0.0908203125
2023-07-30T13:45:39.875485,0.9973728656768799,0.047413017600774765,0.04710966348648071,-0.027931248769164085,0.01171875,0.99462890625,0.0908203125
2023-07-30T13:45:39.875485,0.9973728656768799,0.047413017600774765,0.04710966348648071,-0.027931248769164085,0.017578125,0.9765625,0.08544921875
2023-07-30T13:45:39.875485,0.9973487257957458,0.04751186445355415,0.04734897240996361,-0.02821759507060051,0.017578125,0.9765625,0.08544921875
2023-07-30T13:45:39.875485,0.9973487257957458,0.04751186445355415,0.04734897240996361,-0.02821759507060051,0.0126953125,0.98046875,0.08544921875
2023-07-30T13:45:39.875485,0.9973256587982178,0.04756004735827446,0.04758903384208679,-0.0285455621778965,0.0126953125,0.98046875,0.08544921875
2023-07-30T13:45:39.906728,0.9973256587982178,0.04756004735827446,0.04758903384208679,-0.0285455621778965,0.00048828125,0.98779296875,0.09130859375
2023-07-30T13:45:39.938359,0.9973185658454895,0.047175198793411255,0.0478871613740921,-0.02892972156405449,0.00048828125,0.98779296875,0.09130859375
2023-07-30T13:45:39.938359,0.9973185658454895,0.047175198793411255,0.0478871613740921,-0.02892972156405449,0.00390625,0.9736328125,0.09375
2023-07-30T13:45:39.938359,0.9973137378692627,0.0467013455927372,0.04821460321545601,-0.02931884117424488,0.00390625,0.9736328125,0.09375
2023-07-30T13:45:39.938359,0.9973137378692627,0.0467013455927372,0.04821460321545601,-0.02931884117424488,0.01904296875,0.96875,0.08935546875
2023-07-30T13:45:39.938359,0.9972953200340271,0.046351924538612366,0.048636987805366516,-0.029798854142427444,0.01904296875,0.96875,0.08935546875
2023-07-30T13:45:39.938359,0.9972953200340271,0.046351924538612366,0.048636987805366516,-0.029798854142427444,-0.001953125,0.99365234375,0.08251953125
2023-07-30T13:45:39.938359,0.9973065257072449,0.04563344642519951,0.04880671575665474,-0.030252384021878242,-0.001953125,0.99365234375,0.08251953125
2023-07-30T13:45:39.953984,0.9973065257072449,0.04563344642519951,0.04880671575665474,-0.030252384021878242,-0.03515625,1.0146484375,0.10888671875
2023-07-30T13:45:39.953984,0.9973525404930115,0.04451128840446472,0.04872899129986763,-0.030529648065567017,-0.03515625,1.0146484375,0.10888671875
2023-07-30T13:45:39.953984,0.9973525404930115,0.04451128840446472,0.04872899129986763,-0.030529648065567017,-0.0234375,0.9931640625,0.12841796875
2023-07-30T13:45:39.953984,0.9973995685577393,0.04332108423113823,0.04864777252078056,-0.030834384262561798,-0.0234375,0.9931640625,0.12841796875
2023-07-30T13:45:39.953984,0.9973995685577393,0.04332108423113823,0.04864777252078056,-0.030834384262561798,0.009765625,0.97802734375,0.1064453125
2023-07-30T13:45:39.953984,0.9974365234375,0.04221463203430176,0.04860625043511391,-0.031237216666340828,0.009765625,0.97802734375,0.1064453125
2023-07-30T13:45:39.953984,0.9974365234375,0.04221463203430176,0.04860625043511391,-0.031237216666340828,0.03125,0.9775390625,0.09228515625
2023-07-30T13:45:39.969605,0.9974485039710999,0.04122769460082054,0.04887568950653076,-0.031748026609420776,0.03125,0.9775390625,0.09228515625
2023-07-30T13:45:39.969605,0.9974485039710999,0.04122769460082054,0.04887568950653076,-0.031748026609420776,0.02783203125,0.984375,0.087890625
2023-07-30T13:45:39.969605,0.9974616765975952,0.0401141531765461,0.049181874841451645,-0.03228281810879707,0.02783203125,0.984375,0.087890625
2023-07-30T13:45:39.969605,0.9974616765975952,0.0401141531765461,0.049181874841451645,-0.03228281810879707,-0.00634765625,0.9873046875,0.10498046875
2023-07-30T13:45:39.969605,0.9974855184555054,0.03870392218232155,0.04956142231822014,-0.03268427774310112,-0.00634765625,0.9873046875,0.10498046875
2023-07-30T13:45:39.985225,0.9974855184555054,0.03870392218232155,0.04956142231822014,-0.03268427774310112,-0.01904296875,0.9892578125,0.126953125
2023-07-30T13:45:39.985225,0.9975058436393738,0.037331704050302505,0.049902621656656265,-0.03313751891255379,-0.01904296875,0.9892578125,0.126953125
2023-07-30T13:45:40.000847,0.9975058436393738,0.037331704050302505,0.049902621656656265,-0.03313751891255379,-0.00439453125,0.9814453125,0.12939453125
2023-07-30T13:45:40.000847,0.9975231885910034,0.03625092655420303,0.05012805387377739,-0.033474378287792206,-0.00439453125,0.9814453125,0.12939453125
2023-07-30T13:45:40.000847,0.9975231885910034,0.03625092655420303,0.05012805387377739,-0.033474378287792206,0.0048828125,0.95751953125,0.1201171875
2023-07-30T13:45:40.000847,0.997529149055481,0.035355016589164734,0.050398826599121094,-0.033847127109766006,0.0048828125,0.95751953125,0.1201171875
2023-07-30T13:45:40.016468,0.997529149055481,0.035355016589164734,0.050398826599121094,-0.033847127109766006,0.00634765625,0.966796875,0.11279296875
2023-07-30T13:45:40.016468,0.9975289106369019,0.034402698278427124,0.050640009343624115,-0.03446859493851662,0.00634765625,0.966796875,0.11279296875
2023-07-30T13:45:40.034100,0.9975289106369019,0.034402698278427124,0.050640009343624115,-0.03446859493851662,-0.0400390625,0.98876953125,0.12158203125
2023-07-30T13:45:40.034100,0.9975659847259521,0.032829251140356064,0.050708647817373276,-0.03482784330844879,-0.0400390625,0.98876953125,0.12158203125
2023-07-30T13:45:40.034100,0.9975659847259521,0.032829251140356064,0.050708647817373276,-0.03482784330844879,-0.05517578125,1.0048828125,0.16015625
2023-07-30T13:45:40.034100,0.9975902438163757,0.03177044540643692,0.050754085183143616,-0.0350477509200573,-0.05517578125,1.0048828125,0.16015625
2023-07-30T13:45:40.048107,0.9975902438163757,0.03177044540643692,0.050754085183143616,-0.0350477509200573,-0.02783203125,0.98193359375,0.1552734375
2023-07-30T13:45:40.048107,0.9976292848587036,0.031317088752985,0.05027050897479057,-0.035041458904743195,-0.02783203125,0.98193359375,0.1552734375
2023-07-30T13:45:40.063732,0.9976292848587036,0.031317088752985,0.05027050897479057,-0.035041458904743195,0.0068359375,0.9384765625,0.1162109375
2023-07-30T13:45:40.063732,0.9976696968078613,0.030719812959432602,0.04975873604416847,-0.0351502001285553,0.0068359375,0.9384765625,0.1162109375
2023-07-30T13:45:40.063732,0.9976696968078613,0.030719812959432602,0.04975873604416847,-0.0351502001285553,0.02587890625,0.94873046875,0.10888671875
2023-07-30T13:45:40.063732,0.9976875185966492,0.02999984286725521,0.04953441768884659,-0.0355808362364769,0.02587890625,0.94873046875,0.10888671875
2023-07-30T13:45:40.079354,0.9976875185966492,0.02999984286725521,0.04953441768884659,-0.0355808362364769,0.0068359375,0.9697265625,0.13037109375
2023-07-30T13:45:40.079354,0.9976897239685059,0.029543599113821983,0.049559298902750015,-0.03586351498961449,0.0068359375,0.9697265625,0.13037109375
2023-07-30T13:45:40.094974,0.9976897239685059,0.029543599113821983,0.049559298902750015,-0.03586351498961449,0.0009765625,0.974609375,0.1328125
2023-07-30T13:45:40.094974,0.997667670249939,0.02954426407814026,0.04986283555626869,-0.03605664521455765,0.0009765625,0.974609375,0.1328125
2023-07-30T13:45:40.094974,0.997667670249939,0.02954426407814026,0.04986283555626869,-0.03605664521455765,-0.001953125,0.9716796875,0.12548828125
2023-07-30T13:45:40.094974,0.997635006904602,0.029805943369865417,0.050226371735334396,-0.03623715788125992,-0.001953125,0.9716796875,0.12548828125
2023-07-30T13:45:40.110599,0.997635006904602,0.029805943369865417,0.050226371735334396,-0.03623715788125992,-0.0244140625,0.9775390625,0.130859375
2023-07-30T13:45:40.110599,0.9976152181625366,0.029814183712005615,0.05056476593017578,-0.03630588576197624,-0.0244140625,0.9775390625,0.130859375
2023-07-30T13:45:40.110599,0.9976152181625366,0.029814183712005615,0.05056476593017578,-0.03630588576197624,-0.03271484375,0.9814453125,0.146484375
2023-07-30T13:45:40.110599,0.9976047277450562,0.029676105827093124,0.05079835653305054,-0.03638122230768204,-0.03271484375,0.9814453125,0.146484375
2023-07-30T13:45:40.126217,0.9976047277450562,0.029676105827093124,0.05079835653305054,-0.03638122230768204,-0.01953125,0.974609375,0.14697265625
2023-07-30T13:45:40.126217,0.9975986480712891,0.02951105125248432,0.050928935408592224,-0.03650061786174774,-0.01953125,0.974609375,0.14697265625
2023-07-30T13:45:40.134225,0.9975986480712891,0.02951105125248432,0.050928935408592224,-0.03650061786174774,-0.0244140625,0.98193359375,0.14404296875
2023-07-30T13:45:40.134225,0.9975927472114563,0.029515277594327927,0.05104442313313484,-0.03649720177054405,-0.0244140625,0.98193359375,0.14404296875
2023-07-30T13:45:40.157857,0.9975927472114563,0.029515277594327927,0.05104442313313484,-0.03649720177054405,-0.03759765625,0.9951171875,0.14990234375
2023-07-30T13:45:40.157857,0.9975927472114563,0.029515277594327927,0.05104442313313484,-0.03649720177054405,-0.03759765625,0.9951171875,0.14990234375
2023-07-30T13:45:40.157857,0.9975927472114563,0.029515277594327927,0.05104442313313484,-0.03649720177054405,-0.0205078125,0.98779296875,0.13720703125
2023-07-30T13:45:40.173478,0.997602641582489,0.029279345646500587,0.05099448934197426,-0.03648696839809418,-0.0205078125,0.98779296875,0.13720703125
2023-07-30T13:45:40.173478,0.997602641582489,0.029279345646500587,0.05099448934197426,-0.03648696839809418,0.00390625,0.966796875,0.1220703125
2023-07-30T13:45:40.173478,0.9976169466972351,0.02879290282726288,0.05088028684258461,-0.036640096455812454,0.00390625,0.966796875,0.1220703125
2023-07-30T13:45:40.173478,0.9976169466972351,0.02879290282726288,0.05088028684258461,-0.036640096455812454,0.0126953125,0.97509765625,0.1201171875
2023-07-30T13:45:40.173478,0.9976199865341187,0.02813662961125374,0.05091542750597,-0.03701726347208023,0.0126953125,0.97509765625,0.1201171875
2023-07-30T13:45:40.189100,0.9976199865341187,0.02813662961125374,0.05091542750597,-0.03701726347208023,-0.01171875,0.99169921875,0.13916015625
2023-07-30T13:45:40.189100,0.9976270794868469,0.027328593656420708,0.050955887883901596,-0.03737613558769226,-0.01171875,0.99169921875,0.13916015625
2023-07-30T13:45:40.189100,0.9976270794868469,0.027328593656420708,0.050955887883901596,-0.03737613558769226,-0.02880859375,0.984375,0.1494140625
2023-07-30T13:45:40.189100,0.99763423204422,0.02663065493106842,0.05098964273929596,-0.03764056786894798,-0.02880859375,0.984375,0.1494140625
2023-07-30T13:45:40.212089,0.99763423204422,0.02663065493106842,0.05098964273929596,-0.03764056786894798,-0.02685546875,0.98583984375,0.1435546875
2023-07-30T13:45:40.212089,0.9976339340209961,0.026341883465647697,0.05100560933351517,-0.0378311425447464,-0.02685546875,0.98583984375,0.1435546875
2023-07-30T13:45:40.212089,0.9976339340209961,0.026341883465647697,0.05100560933351517,-0.0378311425447464,-0.0322265625,0.9970703125,0.142578125
2023-07-30T13:45:40.212089,0.9976322650909424,0.026404907926917076,0.051003217697143555,-0.03783436492085457,-0.0322265625,0.9970703125,0.142578125
2023-07-30T13:45:40.227769,0.9976322650909424,0.026404907926917076,0.051003217697143555,-0.03783436492085457,-0.03759765625,0.98974609375,0.14794921875
2023-07-30T13:45:40.227769,0.9976263046264648,0.026772599667310715,0.051048655062913895,-0.03767020255327225,-0.03759765625,0.98974609375,0.14794921875
2023-07-30T13:45:40.243782,0.9976263046264648,0.026772599667310715,0.051048655062913895,-0.03767020255327225,-0.021484375,0.96875,0.14111328125
2023-07-30T13:45:40.243782,0.9976128339767456,0.0273040272295475,0.05112466961145401,-0.037541843950748444,-0.021484375,0.96875,0.14111328125
2023-07-30T13:45:40.243782,0.9976128339767456,0.0273040272295475,0.05112466961145401,-0.037541843950748444,-0.00341796875,0.96484375,0.12939453125
2023-07-30T13:45:40.243782,0.997589647769928,0.027788212522864342,0.0513417050242424,-0.0375070795416832,-0.00341796875,0.96484375,0.12939453125
2023-07-30T13:45:40.259406,0.997589647769928,0.027788212522864342,0.0513417050242424,-0.0375070795416832,-0.005859375,0.96728515625,0.12255859375
2023-07-30T13:45:40.259406,0.9975715279579163,0.0282281581312418,0.05148649588227272,-0.03746169060468674,-0.005859375,0.96728515625,0.12255859375
2023-07-30T13:45:40.275029,0.9975715279579163,0.0282281581312418,0.05148649588227272,-0.03746169060468674,-0.02099609375,0.966796875,0.12744140625
2023-07-30T13:45:40.275029,0.9975550770759583,0.028574401512742043,0.05160491541028023,-0.0374755933880806,-0.02099609375,0.966796875,0.12744140625
2023-07-30T13:45:40.275029,0.9975550770759583,0.028574401512742043,0.05160491541028023,-0.0374755933880806,-0.01953125,0.96044921875,0.13525390625
2023-07-30T13:45:40.275029,0.9975349307060242,0.02890259213745594,0.0518028698861599,-0.03748614341020584,-0.01953125,0.96044921875,0.13525390625
2023-07-30T13:45:40.290649,0.9975349307060242,0.02890259213745594,0.0518028698861599,-0.03748614341020584,-0.01171875,0.955078125,0.12841796875
2023-07-30T13:45:40.290649,0.9975056052207947,0.02934296801686287,0.052041228860616684,-0.03759598359465599,-0.01171875,0.955078125,0.12841796875
2023-07-30T13:45:40.290649,0.9975056052207947,0.02934296801686287,0.052041228860616684,-0.03759598359465599,-0.01708984375,0.96337890625,0.11767578125
2023-07-30T13:45:40.306270,0.997475802898407,0.029628867283463478,0.052245352417230606,-0.037876103073358536,-0.01708984375,0.96337890625,0.11767578125
2023-07-30T13:45:40.306270,0.997475802898407,0.029628867283463478,0.052245352417230606,-0.037876103073358536,-0.044921875,0.97314453125,0.130859375
2023-07-30T13:45:40.306270,0.9974885582923889,0.028937160968780518,0.05213993042707443,-0.03821815177798271,-0.044921875,0.97314453125,0.130859375
2023-07-30T13:45:40.306270,0.9974885582923889,0.028937160968780518,0.05213993042707443,-0.03821815177798271,-0.05908203125,0.953125,0.15966796875
2023-07-30T13:45:40.306270,0.9975152611732483,0.02761862613260746,0.05203003063797951,-0.03864419460296631,-0.05908203125,0.953125,0.15966796875
2023-07-30T13:45:40.334398,0.9975152611732483,0.02761862613260746,0.05203003063797951,-0.03864419460296631,-0.0283203125,0.9541015625,0.1552734375
2023-07-30T13:45:40.334398,0.9975301027297974,0.026434341445565224,0.05185505375266075,-0.039319392293691635,-0.0283203125,0.9541015625,0.1552734375
2023-07-30T13:45:40.337910,0.9975301027297974,0.026434341445565224,0.05185505375266075,-0.039319392293691635,-0.00048828125,0.97802734375,0.14453125
2023-07-30T13:45:40.337910,0.9975418448448181,0.0253266803920269,0.05167847126722336,-0.03997647017240524,-0.00048828125,0.97802734375,0.14453125
2023-07-30T13:45:40.337910,0.9975418448448181,0.0253266803920269,0.05167847126722336,-0.03997647017240524,-0.00634765625,0.98876953125,0.14794921875
2023-07-30T13:45:40.337910,0.9975465536117554,0.024103660136461258,0.051649753004312515,-0.0406474769115448,-0.00634765625,0.98876953125,0.14794921875
2023-07-30T13:45:40.353539,0.9975465536117554,0.024103660136461258,0.051649753004312515,-0.0406474769115448,-0.013671875,0.99658203125,0.15625
2023-07-30T13:45:40.353539,0.9975295662879944,0.022942427545785904,0.051827579736709595,-0.04150049388408661,-0.013671875,0.99658203125,0.15625
2023-07-30T13:45:40.369323,0.9975295662879944,0.022942427545785904,0.051827579736709595,-0.04150049388408661,-0.0185546875,1.0068359375,0.1513671875
2023-07-30T13:45:40.369323,0.9975143671035767,0.0219256654381752,0.05200239643454552,-0.04219057038426399,-0.0185546875,1.0068359375,0.1513671875
2023-07-30T13:45:40.369323,0.9975143671035767,0.0219256654381752,0.05200239643454552,-0.04219057038426399,-0.03076171875,0.99951171875,0.14208984375
2023-07-30T13:45:40.369323,0.9974940419197083,0.021047258749604225,0.05223707854747772,-0.04282473772764206,-0.03076171875,0.99951171875,0.14208984375
2023-07-30T13:45:40.385092,0.9974940419197083,0.021047258749604225,0.05223707854747772,-0.04282473772764206,-0.04345703125,0.99267578125,0.14501953125
2023-07-30T13:45:40.385092,0.9974641799926758,0.020240912213921547,0.05253320559859276,-0.04354012385010719,-0.04345703125,0.99267578125,0.14501953125
2023-07-30T13:45:40.400428,0.9974641799926758,0.020240912213921547,0.05253320559859276,-0.04354012385010719,-0.0673828125,0.98388671875,0.1533203125
2023-07-30T13:45:40.400428,0.9974390268325806,0.0193333700299263,0.052775442600250244,-0.044230375438928604,-0.0673828125,0.98388671875,0.1533203125
2023-07-30T13:45:40.400428,0.9974390268325806,0.0193333700299263,0.052775442600250244,-0.044230375438928604,-0.06884765625,0.97705078125,0.15673828125
2023-07-30T13:45:40.400428,0.9974154233932495,0.018400760367512703,0.05290432274341583,-0.045000720769166946,-0.06884765625,0.97705078125,0.15673828125
2023-07-30T13:45:40.416025,0.9974154233932495,0.018400760367512703,0.05290432274341583,-0.045000720769166946,-0.0703125,0.96435546875,0.158203125
2023-07-30T13:45:40.416025,0.9974061846733093,0.017174165695905685,0.052779171615839005,-0.0458294153213501,-0.0703125,0.96435546875,0.158203125
2023-07-30T13:45:40.431888,0.9974061846733093,0.017174165695905685,0.052779171615839005,-0.0458294153213501,-0.0732421875,0.95361328125,0.15869140625
2023-07-30T13:45:40.431888,0.9974003434181213,0.015637652948498726,0.052559174597263336,-0.046749044209718704,-0.0732421875,0.95361328125,0.15869140625
2023-07-30T13:45:40.434394,0.9974003434181213,0.015637652948498726,0.052559174597263336,-0.046749044209718704,-0.064453125,0.962890625,0.16552734375
2023-07-30T13:45:40.434394,0.9973896741867065,0.014262084849178791,0.05240646004676819,-0.04758097603917122,-0.064453125,0.962890625,0.16552734375
2023-07-30T13:45:40.447900,0.9973896741867065,0.014262084849178791,0.05240646004676819,-0.04758097603917122,-0.04296875,0.95849609375,0.16943359375
2023-07-30T13:45:40.447900,0.9973806142807007,0.013392074964940548,0.05233350396156311,-0.04810056462883949,-0.04296875,0.95849609375,0.16943359375
2023-07-30T13:45:40.447900,0.9973806142807007,0.013392074964940548,0.05233350396156311,-0.04810056462883949,-0.01513671875,0.93896484375,0.16015625
2023-07-30T13:45:40.463524,0.9973669052124023,0.013046721927821636,0.052302196621894836,-0.0485149547457695,-0.01513671875,0.93896484375,0.16015625
2023-07-30T13:45:40.463524,0.9973669052124023,0.013046721927821636,0.052302196621894836,-0.0485149547457695,-0.005859375,0.93310546875,0.1455078125
2023-07-30T13:45:40.463524,0.9973591566085815,0.01284713950008154,0.05221514031291008,-0.04881662502884865,-0.005859375,0.93310546875,0.1455078125
2023-07-30T13:45:40.463524,0.9973591566085815,0.01284713950008154,0.05221514031291008,-0.04881662502884865,-0.02490234375,0.9404296875,0.15380859375
2023-07-30T13:45:40.463524,0.9973506927490234,0.012550745159387589,0.05223219469189644,-0.049048520624637604,-0.02490234375,0.9404296875,0.15380859375
2023-07-30T13:45:40.479147,0.9973506927490234,0.012550745159387589,0.05223219469189644,-0.049048520624637604,-0.02197265625,0.94921875,0.16357421875
2023-07-30T13:45:40.479147,0.9973292350769043,0.01254553347826004,0.05240338668227196,-0.04930364340543747,-0.02197265625,0.94921875,0.16357421875
2023-07-30T13:45:40.494767,0.9973292350769043,0.01254553347826004,0.05240338668227196,-0.04930364340543747,-0.00390625,0.94921875,0.15380859375
2023-07-30T13:45:40.494767,0.9973031282424927,0.012724639847874641,0.052644032984972,-0.049530401825904846,-0.00390625,0.94921875,0.15380859375
2023-07-30T13:45:40.494767,0.9973031282424927,0.012724639847874641,0.052644032984972,-0.049530401825904846,-0.0078125,0.953125,0.15576171875
2023-07-30T13:45:40.494767,0.9972782731056213,0.012766137719154358,0.05277857184410095,-0.049876801669597626,-0.0078125,0.953125,0.15576171875
2023-07-30T13:45:40.510389,0.9972782731056213,0.012766137719154358,0.05277857184410095,-0.049876801669597626,-0.02978515625,0.96142578125,0.17431640625
2023-07-30T13:45:40.510389,0.9972615838050842,0.012259314768016338,0.0528084859251976,-0.050302669405937195,-0.02978515625,0.96142578125,0.17431640625
2023-07-30T13:45:40.526011,0.9972615838050842,0.012259314768016338,0.0528084859251976,-0.050302669405937195,-0.03857421875,0.96240234375,0.18212890625
2023-07-30T13:45:40.526011,0.9972352385520935,0.011637015268206596,0.05295037478208542,-0.05082084238529205,-0.03857421875,0.96240234375,0.18212890625
2023-07-30T13:45:40.534521,0.9972352385520935,0.011637015268206596,0.05295037478208542,-0.05082084238529205,-0.03515625,0.97607421875,0.1796875
2023-07-30T13:45:40.534521,0.9972101449966431,0.01118615735322237,0.05297855660319328,-0.0513811819255352,-0.03515625,0.97607421875,0.1796875
2023-07-30T13:45:40.542032,0.9972101449966431,0.01118615735322237,0.05297855660319328,-0.0513811819255352,-0.05908203125,0.9892578125,0.19140625
2023-07-30T13:45:40.542032,0.9972067475318909,0.010523988865315914,0.052810847759246826,-0.051759425550699234,-0.05908203125,0.9892578125,0.19140625
2023-07-30T13:45:40.557659,0.9972067475318909,0.010523988865315914,0.052810847759246826,-0.051759425550699234,-0.064453125,0.98291015625,0.20556640625
2023-07-30T13:45:40.557659,0.9972119927406311,0.00981216412037611,0.05258692428469658,-0.05202523618936539,-0.064453125,0.98291015625,0.20556640625
2023-07-30T13:45:40.557659,0.9972119927406311,0.00981216412037611,0.05258692428469658,-0.05202523618936539,-0.04443359375,0.97607421875,0.203125
2023-07-30T13:45:40.557659,0.9972181916236877,0.009322444908320904,0.05238226056098938,-0.05220232531428337,-0.04443359375,0.97607421875,0.203125
2023-07-30T13:45:40.573279,0.9972181916236877,0.009322444908320904,0.05238226056098938,-0.05220232531428337,-0.0283203125,0.98681640625,0.197265625
2023-07-30T13:45:40.573279,0.9972235560417175,0.009517067112028599,0.052233558148145676,-0.05221422016620636,-0.0283203125,0.98681640625,0.197265625
2023-07-30T13:45:40.588901,0.9972235560417175,0.009517067112028599,0.052233558148145676,-0.05221422016620636,-0.03173828125,1.00537109375,0.1953125
2023-07-30T13:45:40.588901,0.9972381591796875,0.01029958762228489,0.05202030763030052,-0.051998984068632126,-0.03173828125,1.00537109375,0.1953125
2023-07-30T13:45:40.588901,0.9972381591796875,0.01029958762228489,0.05202030763030052,-0.051998984068632126,-0.02783203125,1.01025390625,0.1826171875
2023-07-30T13:45:40.588901,0.9972599148750305,0.011048753745853901,0.051778338849544525,-0.05166694149374962,-0.02783203125,1.01025390625,0.1826171875
2023-07-30T13:45:40.604522,0.9972599148750305,0.011048753745853901,0.051778338849544525,-0.05166694149374962,-0.0146484375,1.00927734375,0.173828125
2023-07-30T13:45:40.604522,0.9972818493843079,0.011743039824068546,0.05158961936831474,-0.05127892270684242,-0.0146484375,1.00927734375,0.173828125
2023-07-30T13:45:40.620142,0.9972818493843079,0.011743039824068546,0.05158961936831474,-0.05127892270684242,-0.00146484375,1.0068359375,0.1630859375
2023-07-30T13:45:40.620142,0.9972960948944092,0.012303316965699196,0.05149051174521446,-0.05096791312098503,-0.00146484375,1.0068359375,0.1630859375
2023-07-30T13:45:40.628086,0.9972960948944092,0.012303316965699196,0.05149051174521446,-0.05096791312098503,0.00537109375,0.9990234375,0.154296875
2023-07-30T13:45:40.628086,0.9973034262657166,0.012615415267646313,0.05154019594192505,-0.05069877952337265,0.00537109375,0.9990234375,0.154296875
2023-07-30T13:45:40.642592,0.9973034262657166,0.012615415267646313,0.05154019594192505,-0.05069877952337265,0.00439453125,0.994140625,0.15771484375
2023-07-30T13:45:40.643590,0.9972935318946838,0.013110307045280933,0.0518178790807724,-0.05048283562064171,0.00439453125,0.994140625,0.15771484375
2023-07-30T13:45:40.650570,0.9972935318946838,0.013110307045280933,0.0518178790807724,-0.05048283562064171,-0.01123046875,1.0078125,0.16552734375
2023-07-30T13:45:40.650570,0.9972774982452393,0.014104865491390228,0.05216320976614952,-0.050176654011011124,-0.01123046875,1.0078125,0.16552734375
2023-07-30T13:45:40.657551,0.9972774982452393,0.014104865491390228,0.05216320976614952,-0.050176654011011124,-0.04345703125,1.01318359375,0.1650390625
2023-07-30T13:45:40.658548,0.9972740411758423,0.015227018855512142,0.05241578072309494,-0.049651019275188446,-0.04345703125,1.01318359375,0.1650390625
2023-07-30T13:45:40.665531,0.9972740411758423,0.015227018855512142,0.05241578072309494,-0.049651019275188446,-0.0498046875,1.01123046875,0.16455078125
2023-07-30T13:45:40.672510,0.9972667694091797,0.01651252992451191,0.05281059443950653,-0.048962708562612534,-0.0498046875,1.01123046875,0.16455078125
2023-07-30T13:45:40.680489,0.9972667694091797,0.01651252992451191,0.05281059443950653,-0.048962708562612534,-0.03857421875,1.00244140625,0.15625
2023-07-30T13:45:40.680489,0.9972530007362366,0.01829005777835846,0.05326789617538452,-0.04810909554362297,-0.03857421875,1.00244140625,0.15625
2023-07-30T13:45:40.687472,0.9972530007362366,0.01829005777835846,0.05326789617538452,-0.04810909554362297,-0.0263671875,1.00439453125,0.142578125
2023-07-30T13:45:40.688468,0.9972100853919983,0.021291550248861313,0.05391382426023483,-0.0470309741795063,-0.0263671875,1.00439453125,0.142578125
2023-07-30T13:45:40.695450,0.9972100853919983,0.021291550248861313,0.05391382426023483,-0.0470309741795063,-0.03125,1.0224609375,0.13671875
2023-07-30T13:45:40.695450,0.9971228241920471,0.02600412629544735,0.054809048771858215,-0.045452069491147995,-0.03125,1.0224609375,0.13671875
2023-07-30T13:45:40.710411,0.9971228241920471,0.02600412629544735,0.054809048771858215,-0.045452069491147995,-0.04150390625,1.01708984375,0.12744140625
2023-07-30T13:45:40.710411,0.9969736933708191,0.03183240815997124,0.05606620013713837,-0.04343660548329353,-0.04150390625,1.01708984375,0.12744140625
2023-07-30T13:45:40.717391,0.9969736933708191,0.03183240815997124,0.05606620013713837,-0.04343660548329353,-0.04296875,1.00048828125,0.11767578125
2023-07-30T13:45:40.718389,0.9967406392097473,0.03839753568172455,0.057711973786354065,-0.041269510984420776,-0.04296875,1.00048828125,0.11767578125
2023-07-30T13:45:40.725372,0.9967406392097473,0.03839753568172455,0.057711973786354065,-0.041269510984420776,-0.0576171875,0.99072265625,0.1015625
2023-07-30T13:45:40.725372,0.9964534044265747,0.044681817293167114,0.05951772630214691,-0.039265360683202744,-0.0576171875,0.99072265625,0.1015625
2023-07-30T13:45:40.740843,0.9964534044265747,0.044681817293167114,0.05951772630214691,-0.039265360683202744,-0.06640625,0.9970703125,0.1015625
2023-07-30T13:45:40.740843,0.996108889579773,0.05091280862689018,0.06152869015932083,-0.03727298229932785,-0.06640625,0.9970703125,0.1015625
2023-07-30T13:45:40.747450,0.996108889579773,0.05091280862689018,0.06152869015932083,-0.03727298229932785,-0.0703125,1.01708984375,0.111328125
2023-07-30T13:45:40.748448,0.9957118630409241,0.057593755424022675,0.0633196234703064,-0.03509047254920006,-0.0703125,1.01708984375,0.111328125
2023-07-30T13:45:40.754866,0.9957118630409241,0.057593755424022675,0.0633196234703064,-0.03509047254920006,-0.0712890625,1.009765625,0.10546875
2023-07-30T13:45:40.755953,0.9952268004417419,0.0647229477763176,0.06501070410013199,-0.033288031816482544,-0.0712890625,1.009765625,0.10546875
2023-07-30T13:45:40.770158,0.9952268004417419,0.0647229477763176,0.06501070410013199,-0.033288031816482544,-0.0478515625,0.9951171875,0.07861328125
2023-07-30T13:45:40.771155,0.9947305917739868,0.07106068730354309,0.06650123000144958,-0.03223457187414169,-0.0478515625,0.9951171875,0.07861328125
2023-07-30T13:45:40.777679,0.9947305917739868,0.07106068730354309,0.06650123000144958,-0.03223457187414169,-0.044921875,0.9873046875,0.06591796875
2023-07-30T13:45:40.778679,0.9943128824234009,0.07584688812494278,0.0678277537226677,-0.031440868973731995,-0.044921875,0.9873046875,0.06591796875
2023-07-30T13:45:40.784665,0.9943128824234009,0.07584688812494278,0.0678277537226677,-0.031440868973731995,-0.07177734375,1.0029296875,0.06494140625
2023-07-30T13:45:40.784665,0.9939804673194885,0.0795753002166748,0.06887070089578629,-0.030453402549028397,-0.07177734375,1.0029296875,0.06494140625
2023-07-30T13:45:40.800167,0.9939804673194885,0.0795753002166748,0.06887070089578629,-0.030453402549028397,-0.0947265625,1.02587890625,0.07275390625
2023-07-30T13:45:40.801167,0.9937047362327576,0.08268174529075623,0.0697128176689148,-0.029237130656838417,-0.0947265625,1.02587890625,0.07275390625
2023-07-30T13:45:40.807229,0.9937047362327576,0.08268174529075623,0.0697128176689148,-0.029237130656838417,-0.09130859375,1.00439453125,0.08203125
2023-07-30T13:45:40.808227,0.9934149980545044,0.08589624613523483,0.07066017389297485,-0.02748957648873329,-0.09130859375,1.00439453125,0.08203125
2023-07-30T13:45:40.814215,0.9934149980545044,0.08589624613523483,0.07066017389297485,-0.02748957648873329,-0.06201171875,0.97412109375,0.078125
2023-07-30T13:45:40.815648,0.9930658340454102,0.08959124982357025,0.07176003605127335,-0.025379883125424385,-0.06201171875,0.97412109375,0.078125
2023-07-30T13:45:40.830476,0.9930658340454102,0.08959124982357025,0.07176003605127335,-0.025379883125424385,-0.02734375,0.96337890625,0.06640625
2023-07-30T13:45:40.830476,0.9926711916923523,0.09361068159341812,0.07286586612462997,-0.023053422570228577,-0.02734375,0.96337890625,0.06640625
2023-07-30T13:45:40.836702,0.9926711916923523,0.09361068159341812,0.07286586612462997,-0.023053422570228577,-0.015625,0.98095703125,0.04931640625
2023-07-30T13:45:40.836702,0.9922593832015991,0.09763122349977493,0.07390663027763367,-0.020669151097536087,-0.015625,0.98095703125,0.04931640625
2023-07-30T13:45:40.836702,0.9922593832015991,0.09763122349977493,0.07390663027763367,-0.020669151097536087,-0.02734375,1.0068359375,0.0390625
2023-07-30T13:45:40.836702,0.9918248653411865,0.10182560980319977,0.07472234219312668,-0.018208101391792297,-0.02734375,1.0068359375,0.0390625
2023-07-30T13:45:40.852349,0.9918248653411865,0.10182560980319977,0.07472234219312668,-0.018208101391792297,-0.03271484375,1.03369140625,0.03173828125
2023-07-30T13:45:40.852349,0.9912742972373962,0.10674162954092026,0.07574713230133057,-0.01561151072382927,-0.03271484375,1.03369140625,0.03173828125
2023-07-30T13:45:40.867944,0.9912742972373962,0.10674162954092026,0.07574713230133057,-0.01561151072382927,-0.009765625,1.03955078125,0.0146484375
2023-07-30T13:45:40.867944,0.9906054735183716,0.1122058853507042,0.07709430158138275,-0.012926477938890457,-0.009765625,1.03955078125,0.0146484375
2023-07-30T13:45:40.874451,0.9906054735183716,0.1122058853507042,0.07709430158138275,-0.012926477938890457,0.02783203125,1.01025390625,-0.0146484375
2023-07-30T13:45:40.874451,0.9899235963821411,0.11760233342647552,0.07822355628013611,-0.010101276449859142,0.02783203125,1.01025390625,-0.0146484375
2023-07-30T13:45:40.883957,0.9899235963821411,0.11760233342647552,0.07822355628013611,-0.010101276449859142,0.06103515625,0.9541015625,-0.041015625
2023-07-30T13:45:40.883957,0.9893114566802979,0.1222434788942337,0.07916035503149033,-0.007288900204002857,0.06103515625,0.9541015625,-0.041015625
2023-07-30T13:45:40.883957,0.9893114566802979,0.1222434788942337,0.07916035503149033,-0.007288900204002857,0.078125,0.92041015625,-0.05419921875
2023-07-30T13:45:40.883957,0.9887619018554688,0.12629300355911255,0.07985695451498032,-0.004776069428771734,0.078125,0.92041015625,-0.05419921875
2023-07-30T13:45:40.899583,0.9887619018554688,0.12629300355911255,0.07985695451498032,-0.004776069428771734,0.08642578125,0.90673828125,-0.06103515625
2023-07-30T13:45:40.899583,0.9882223606109619,0.13018378615379333,0.0803890973329544,-0.0025124025996774435,0.08642578125,0.90673828125,-0.06103515625
2023-07-30T13:45:40.915204,0.9882223606109619,0.13018378615379333,0.0803890973329544,-0.0025124025996774435,0.0849609375,0.90234375,-0.060546875
2023-07-30T13:45:40.915204,0.9876618981361389,0.13411089777946472,0.08085897564888,-0.0003557138261385262,0.0849609375,0.90234375,-0.060546875
2023-07-30T13:45:40.915204,0.9876618981361389,0.13411089777946472,0.08085897564888,-0.0003557138261385262,0.06201171875,0.89013671875,-0.0595703125
2023-07-30T13:45:40.915204,0.9870189428329468,0.13857991993427277,0.08115100860595703,0.0019392806570976973,0.06201171875,0.89013671875,-0.0595703125
2023-07-30T13:45:40.930827,0.9870189428329468,0.13857991993427277,0.08115100860595703,0.0019392806570976973,0.0556640625,0.87744140625,-0.068359375
2023-07-30T13:45:40.930827,0.9862552285194397,0.14380335807800293,0.08126664906740189,0.004121619742363691,0.0556640625,0.87744140625,-0.068359375
2023-07-30T13:45:40.930827,0.9862552285194397,0.14380335807800293,0.08126664906740189,0.004121619742363691,0.06005859375,0.8603515625,-0.07958984375
2023-07-30T13:45:40.946447,0.9853712916374207,0.14973723888397217,0.08114136755466461,0.0061884308233857155,0.06005859375,0.8603515625,-0.07958984375
2023-07-30T13:45:40.946447,0.9853712916374207,0.14973723888397217,0.08114136755466461,0.0061884308233857155,0.076171875,0.8369140625,-0.0888671875
2023-07-30T13:45:40.946447,0.9844027161598206,0.15606127679347992,0.08081472665071487,0.008074461482465267,0.076171875,0.8369140625,-0.0888671875
2023-07-30T13:45:40.962068,0.9844027161598206,0.15606127679347992,0.08081472665071487,0.008074461482465267,0.11083984375,0.8251953125,-0.10693359375
2023-07-30T13:45:40.962068,0.983385443687439,0.16247163712978363,0.08038263022899628,0.009727757424116135,0.11083984375,0.8251953125,-0.10693359375
2023-07-30T13:45:40.962068,0.983385443687439,0.16247163712978363,0.08038263022899628,0.009727757424116135,0.12939453125,0.8330078125,-0.13671875
2023-07-30T13:45:40.962068,0.9824681878089905,0.1683250516653061,0.07938851416110992,0.01097610592842102,0.12939453125,0.8330078125,-0.13671875
2023-07-30T13:45:40.978217,0.9824681878089905,0.1683250516653061,0.07938851416110992,0.01097610592842102,0.1298828125,0.86181640625,-0.13037109375
2023-07-30T13:45:40.978217,0.9815300703048706,0.17387501895427704,0.07890644669532776,0.011832868680357933,0.1298828125,0.86181640625,-0.13037109375
2023-07-30T13:45:40.993841,0.9815300703048706,0.17387501895427704,0.07890644669532776,0.011832868680357933,0.11767578125,0.8974609375,-0.13671875
2023-07-30T13:45:40.993841,0.9806140661239624,0.1790798008441925,0.07861007750034332,0.012126918882131577,0.11767578125,0.8974609375,-0.13671875
2023-07-30T13:45:40.993841,0.9806140661239624,0.1790798008441925,0.07861007750034332,0.012126918882131577,0.1181640625,0.90087890625,-0.16015625
2023-07-30T13:45:40.993841,0.9798427820205688,0.1835653930902481,0.07786447554826736,0.012206710875034332,0.1181640625,0.90087890625,-0.16015625
2023-07-30T13:45:41.009462,0.9798427820205688,0.1835653930902481,0.07786447554826736,0.012206710875034332,0.13134765625,0.89599609375,-0.18798828125
2023-07-30T13:45:41.009462,0.9791482090950012,0.1876404732465744,0.07690742611885071,0.012044103816151619,0.13134765625,0.89599609375,-0.18798828125
2023-07-30T13:45:41.025084,0.9791482090950012,0.1876404732465744,0.07690742611885071,0.012044103816151619,0.1416015625,0.9072265625,-0.19189453125
2023-07-30T13:45:41.025084,0.9783318638801575,0.19199666380882263,0.07662045210599899,0.011550898663699627,0.1416015625,0.9072265625,-0.19189453125
2023-07-30T13:45:41.025084,0.9783318638801575,0.19199666380882263,0.07662045210599899,0.011550898663699627,0.1396484375,0.92822265625,-0.20556640625
2023-07-30T13:45:41.025084,0.9774722456932068,0.19634407758712769,0.07666004449129105,0.010965932160615921,0.1396484375,0.92822265625,-0.20556640625
2023-07-30T13:45:41.040712,0.9774722456932068,0.19634407758712769,0.07666004449129105,0.010965932160615921,0.11669921875,0.9326171875,-0.2236328125
2023-07-30T13:45:41.040712,0.9766787886619568,0.20038467645645142,0.07641710340976715,0.010241321288049221,0.11669921875,0.9326171875,-0.2236328125
2023-07-30T13:45:41.040712,0.9766787886619568,0.20038467645645142,0.07641710340976715,0.010241321288049221,0.1005859375,0.94970703125,-0.2353515625
2023-07-30T13:45:41.056326,0.9761036038398743,0.2036397010087967,0.07532023638486862,0.008914838545024395,0.1005859375,0.94970703125,-0.2353515625
2023-07-30T13:45:41.056326,0.9761036038398743,0.2036397010087967,0.07532023638486862,0.008914838545024395,0.103515625,0.97119140625,-0.2548828125
2023-07-30T13:45:41.056326,0.9757398366928101,0.20612268149852753,0.07346716523170471,0.006915103644132614,0.103515625,0.97119140625,-0.2548828125
2023-07-30T13:45:41.074452,0.9757398366928101,0.20612268149852753,0.07346716523170471,0.006915103644132614,0.111328125,0.990234375,-0.25830078125
2023-07-30T13:45:41.074452,0.9753706455230713,0.20844607055187225,0.07197685539722443,0.004664960317313671,0.111328125,0.990234375,-0.25830078125
2023-07-30T13:45:41.074452,0.9753706455230713,0.20844607055187225,0.07197685539722443,0.004664960317313671,0.11328125,0.99609375,-0.255859375
2023-07-30T13:45:41.074452,0.9748561382293701,0.2111414521932602,0.07118909806013107,0.002627716399729252,0.11328125,0.99609375,-0.255859375
2023-07-30T13:45:41.087960,0.9748561382293701,0.2111414521932602,0.07118909806013107,0.002627716399729252,0.11328125,0.99462890625,-0.2568359375
2023-07-30T13:45:41.087960,0.974073588848114,0.2148459404706955,0.07086196541786194,0.0007292200461961329,0.11328125,0.99462890625,-0.2568359375
2023-07-30T13:45:41.103585,0.974073588848114,0.2148459404706955,0.07086196541786194,0.0007292200461961329,0.11669921875,0.98291015625,-0.26025390625
2023-07-30T13:45:41.103585,0.9729816317558289,0.21965742111206055,0.07109418511390686,-0.0017210622318089008,0.11669921875,0.98291015625,-0.26025390625
2023-07-30T13:45:41.103585,0.9729816317558289,0.21965742111206055,0.07109418511390686,-0.0017210622318089008,0.11767578125,0.97216796875,-0.27783203125
2023-07-30T13:45:41.119206,0.9717039465904236,0.22500544786453247,0.07169801741838455,-0.004851214587688446,0.11767578125,0.97216796875,-0.27783203125
2023-07-30T13:45:41.119206,0.9717039465904236,0.22500544786453247,0.07169801741838455,-0.004851214587688446,0.11474609375,0.9765625,-0.30029296875
2023-07-30T13:45:41.119206,0.9704641699790955,0.2299940139055252,0.07221046835184097,-0.009368300437927246,0.11474609375,0.9765625,-0.30029296875
2023-07-30T13:45:41.134827,0.9704641699790955,0.2299940139055252,0.07221046835184097,-0.009368300437927246,0.10205078125,0.96728515625,-0.3173828125
2023-07-30T13:45:41.134827,0.9694746136665344,0.2337139993906021,0.07211524993181229,-0.01721014454960823,0.10205078125,0.96728515625,-0.3173828125
2023-07-30T13:45:41.134827,0.9694746136665344,0.2337139993906021,0.07211524993181229,-0.01721014454960823,0.09423828125,0.9609375,-0.3271484375
2023-07-30T13:45:41.134827,0.9687040448188782,0.23570983111858368,0.07116524130105972,-0.03144456818699837,0.09423828125,0.9609375,-0.3271484375
2023-07-30T13:45:41.150449,0.9687040448188782,0.23570983111858368,0.07116524130105972,-0.03144456818699837,0.0556640625,0.98974609375,-0.35498046875
2023-07-30T13:45:41.150449,0.968339741230011,0.23428204655647278,0.067591592669487,-0.053492169827222824,0.0556640625,0.98974609375,-0.35498046875
2023-07-30T13:45:41.166071,0.968339741230011,0.23428204655647278,0.067591592669487,-0.053492169827222824,0.0517578125,0.96435546875,-0.3564453125
2023-07-30T13:45:41.166071,0.9678325653076172,0.22920584678649902,0.0634881779551506,-0.08206140995025635,0.0517578125,0.96435546875,-0.3564453125
2023-07-30T13:45:41.174575,0.9678325653076172,0.22920584678649902,0.0634881779551506,-0.08206140995025635,0.04150390625,0.83935546875,-0.2919921875
2023-07-30T13:45:41.174575,0.9662129878997803,0.2245888113975525,0.0624995082616806,-0.10993733257055283,0.04150390625,0.83935546875,-0.2919921875
2023-07-30T13:45:41.182083,0.9662129878997803,0.2245888113975525,0.0624995082616806,-0.10993733257055283,-0.1181640625,0.88134765625,-0.26904296875
2023-07-30T13:45:41.182083,0.9639712572097778,0.21995681524276733,0.06294131278991699,-0.1357085257768631,-0.1181640625,0.88134765625,-0.26904296875
2023-07-30T13:45:41.213348,0.9639712572097778,0.21995681524276733,0.06294131278991699,-0.1357085257768631,-0.23828125,0.9228515625,-0.24462890625
2023-07-30T13:45:41.213348,0.9615664482116699,0.21709945797920227,0.06461212038993835,-0.15518715977668762,-0.23828125,0.9228515625,-0.24462890625
2023-07-30T13:45:41.213348,0.9615664482116699,0.21709945797920227,0.06461212038993835,-0.15518715977668762,-0.298828125,0.90087890625,-0.25
2023-07-30T13:45:41.213348,0.9596624970436096,0.2157474011182785,0.06678497791290283,-0.16745346784591675,-0.298828125,0.90087890625,-0.25
2023-07-30T13:45:41.213348,0.9596624970436096,0.2157474011182785,0.06678497791290283,-0.16745346784591675,-0.298828125,0.88671875,-0.2646484375
2023-07-30T13:45:41.213348,0.9590498805046082,0.2154107689857483,0.06871732324361801,-0.170585498213768,-0.298828125,0.88671875,-0.2646484375
2023-07-30T13:45:41.213348,0.9590498805046082,0.2154107689857483,0.06871732324361801,-0.170585498213768,-0.24609375,0.9130859375,-0.267578125
2023-07-30T13:45:41.213348,0.9593242406845093,0.21482127904891968,0.07022453844547272,-0.16916681826114655,-0.24609375,0.9130859375,-0.267578125
2023-07-30T13:45:41.228955,0.9593242406845093,0.21482127904891968,0.07022453844547272,-0.16916681826114655,-0.197265625,0.873046875,-0.255859375
2023-07-30T13:45:41.228955,0.9593333601951599,0.21436646580696106,0.07119866460561752,-0.1692846119403839,-0.197265625,0.873046875,-0.255859375
2023-07-30T13:45:41.228955,0.9593333601951599,0.21436646580696106,0.07119866460561752,-0.1692846119403839,-0.20458984375,0.85400390625,-0.26318359375
2023-07-30T13:45:41.228955,0.9593235850334167,0.21363388001918793,0.07146589457988739,-0.17015095055103302,-0.20458984375,0.85400390625,-0.26318359375
2023-07-30T13:45:41.244572,0.9593235850334167,0.21363388001918793,0.07146589457988739,-0.17015095055103302,-0.26025390625,0.90478515625,-0.26318359375
2023-07-30T13:45:41.244572,0.9594480395317078,0.21251556277275085,0.07158710062503815,-0.1707979291677475,-0.26025390625,0.90478515625,-0.26318359375
2023-07-30T13:45:41.265266,0.9594480395317078,0.21251556277275085,0.07158710062503815,-0.1707979291677475,-0.30419921875,0.9150390625,-0.240234375
2023-07-30T13:45:41.265266,0.9595836400985718,0.21147824823856354,0.07168092578649521,-0.17128346860408783,-0.30419921875,0.9150390625,-0.240234375
2023-07-30T13:45:41.272964,0.9595836400985718,0.21147824823856354,0.07168092578649521,-0.17128346860408783,-0.29833984375,0.90234375,-0.2421875
2023-07-30T13:45:41.272964,0.9597854018211365,0.21022774279117584,0.07148423790931702,-0.17177405953407288,-0.29833984375,0.90234375,-0.2421875
2023-07-30T13:45:41.280510,0.9597854018211365,0.21022774279117584,0.07148423790931702,-0.17177405953407288,-0.279296875,0.9033203125,-0.24462890625
2023-07-30T13:45:41.281506,0.9600495100021362,0.20861996710300446,0.07117624580860138,-0.1723850518465042,-0.279296875,0.9033203125,-0.24462890625
2023-07-30T13:45:41.281506,0.9600495100021362,0.20861996710300446,0.07117624580860138,-0.1723850518465042,-0.2705078125,0.9140625,-0.24169921875
2023-07-30T13:45:41.281506,0.960300624370575,0.20698150992393494,0.07088857889175415,-0.17307844758033752,-0.2705078125,0.9140625,-0.24169921875
2023-07-30T13:45:41.297165,0.960300624370575,0.20698150992393494,0.07088857889175415,-0.17307844758033752,-0.275390625,0.93603515625,-0.23779296875
2023-07-30T13:45:41.297165,0.9603996276855469,0.20608703792095184,0.07114582508802414,-0.17349006235599518,-0.275390625,0.93603515625,-0.23779296875
2023-07-30T13:45:41.297165,0.9603996276855469,0.20608703792095184,0.07114582508802414,-0.17349006235599518,-0.2978515625,0.9375,-0.2294921875
2023-07-30T13:45:41.297165,0.9603825211524963,0.2059755176305771,0.0718827024102211,-0.17341375350952148,-0.2978515625,0.9375,-0.2294921875
2023-07-30T13:45:41.312786,0.9603825211524963,0.2059755176305771,0.0718827024102211,-0.17341375350952148,-0.29931640625,0.93359375,-0.2294921875
2023-07-30T13:45:41.312786,0.9602311253547668,0.206465482711792,0.07309386134147644,-0.17316332459449768,-0.29931640625,0.93359375,-0.2294921875
2023-07-30T13:45:41.333266,0.9602311253547668,0.206465482711792,0.07309386134147644,-0.17316332459449768,-0.294921875,0.93212890625,-0.234375
2023-07-30T13:45:41.333266,0.9600785970687866,0.20711402595043182,0.07446625828742981,-0.17264892160892487,-0.294921875,0.93212890625,-0.234375
2023-07-30T13:45:41.335260,0.9600785970687866,0.20711402595043182,0.07446625828742981,-0.17264892160892487,-0.30224609375,0.92626953125,-0.22998046875
2023-07-30T13:45:41.335260,0.9598700404167175,0.20808380842208862,0.07595429569482803,-0.17199282348155975,-0.30224609375,0.92626953125,-0.22998046875
2023-07-30T13:45:41.350922,0.9598700404167175,0.20808380842208862,0.07595429569482803,-0.17199282348155975,-0.3095703125,0.92919921875,-0.22607421875
2023-07-30T13:45:41.350922,0.9595971703529358,0.20945759117603302,0.07763911038637161,-0.1710936427116394,-0.3095703125,0.92919921875,-0.22607421875
2023-07-30T13:45:41.350922,0.9595971703529358,0.20945759117603302,0.07763911038637161,-0.1710936427116394,-0.30712890625,0.91796875,-0.2373046875
2023-07-30T13:45:41.350922,0.9593730568885803,0.2106776237487793,0.07921142876148224,-0.17012901604175568,-0.30712890625,0.91796875,-0.2373046875
2023-07-30T13:45:41.366543,0.9593730568885803,0.2106776237487793,0.07921142876148224,-0.17012901604175568,-0.2861328125,0.904296875,-0.2421875
2023-07-30T13:45:41.366543,0.9591155052185059,0.2118529975414276,0.08087105304002762,-0.16933861374855042,-0.2861328125,0.904296875,-0.2421875
2023-07-30T13:45:41.382559,0.9591155052185059,0.2118529975414276,0.08087105304002762,-0.16933861374855042,-0.26171875,0.900390625,-0.2470703125
2023-07-30T13:45:41.382559,0.9588916897773743,0.21282356977462769,0.08255381137132645,-0.1685756891965866,-0.26171875,0.900390625,-0.2470703125
2023-07-30T13:45:41.382559,0.9588916897773743,0.21282356977462769,0.08255381137132645,-0.1685756891965866,-0.25439453125,0.89453125,-0.25634765625
2023-07-30T13:45:41.382559,0.9588311910629272,0.21314789354801178,0.08362243324518204,-0.16798251867294312,-0.25439453125,0.89453125,-0.25634765625
2023-07-30T13:45:41.398183,0.9588311910629272,0.21314789354801178,0.08362243324518204,-0.16798251867294312,-0.2509765625,0.890625,-0.2568359375
2023-07-30T13:45:41.398183,0.958946704864502,0.21279995143413544,0.08385996520519257,-0.16764511168003082,-0.2509765625,0.890625,-0.2568359375
2023-07-30T13:45:41.413805,0.958946704864502,0.21279995143413544,0.08385996520519257,-0.16764511168003082,-0.2607421875,0.8984375,-0.25146484375
2023-07-30T13:45:41.413805,0.9590994119644165,0.21240174770355225,0.0839209333062172,-0.1672457605600357,-0.2607421875,0.8984375,-0.25146484375
2023-07-30T13:45:41.413805,0.9590994119644165,0.21240174770355225,0.0839209333062172,-0.1672457605600357,-0.27783203125,0.91748046875,-0.25341796875
2023-07-30T13:45:41.413805,0.9591473937034607,0.2126012146472931,0.08457260578870773,-0.16638636589050293,-0.27783203125,0.91748046875,-0.25341796875
2023-07-30T13:45:41.429426,0.9591473937034607,0.2126012146472931,0.08457260578870773,-0.16638636589050293,-0.26611328125,0.9169921875,-0.27001953125
2023-07-30T13:45:41.429426,0.9590953588485718,0.21343941986560822,0.08551041036844254,-0.16512934863567352,-0.26611328125,0.9169921875,-0.27001953125
2023-07-30T13:45:41.445048,0.9590953588485718,0.21343941986560822,0.08551041036844254,-0.16512934863567352,-0.24560546875,0.90576171875,-0.2783203125
2023-07-30T13:45:41.445048,0.9589712023735046,0.21453100442886353,0.08663590252399445,-0.16384410858154297,-0.24560546875,0.90576171875,-0.2783203125
2023-07-30T13:45:41.445048,0.9589712023735046,0.21453100442886353,0.08663590252399445,-0.16384410858154297,-0.2314453125,0.8994140625,-0.28076171875
2023-07-30T13:45:41.445048,0.9588696956634521,0.21536757051944733,0.08766962587833405,-0.16278758645057678,-0.2314453125,0.8994140625,-0.28076171875
2023-07-30T13:45:41.445048,0.9588696956634521,0.21536757051944733,0.08766962587833405,-0.16278758645057678,-0.2197265625,0.89990234375,-0.291015625
2023-07-30T13:45:41.460669,0.9588338136672974,0.21577875316143036,0.0885407105088234,-0.16198118031024933,-0.2197265625,0.89990234375,-0.291015625
2023-07-30T13:45:41.474677,0.9588338136672974,0.21577875316143036,0.0885407105088234,-0.16198118031024933,-0.19775390625,0.90185546875,-0.29833984375
2023-07-30T13:45:41.474677,0.9587899446487427,0.21596314013004303,0.08943039178848267,-0.16150513291358948,-0.19775390625,0.90185546875,-0.29833984375
2023-07-30T13:45:41.476686,0.9587899446487427,0.21596314013004303,0.08943039178848267,-0.16150513291358948,-0.18212890625,0.89599609375,-0.29931640625
2023-07-30T13:45:41.476686,0.9588052034378052,0.2156493067741394,0.0902225598692894,-0.16139332950115204,-0.18212890625,0.89599609375,-0.29931640625
2023-07-30T13:45:41.476686,0.9588052034378052,0.2156493067741394,0.0902225598692894,-0.16139332950115204,-0.1767578125,0.8896484375,-0.2919921875
2023-07-30T13:45:41.476686,0.9589263200759888,0.2145184427499771,0.09072169661521912,-0.1619005799293518,-0.1767578125,0.8896484375,-0.2919921875
2023-07-30T13:45:41.492309,0.9589263200759888,0.2145184427499771,0.09072169661521912,-0.1619005799293518,-0.1845703125,0.89013671875,-0.27197265625
2023-07-30T13:45:41.492309,0.9593605995178223,0.21189753711223602,0.09014946967363358,-0.16309449076652527,-0.1845703125,0.89013671875,-0.27197265625
2023-07-30T13:45:41.507930,0.9593605995178223,0.21189753711223602,0.09014946967363358,-0.16309449076652527,-0.19384765625,0.8623046875,-0.23779296875
2023-07-30T13:45:41.507930,0.9599684476852417,0.20847775042057037,0.0892178863286972,-0.16443192958831787,-0.19384765625,0.8623046875,-0.23779296875
2023-07-30T13:45:41.507930,0.9599684476852417,0.20847775042057037,0.0892178863286972,-0.16443192958831787,-0.20849609375,0.86865234375,-0.21923828125
2023-07-30T13:45:41.507930,0.9604056477546692,0.20549951493740082,0.08873976022005081,-0.16588009893894196,-0.20849609375,0.86865234375,-0.21923828125
2023-07-30T13:45:41.523552,0.9604056477546692,0.20549951493740082,0.08873976022005081,-0.16588009893894196,-0.24365234375,0.89111328125,-0.2041015625
2023-07-30T13:45:41.523552,0.9605993032455444,0.20365014672279358,0.08904801309108734,-0.16687148809432983,-0.24365234375,0.89111328125,-0.2041015625
2023-07-30T13:45:41.539173,0.9605993032455444,0.20365014672279358,0.08904801309108734,-0.16687148809432983,-0.2646484375,0.89013671875,-0.19189453125
2023-07-30T13:45:41.539173,0.9606341123580933,0.202800452709198,0.09011948108673096,-0.1671305149793625,-0.2646484375,0.89013671875,-0.19189453125
2023-07-30T13:45:41.539173,0.9606341123580933,0.202800452709198,0.09011948108673096,-0.1671305149793625,-0.2607421875,0.8740234375,-0.18603515625
2023-07-30T13:45:41.539173,0.9604760408401489,0.2028590440750122,0.09168091416358948,-0.1671186089515686,-0.2607421875,0.8740234375,-0.18603515625
2023-07-30T13:45:41.554794,0.9604760408401489,0.2028590440750122,0.09168091416358948,-0.1671186089515686,-0.24658203125,0.873046875,-0.205078125
2023-07-30T13:45:41.554794,0.9602758884429932,0.20307385921478271,0.09318888187408447,-0.16717399656772614,-0.24658203125,0.873046875,-0.205078125
2023-07-30T13:45:41.570415,0.9602758884429932,0.20307385921478271,0.09318888187408447,-0.16717399656772614,-0.23486328125,0.87841796875,-0.228515625
2023-07-30T13:45:41.570415,0.9600996375083923,0.2031102180480957,0.09449740499258041,-0.1674073040485382,-0.23486328125,0.87841796875,-0.228515625
2023-07-30T13:45:41.574920,0.9600996375083923,0.2031102180480957,0.09449740499258041,-0.1674073040485382,-0.232421875,0.8896484375,-0.23779296875
2023-07-30T13:45:41.574920,0.959879457950592,0.20315417647361755,0.09585925191640854,-0.16784171760082245,-0.232421875,0.8896484375,-0.23779296875
2023-07-30T13:45:41.586426,0.959879457950592,0.20315417647361755,0.09585925191640854,-0.16784171760082245,-0.240234375,0.90576171875,-0.24072265625
2023-07-30T13:45:41.586426,0.9596360325813293,0.20305660367012024,0.09730078279972076,-0.1685207188129425,-0.240234375,0.90576171875,-0.24072265625
2023-07-30T13:45:41.617672,0.9596360325813293,0.20305660367012024,0.09730078279972076,-0.1685207188129425,-0.2568359375,0.91162109375,-0.23974609375
2023-07-30T13:45:41.617672,0.9595385193824768,0.2023255079984665,0.09839930385351181,-0.16931597888469696,-0.2568359375,0.91162109375,-0.23974609375
2023-07-30T13:45:41.617672,0.9595385193824768,0.2023255079984665,0.09839930385351181,-0.16931597888469696,-0.27392578125,0.9033203125,-0.228515625
2023-07-30T13:45:41.617672,0.9595573544502258,0.20102879405021667,0.09918182343244553,-0.17029397189617157,-0.27392578125,0.9033203125,-0.228515625
2023-07-30T13:45:41.617672,0.9595573544502258,0.20102879405021667,0.09918182343244553,-0.17029397189617157,-0.29345703125,0.9072265625,-0.21435546875
2023-07-30T13:45:41.617672,0.9595749974250793,0.19948258996009827,0.09991398453712463,-0.17158016562461853,-0.29345703125,0.9072265625,-0.21435546875
2023-07-30T13:45:41.617672,0.9595749974250793,0.19948258996009827,0.09991398453712463,-0.17158016562461853,-0.3154296875,0.919921875,-0.20458984375
2023-07-30T13:45:41.633294,0.9596661329269409,0.1977315992116928,0.10048214346170425,-0.1727614551782608,-0.3154296875,0.919921875,-0.20458984375
2023-07-30T13:45:41.633294,0.9596661329269409,0.1977315992116928,0.10048214346170425,-0.1727614551782608,-0.314453125,0.92236328125,-0.212890625
2023-07-30T13:45:41.633294,0.9599627256393433,0.1953098475933075,0.10023988038301468,-0.17400433123111725,-0.314453125,0.92236328125,-0.212890625
2023-07-30T13:45:41.633294,0.9599627256393433,0.1953098475933075,0.10023988038301468,-0.17400433123111725,-0.2939453125,0.927734375,-0.22412109375
2023-07-30T13:45:41.633294,0.9602963328361511,0.19266276061534882,0.09960079938173294,-0.17547564208507538,-0.2939453125,0.927734375,-0.22412109375
2023-07-30T13:45:41.648914,0.9602963328361511,0.19266276061534882,0.09960079938173294,-0.17547564208507538,-0.291015625,0.9453125,-0.23486328125
2023-07-30T13:45:41.664535,0.9605110287666321,0.1905459761619568,0.09947317838668823,-0.1766802817583084,-0.291015625,0.9453125,-0.23486328125
2023-07-30T13:45:41.664535,0.9605110287666321,0.1905459761619568,0.09947317838668823,-0.1766802817583084,-0.2890625,0.9619140625,-0.2431640625
2023-07-30T13:45:41.664535,0.9605491161346436,0.18935289978981018,0.10031403601169586,-0.17727918922901154,-0.2890625,0.9619140625,-0.2431640625
2023-07-30T13:45:41.675039,0.9605491161346436,0.18935289978981018,0.10031403601169586,-0.17727918922901154,-0.2880859375,0.9580078125,-0.24169921875
2023-07-30T13:45:41.675039,0.9604479670524597,0.1888541877269745,0.10200221836566925,-0.17739622294902802,-0.2880859375,0.9580078125,-0.24169921875
2023-07-30T13:45:41.680547,0.9604479670524597,0.1888541877269745,0.10200221836566925,-0.17739622294902802,-0.287109375,0.939453125,-0.23291015625
2023-07-30T13:45:41.680547,0.9602718353271484,0.18867747485637665,0.10416381806135178,-0.17728160321712494,-0.287109375,0.939453125,-0.23291015625
2023-07-30T13:45:41.696170,0.9602718353271484,0.18867747485637665,0.10416381806135178,-0.17728160321712494,-0.283203125,0.935546875,-0.2255859375
2023-07-30T13:45:41.696170,0.9601112008094788,0.18813449144363403,0.10650412738323212,-0.17733784019947052,-0.283203125,0.935546875,-0.2255859375
2023-07-30T13:45:41.696170,0.9601112008094788,0.18813449144363403,0.10650412738323212,-0.17733784019947052,-0.29052734375,0.939453125,-0.21484375
2023-07-30T13:45:41.696170,0.960102915763855,0.18656225502490997,0.10861469060182571,-0.17776256799697876,-0.29052734375,0.939453125,-0.21484375
2023-07-30T13:45:41.711791,0.960102915763855,0.18656225502490997,0.10861469060182571,-0.17776256799697876,-0.3046875,0.92138671875,-0.20458984375
2023-07-30T13:45:41.711791,0.960369884967804,0.1834752857685089,0.10984086990356445,-0.17877787351608276,-0.3046875,0.92138671875,-0.20458984375
2023-07-30T13:45:41.727413,0.960369884967804,0.1834752857685089,0.10984086990356445,-0.17877787351608276,-0.296875,0.900390625,-0.21435546875
2023-07-30T13:45:41.727413,0.9608508348464966,0.17919060587882996,0.10972880572080612,-0.1805988848209381,-0.296875,0.900390625,-0.21435546875
2023-07-30T13:45:41.727413,0.9608508348464966,0.17919060587882996,0.10972880572080612,-0.1805988848209381,-0.27880859375,0.90283203125,-0.22216796875
2023-07-30T13:45:41.727413,0.9615569114685059,0.17338164150714874,0.10840652137994766,-0.18328936398029327,-0.27880859375,0.90283203125,-0.22216796875
2023-07-30T13:45:41.743034,0.9615569114685059,0.17338164150714874,0.10840652137994766,-0.18328936398029327,-0.25732421875,0.9033203125,-0.2001953125
2023-07-30T13:45:41.743034,0.962378203868866,0.16662362217903137,0.10649870336055756,-0.18634051084518433,-0.25732421875,0.9033203125,-0.2001953125
2023-07-30T13:45:41.758655,0.962378203868866,0.16662362217903137,0.10649870336055756,-0.18634051084518433,-0.2373046875,0.89404296875,-0.1953125
2023-07-30T13:45:41.758655,0.9632636308670044,0.15944626927375793,0.10417301207780838,-0.18933574855327606,-0.2373046875,0.89404296875,-0.1953125
2023-07-30T13:45:41.758655,0.9632636308670044,0.15944626927375793,0.10417301207780838,-0.18933574855327606,-0.23828125,0.88232421875,-0.1806640625
2023-07-30T13:45:41.758655,0.964082658290863,0.15187424421310425,0.10228635370731354,-0.19239629805088043,-0.23828125,0.88232421875,-0.1806640625
2023-07-30T13:45:41.775283,0.964082658290863,0.15187424421310425,0.10228635370731354,-0.19239629805088043,-0.2666015625,0.8876953125,-0.15673828125
2023-07-30T13:45:41.775283,0.9646546244621277,0.1443791687488556,0.10137935727834702,-0.19575077295303345,-0.2666015625,0.8876953125,-0.15673828125
2023-07-30T13:45:41.790287,0.9646546244621277,0.1443791687488556,0.10137935727834702,-0.19575077295303345,-0.29296875,0.88916015625,-0.1416015625
2023-07-30T13:45:41.790287,0.9650130271911621,0.13684694468975067,0.10085225105285645,-0.19962862133979797,-0.29296875,0.88916015625,-0.1416015625
2023-07-30T13:45:41.790287,0.9650130271911621,0.13684694468975067,0.10085225105285645,-0.19962862133979797,-0.3056640625,0.86083984375,-0.12646484375
2023-07-30T13:45:41.790287,0.9653629064559937,0.1285770833492279,0.09932959079742432,-0.20414692163467407,-0.3056640625,0.86083984375,-0.12646484375
2023-07-30T13:45:41.790287,0.9653629064559937,0.1285770833492279,0.09932959079742432,-0.20414692163467407,-0.31298828125,0.85400390625,-0.10595703125
2023-07-30T13:45:41.805912,0.9656285047531128,0.11911633610725403,0.09687310457229614,-0.20973409712314606,-0.31298828125,0.85400390625,-0.10595703125
2023-07-30T13:45:41.805912,0.9656285047531128,0.11911633610725403,0.09687310457229614,-0.20973409712314606,-0.30908203125,0.8935546875,-0.1005859375
2023-07-30T13:45:41.805912,0.9657246470451355,0.1079418882727623,0.09291918575763702,-0.21700307726860046,-0.30908203125,0.8935546875,-0.1005859375
2023-07-30T13:45:41.821534,0.9657246470451355,0.1079418882727623,0.09291918575763702,-0.21700307726860046,-0.2880859375,0.86572265625,-0.1162109375
2023-07-30T13:45:41.821534,0.9661241769790649,0.0941765159368515,0.08654464781284332,-0.2241540551185608,-0.2880859375,0.86572265625,-0.1162109375
2023-07-30T13:45:41.821534,0.9661241769790649,0.0941765159368515,0.08654464781284332,-0.2241540551185608,-0.31884765625,0.86572265625,-0.06884765625
2023-07-30T13:45:41.821534,0.9663316011428833,0.07776705175638199,0.08046110719442368,-0.2316928654909134,-0.31884765625,0.86572265625,-0.06884765625
2023-07-30T13:45:41.837154,0.9663316011428833,0.07776705175638199,0.08046110719442368,-0.2316928654909134,-0.3828125,0.875,-0.0166015625
2023-07-30T13:45:41.837154,0.9661137461662292,0.05905041843652725,0.07534827291965485,-0.23970800638198853,-0.3828125,0.875,-0.0166015625
2023-07-30T13:45:41.852776,0.9661137461662292,0.05905041843652725,0.07534827291965485,-0.23970800638198853,-0.40576171875,0.865234375,-0.0185546875
2023-07-30T13:45:41.852776,0.9656258225440979,0.03394648805260658,0.07054045796394348,-0.2478678673505783,-0.40576171875,0.865234375,-0.0185546875
2023-07-30T13:45:41.852776,0.9656258225440979,0.03394648805260658,0.07054045796394348,-0.2478678673505783,-0.40087890625,0.87060546875,-0.03564453125
2023-07-30T13:45:41.852776,0.9644554853439331,0.0022186138667166233,0.06411667168140411,-0.25633877515792847,-0.40087890625,0.87060546875,-0.03564453125
2023-07-30T13:45:41.875403,0.9644554853439331,0.0022186138667166233,0.06411667168140411,-0.25633877515792847,-0.4384765625,0.9755859375,0.11328125
2023-07-30T13:45:41.875403,0.9620532989501953,-0.024572134017944336,0.05851830169558525,-0.2653774917125702,-0.4384765625,0.9755859375,0.11328125
2023-07-30T13:45:41.884409,0.9620532989501953,-0.024572134017944336,0.05851830169558525,-0.2653774917125702,-0.50390625,0.921875,0.3447265625
2023-07-30T13:45:41.884409,0.9596987366676331,-0.035828255116939545,0.0558067187666893,-0.2730937898159027,-0.50390625,0.921875,0.3447265625
2023-07-30T13:45:41.884409,0.9596987366676331,-0.035828255116939545,0.0558067187666893,-0.2730937898159027,-0.5546875,0.82275390625,0.37841796875
2023-07-30T13:45:41.884409,0.9586164951324463,-0.036311328411102295,0.0544159896671772,-0.27708253264427185,-0.5546875,0.82275390625,0.37841796875
2023-07-30T13:45:41.900034,0.9586164951324463,-0.036311328411102295,0.0544159896671772,-0.27708253264427185,-0.54736328125,0.8017578125,0.3134765625
2023-07-30T13:45:41.900034,0.9584123492240906,-0.03600397706031799,0.05257359519600868,-0.2781824767589569,-0.54736328125,0.8017578125,0.3134765625
2023-07-30T13:45:41.915656,0.9584123492240906,-0.03600397706031799,0.05257359519600868,-0.2781824767589569,-0.50244140625,0.759765625,0.29541015625
2023-07-30T13:45:41.915656,0.9584019184112549,-0.03667130693793297,0.04946295917034149,-0.278701514005661,-0.50244140625,0.759765625,0.29541015625
2023-07-30T13:45:41.915656,0.9584019184112549,-0.03667130693793297,0.04946295917034149,-0.278701514005661,-0.50244140625,0.7548828125,0.29541015625
2023-07-30T13:45:41.915656,0.9582375884056091,-0.03679444640874863,0.046119220554828644,-0.2798210680484772,-0.50244140625,0.7548828125,0.29541015625
2023-07-30T13:45:41.931276,0.9582375884056091,-0.03679444640874863,0.046119220554828644,-0.2798210680484772,-0.5185546875,0.79052734375,0.30517578125
2023-07-30T13:45:41.931276,0.9580445885658264,-0.03562305495142937,0.04364512488245964,-0.2810279130935669,-0.5185546875,0.79052734375,0.30517578125
2023-07-30T13:45:41.946898,0.9580445885658264,-0.03562305495142937,0.04364512488245964,-0.2810279130935669,-0.53076171875,0.810546875,0.28857421875
2023-07-30T13:45:41.946898,0.9578571915626526,-0.03524851053953171,0.04177097976207733,-0.2819971740245819,-0.53076171875,0.810546875,0.28857421875
2023-07-30T13:45:41.946898,0.9578571915626526,-0.03524851053953171,0.04177097976207733,-0.2819971740245819,-0.52685546875,0.7978515625,0.2431640625
2023-07-30T13:45:41.946898,0.9577565789222717,-0.03691543638706207,0.03908417001366615,-0.28251034021377563,-0.52685546875,0.7978515625,0.2431640625
2023-07-30T13:45:41.962519,0.9577565789222717,-0.03691543638706207,0.03908417001366615,-0.28251034021377563,-0.50830078125,0.79150390625,0.22216796875
2023-07-30T13:45:41.962519,0.9576390385627747,-0.03895455226302147,0.035773634910583496,-0.28307268023490906,-0.50830078125,0.79150390625,0.22216796875
2023-07-30T13:45:41.975527,0.9576390385627747,-0.03895455226302147,0.035773634910583496,-0.28307268023490906,-0.5166015625,0.841796875,0.22021484375
2023-07-30T13:45:41.978539,0.9575390815734863,-0.039800144731998444,0.03350776061415672,-0.28357017040252686,-0.5166015625,0.841796875,0.22021484375
2023-07-30T13:45:41.984696,0.9575390815734863,-0.039800144731998444,0.03350776061415672,-0.28357017040252686,-0.55419921875,0.84375,0.2275390625
2023-07-30T13:45:41.984696,0.9579564332962036,-0.035403184592723846,0.031287550926208496,-0.2829967737197876,-0.55419921875,0.84375,0.2275390625
2023-07-30T13:45:41.994707,0.9579564332962036,-0.035403184592723846,0.031287550926208496,-0.2829967737197876,-0.57080078125,0.8369140625,0.28759765625
2023-07-30T13:45:41.994707,0.9587688446044922,-0.02349301427602768,0.029998090118169785,-0.2816210389137268,-0.57080078125,0.8369140625,0.28759765625
2023-07-30T13:45:41.994707,0.9587688446044922,-0.02349301427602768,0.029998090118169785,-0.2816210389137268,-0.55224609375,0.8681640625,0.30078125
2023-07-30T13:45:41.994707,0.9596028327941895,-0.006820101290941238,0.03143338859081268,-0.27951356768608093,-0.55224609375,0.8681640625,0.30078125
2023-07-30T13:45:42.010214,0.9596028327941895,-0.006820101290941238,0.03143338859081268,-0.27951356768608093,-0.50927734375,0.8603515625,0.21826171875
2023-07-30T13:45:42.010214,0.9601645469665527,0.014549139887094498,0.03515031561255455,-0.27683353424072266,-0.50927734375,0.8603515625,0.21826171875
2023-07-30T13:45:42.025839,0.9601645469665527,0.014549139887094498,0.03515031561255455,-0.27683353424072266,-0.47412109375,0.8369140625,0.1435546875
2023-07-30T13:45:42.025839,0.9601631760597229,0.03886589780449867,0.041411153972148895,-0.2736078202724457,-0.47412109375,0.8369140625,0.1435546875
2023-07-30T13:45:42.025839,0.9601631760597229,0.03886589780449867,0.041411153972148895,-0.2736078202724457,-0.45263671875,0.82080078125,0.06640625
2023-07-30T13:45:42.025839,0.9594642519950867,0.06124965474009514,0.04896702617406845,-0.27070096135139465,-0.45263671875,0.82080078125,0.06640625
2023-07-30T13:45:42.041459,0.9594642519950867,0.06124965474009514,0.04896702617406845,-0.27070096135139465,-0.44921875,0.837890625,0.01220703125
2023-07-30T13:45:42.041459,0.9581053256988525,0.08177818357944489,0.05777416750788689,-0.26834431290626526,-0.44921875,0.837890625,0.01220703125
2023-07-30T13:45:42.057080,0.9581053256988525,0.08177818357944489,0.05777416750788689,-0.26834431290626526,-0.45751953125,0.89208984375,-0.0087890625
2023-07-30T13:45:42.057080,0.9562930464744568,0.09946302324533463,0.06568194925785065,-0.2670142948627472,-0.45751953125,0.89208984375,-0.0087890625
2023-07-30T13:45:42.057080,0.9562930464744568,0.09946302324533463,0.06568194925785065,-0.2670142948627472,-0.44580078125,0.884765625,-0.0205078125
2023-07-30T13:45:42.057080,0.9545420408248901,0.11485029011964798,0.07218880206346512,-0.26541954278945923,-0.44580078125,0.884765625,-0.0205078125
2023-07-30T13:45:42.075709,0.9545420408248901,0.11485029011964798,0.07218880206346512,-0.26541954278945923,-0.46484375,0.89013671875,-0.04248046875
2023-07-30T13:45:42.075709,0.9527150988578796,0.12847411632537842,0.07810082286596298,-0.2640616297721863,-0.46484375,0.89013671875,-0.04248046875
2023-07-30T13:45:42.075709,0.9527150988578796,0.12847411632537842,0.07810082286596298,-0.2640616297721863,-0.474609375,0.87109375,-0.0703125
2023-07-30T13:45:42.088715,0.9506279230117798,0.14047394692897797,0.0839489996433258,-0.2636782228946686,-0.474609375,0.87109375,-0.0703125
2023-07-30T13:45:42.088715,0.9506279230117798,0.14047394692897797,0.0839489996433258,-0.2636782228946686,-0.443359375,0.85400390625,-0.09814453125
2023-07-30T13:45:42.088715,0.9484321475028992,0.15196837484836578,0.08984095603227615,-0.26326897740364075,-0.443359375,0.85400390625,-0.09814453125
2023-07-30T13:45:42.104339,0.9484321475028992,0.15196837484836578,0.08984095603227615,-0.26326897740364075,-0.41162109375,0.8291015625,-0.1455078125
2023-07-30T13:45:42.104339,0.9460371136665344,0.16359704732894897,0.0961172878742218,-0.26270002126693726,-0.41162109375,0.8291015625,-0.1455078125
2023-07-30T13:45:42.104339,0.9460371136665344,0.16359704732894897,0.0961172878742218,-0.26270002126693726,-0.3984375,0.8173828125,-0.20263671875
2023-07-30T13:45:42.104339,0.9429454803466797,0.17658117413520813,0.1026744544506073,-0.2629275321960449,-0.3984375,0.8173828125,-0.20263671875
2023-07-30T13:45:42.119968,0.9429454803466797,0.17658117413520813,0.1026744544506073,-0.2629275321960449,-0.41357421875,0.8154296875,-0.24365234375
2023-07-30T13:45:42.119968,0.9391029477119446,0.1905532330274582,0.10983520746231079,-0.26402905583381653,-0.41357421875,0.8154296875,-0.24365234375
2023-07-30T13:45:42.135583,0.9391029477119446,0.1905532330274582,0.10983520746231079,-0.26402905583381653,-0.427734375,0.80419921875,-0.2421875
2023-07-30T13:45:42.135583,0.9346796274185181,0.20501820743083954,0.1178065612912178,-0.2654488682746887,-0.427734375,0.80419921875,-0.2421875
2023-07-30T13:45:42.135583,0.9346796274185181,0.20501820743083954,0.1178065612912178,-0.2654488682746887,-0.42138671875,0.79736328125,-0.24658203125
2023-07-30T13:45:42.135583,0.9304244518280029,0.21819926798343658,0.12504178285598755,-0.2665783166885376,-0.42138671875,0.79736328125,-0.24658203125
2023-07-30T13:45:42.151203,0.9304244518280029,0.21819926798343658,0.12504178285598755,-0.2665783166885376,-0.3896484375,0.7890625,-0.279296875
2023-07-30T13:45:42.151203,0.9268219470977783,0.2284405678510666,0.1304582953453064,-0.2679489254951477,-0.3896484375,0.7890625,-0.279296875
2023-07-30T13:45:42.151203,0.9268219470977783,0.2284405678510666,0.1304582953453064,-0.2679489254951477,-0.3876953125,0.8115234375,-0.28662109375
2023-07-30T13:45:42.151203,0.924067497253418,0.23515385389328003,0.13397976756095886,-0.2699100971221924,-0.3876953125,0.8115234375,-0.28662109375
2023-07-30T13:45:42.166824,0.924067497253418,0.23515385389328003,0.13397976756095886,-0.2699100971221924,-0.42236328125,0.822265625,-0.2685546875
2023-07-30T13:45:42.166824,0.922415018081665,0.23845812678337097,0.13546140491962433,-0.27191615104675293,-0.42236328125,0.822265625,-0.2685546875
2023-07-30T13:45:42.182835,0.922415018081665,0.23845812678337097,0.13546140491962433,-0.27191615104675293,-0.435546875,0.7998046875,-0.27197265625
2023-07-30T13:45:42.182835,0.9220616817474365,0.23841163516044617,0.13436411321163177,-0.27369412779808044,-0.435546875,0.7998046875,-0.27197265625
2023-07-30T13:45:42.182835,0.9220616817474365,0.23841163516044617,0.13436411321163177,-0.27369412779808044,-0.4287109375,0.8017578125,-0.3056640625
2023-07-30T13:45:42.182835,0.92239910364151,0.23655225336551666,0.13174040615558624,-0.2754404544830322,-0.4287109375,0.8017578125,-0.3056640625
2023-07-30T13:45:42.198459,0.92239910364151,0.23655225336551666,0.13174040615558624,-0.2754404544830322,-0.4404296875,0.80029296875,-0.35498046875
2023-07-30T13:45:42.198459,0.9226862192153931,0.235030397772789,0.12957307696342468,-0.2768062353134155,-0.4404296875,0.80029296875,-0.35498046875
2023-07-30T13:45:42.214081,0.9226862192153931,0.235030397772789,0.12957307696342468,-0.2768062353134155,-0.45947265625,0.79736328125,-0.3828125
2023-07-30T13:45:42.214081,0.9224811792373657,0.23505151271820068,0.12878000736236572,-0.27783963084220886,-0.45947265625,0.79736328125,-0.3828125
2023-07-30T13:45:42.214081,0.9224811792373657,0.23505151271820068,0.12878000736236572,-0.27783963084220886,-0.4658203125,0.79296875,-0.3740234375
2023-07-30T13:45:42.214081,0.9218518733978271,0.2363608479499817,0.12925513088703156,-0.2785962224006653,-0.4658203125,0.79296875,-0.3740234375
2023-07-30T13:45:42.229703,0.9218518733978271,0.2363608479499817,0.12925513088703156,-0.2785962224006653,-0.45458984375,0.77783203125,-0.3466796875
2023-07-30T13:45:42.229703,0.9210570454597473,0.23810414969921112,0.13003326952457428,-0.2793773114681244,-0.45458984375,0.77783203125,-0.3466796875
2023-07-30T13:45:42.245324,0.9210570454597473,0.23810414969921112,0.13003326952457428,-0.2793773114681244,-0.4482421875,0.78662109375,-0.32666015625
2023-07-30T13:45:42.245324,0.9204567074775696,0.23914100229740143,0.1303979605436325,-0.2802988290786743,-0.4482421875,0.78662109375,-0.32666015625
2023-07-30T13:45:42.245324,0.9204567074775696,0.23914100229740143,0.1303979605436325,-0.2802988290786743,-0.458984375,0.80078125,-0.3125
2023-07-30T13:45:42.245324,0.9200556874275208,0.23938244581222534,0.13090595602989197,-0.28117117285728455,-0.458984375,0.80078125,-0.3125
2023-07-30T13:45:42.260947,0.9200556874275208,0.23938244581222534,0.13090595602989197,-0.28117117285728455,-0.46923828125,0.8173828125,-0.29736328125
2023-07-30T13:45:42.260947,0.9197421073913574,0.23893143236637115,0.1309487372636795,-0.28255733847618103,-0.46923828125,0.8173828125,-0.29736328125
2023-07-30T13:45:42.277017,0.9197421073913574,0.23893143236637115,0.1309487372636795,-0.28255733847618103,-0.447265625,0.8115234375,-0.2861328125
2023-07-30T13:45:42.277017,0.9200261831283569,0.23706284165382385,0.12950074672698975,-0.2838706970214844,-0.447265625,0.8115234375,-0.2861328125
2023-07-30T13:45:42.277017,0.9200261831283569,0.23706284165382385,0.12950074672698975,-0.2838706970214844,-0.42822265625,0.79541015625,-0.29345703125
2023-07-30T13:45:42.277017,0.9208858609199524,0.23295244574546814,0.1262672245502472,-0.2859352231025696,-0.42822265625,0.79541015625,-0.29345703125
2023-07-30T13:45:42.292642,0.9208858609199524,0.23295244574546814,0.1262672245502472,-0.2859352231025696,-0.42431640625,0.77880859375,-0.31005859375
2023-07-30T13:45:42.292642,0.9222058653831482,0.22664830088615417,0.12172172218561172,-0.28870531916618347,-0.42431640625,0.77880859375,-0.31005859375
2023-07-30T13:45:42.308262,0.9222058653831482,0.22664830088615417,0.12172172218561172,-0.28870531916618347,-0.4716796875,0.79931640625,-0.30224609375
2023-07-30T13:45:42.308262,0.9235405325889587,0.22004343569278717,0.11715982109308243,-0.29142287373542786,-0.4716796875,0.79931640625,-0.30224609375
2023-07-30T13:45:42.308262,0.9235405325889587,0.22004343569278717,0.11715982109308243,-0.29142287373542786,-0.54248046875,0.83154296875,-0.283203125
2023-07-30T13:45:42.308262,0.9246653914451599,0.2148708552122116,0.11388666182756424,-0.29300907254219055,-0.54248046875,0.83154296875,-0.283203125
2023-07-30T13:45:42.308262,0.9246653914451599,0.2148708552122116,0.11388666182756424,-0.29300907254219055,-0.5537109375,0.80078125,-0.2568359375
2023-07-30T13:45:42.308262,0.9255593419075012,0.21105198562145233,0.11154545843601227,-0.293861448764801,-0.5537109375,0.80078125,-0.2568359375
2023-07-30T13:45:42.323883,0.9255593419075012,0.21105198562145233,0.11154545843601227,-0.293861448764801,-0.5068359375,0.7783203125,-0.24365234375
2023-07-30T13:45:42.323883,0.9261350631713867,0.2082357555627823,0.11008556187152863,-0.29460641741752625,-0.5068359375,0.7783203125,-0.24365234375
2023-07-30T13:45:42.339505,0.9261350631713867,0.2082357555627823,0.11008556187152863,-0.29460641741752625,-0.48388671875,0.77880859375,-0.24169921875
2023-07-30T13:45:42.339505,0.9264874458312988,0.2062029093503952,0.10913017392158508,-0.295282781124115,-0.48388671875,0.77880859375,-0.24169921875
2023-07-30T13:45:42.339505,0.9264874458312988,0.2062029093503952,0.10913017392158508,-0.295282781124115,-0.49072265625,0.8056640625,-0.25830078125
2023-07-30T13:45:42.339505,0.926652729511261,0.20501191914081573,0.10858611762523651,-0.29579344391822815,-0.49072265625,0.8056640625,-0.25830078125
2023-07-30T13:45:42.355127,0.926652729511261,0.20501191914081573,0.10858611762523651,-0.29579344391822815,-0.498046875,0.81201171875,-0.26171875
2023-07-30T13:45:42.355127,0.9267731308937073,0.20439991354942322,0.10846880078315735,-0.2958826720714569,-0.498046875,0.81201171875,-0.26171875
2023-07-30T13:45:42.370747,0.9267731308937073,0.20439991354942322,0.10846880078315735,-0.2958826720714569,-0.50439453125,0.7861328125,-0.23583984375
2023-07-30T13:45:42.370747,0.9268491268157959,0.20384712517261505,0.10829128324985504,-0.2960915267467499,-0.50439453125,0.7861328125,-0.23583984375
2023-07-30T13:45:42.376254,0.9268491268157959,0.20384712517261505,0.10829128324985504,-0.2960915267467499,-0.50390625,0.765625,-0.22314453125
2023-07-30T13:45:42.376254,0.9271097779273987,0.20242038369178772,0.10747579485177994,-0.2965509295463562,-0.50390625,0.765625,-0.22314453125
2023-07-30T13:45:42.386758,0.9271097779273987,0.20242038369178772,0.10747579485177994,-0.2965509295463562,-0.4931640625,0.76904296875,-0.23095703125
2023-07-30T13:45:42.386758,0.9275507926940918,0.20001298189163208,0.10578262805938721,-0.29741281270980835,-0.4931640625,0.76904296875,-0.23095703125
2023-07-30T13:45:42.402384,0.9275507926940918,0.20001298189163208,0.10578262805938721,-0.29741281270980835,-0.47412109375,0.78662109375,-0.24658203125
2023-07-30T13:45:42.402384,0.9281092882156372,0.19690421223640442,0.10363738238811493,-0.29849812388420105,-0.47412109375,0.78662109375,-0.24658203125
2023-07-30T13:45:42.402384,0.9281092882156372,0.19690421223640442,0.10363738238811493,-0.29849812388420105,-0.48046875,0.79833984375,-0.2333984375
2023-07-30T13:45:42.402384,0.9285923838615417,0.19389677047729492,0.10199598222970963,-0.29952797293663025,-0.48046875,0.79833984375,-0.2333984375
2023-07-30T13:45:42.418005,0.9285923838615417,0.19389677047729492,0.10199598222970963,-0.29952797293663025,-0.4912109375,0.79345703125,-0.197265625
2023-07-30T13:45:42.418005,0.9289360642433167,0.19130562245845795,0.10087451338768005,-0.3005066514015198,-0.4912109375,0.79345703125,-0.197265625
2023-07-30T13:45:42.433624,0.9289360642433167,0.19130562245845795,0.10087451338768005,-0.3005066514015198,-0.50390625,0.798828125,-0.18994140625
2023-07-30T13:45:42.433624,0.9292106628417969,0.18920345604419708,0.10032729059457779,-0.301171213388443,-0.50390625,0.798828125,-0.18994140625
2023-07-30T13:45:42.433624,0.9292106628417969,0.18920345604419708,0.10032729059457779,-0.301171213388443,-0.52587890625,0.8056640625,-0.20751953125
2023-07-30T13:45:42.433624,0.9294680953025818,0.18770916759967804,0.10052594542503357,-0.30124545097351074,-0.52587890625,0.8056640625,-0.20751953125
2023-07-30T13:45:42.449247,0.9294680953025818,0.18770916759967804,0.10052594542503357,-0.30124545097351074,-0.53515625,0.80126953125,-0.23193359375
2023-07-30T13:45:42.449247,0.9296053647994995,0.1867767572402954,0.10127142816781998,-0.3011518120765686,-0.53515625,0.80126953125,-0.23193359375
2023-07-30T13:45:42.464867,0.9296053647994995,0.1867767572402954,0.10127142816781998,-0.3011518120765686,-0.521484375,0.80615234375,-0.23779296875
2023-07-30T13:45:42.464867,0.929558277130127,0.1866799294948578,0.10253638029098511,-0.30092915892601013,-0.521484375,0.80615234375,-0.23779296875
2023-07-30T13:45:42.464867,0.929558277130127,0.1866799294948578,0.10253638029098511,-0.30092915892601013,-0.501953125,0.83056640625,-0.2607421875
2023-07-30T13:45:42.464867,0.929405927658081,0.18686413764953613,0.10481958091259003,-0.30049827694892883,-0.501953125,0.83056640625,-0.2607421875
2023-07-30T13:45:42.476374,0.929405927658081,0.18686413764953613,0.10481958091259003,-0.30049827694892883,-0.46533203125,0.8330078125,-0.27392578125
2023-07-30T13:45:42.480879,0.9291610717773438,0.18733499944210052,0.10801652818918228,-0.2998294532299042,-0.46533203125,0.8330078125,-0.27392578125
2023-07-30T13:45:42.480879,0.9291610717773438,0.18733499944210052,0.10801652818918228,-0.2998294532299042,-0.44677734375,0.806640625,-0.26708984375
2023-07-30T13:45:42.480879,0.9288961887359619,0.18755418062210083,0.11113683134317398,-0.2993725836277008,-0.44677734375,0.806640625,-0.26708984375
2023-07-30T13:45:42.496503,0.9288961887359619,0.18755418062210083,0.11113683134317398,-0.2993725836277008,-0.4677734375,0.79638671875,-0.25
2023-07-30T13:45:42.496503,0.9286407828330994,0.18702386319637299,0.11374828964471817,-0.2995155155658722,-0.4677734375,0.79638671875,-0.25
2023-07-30T13:45:42.496503,0.9286407828330994,0.18702386319637299,0.11374828964471817,-0.2995155155658722,-0.50048828125,0.8056640625,-0.2314453125
2023-07-30T13:45:42.496503,0.9285805821418762,0.18544408679008484,0.11510947346687317,-0.300164133310318,-0.50048828125,0.8056640625,-0.2314453125
2023-07-30T13:45:42.512124,0.9285805821418762,0.18544408679008484,0.11510947346687317,-0.300164133310318,-0.52197265625,0.79638671875,-0.21337890625
2023-07-30T13:45:42.512124,0.9287512302398682,0.1833769828081131,0.11542209982872009,-0.30078521370887756,-0.52197265625,0.79638671875,-0.21337890625
2023-07-30T13:45:42.527745,0.9287512302398682,0.1833769828081131,0.11542209982872009,-0.30078521370887756,-0.5185546875,0.7919921875,-0.2265625
2023-07-30T13:45:42.527745,0.9290730953216553,0.18061867356300354,0.11490121483802795,-0.3016583323478699,-0.5185546875,0.7919921875,-0.2265625
2023-07-30T13:45:42.527745,0.9290730953216553,0.18061867356300354,0.11490121483802795,-0.3016583323478699,-0.51611328125,0.80615234375,-0.228515625
2023-07-30T13:45:42.527745,0.9294308423995972,0.1776726096868515,0.11425238847732544,-0.3025510311126709,-0.51611328125,0.80615234375,-0.228515625
2023-07-30T13:45:42.543367,0.9294308423995972,0.1776726096868515,0.11425238847732544,-0.3025510311126709,-0.5205078125,0.8212890625,-0.2275390625
2023-07-30T13:45:42.543367,0.9297623038291931,0.17513258755207062,0.11415086686611176,-0.3030513823032379,-0.5205078125,0.8212890625,-0.2275390625
2023-07-30T13:45:42.558988,0.9297623038291931,0.17513258755207062,0.11415086686611176,-0.3030513823032379,-0.51171875,0.82763671875,-0.232421875
2023-07-30T13:45:42.558988,0.9299457669258118,0.1734609603881836,0.11493029445409775,-0.30315545201301575,-0.51171875,0.82763671875,-0.232421875
2023-07-30T13:45:42.558988,0.9299457669258118,0.1734609603881836,0.11493029445409775,-0.30315545201301575,-0.505859375,0.81982421875,-0.23095703125
2023-07-30T13:45:42.558988,0.9299219846725464,0.17261163890361786,0.11679413914680481,-0.30300071835517883,-0.505859375,0.81982421875,-0.23095703125
2023-07-30T13:45:42.576617,0.9299219846725464,0.17261163890361786,0.11679413914680481,-0.30300071835517883,-0.49755859375,0.81640625,-0.21923828125
2023-07-30T13:45:42.576617,0.9296754002571106,0.1721705049276352,0.11953065544366837,-0.3029412627220154,-0.49755859375,0.81640625,-0.21923828125
2023-07-30T13:45:42.590625,0.9296754002571106,0.1721705049276352,0.11953065544366837,-0.3029412627220154,-0.4873046875,0.81494140625,-0.20263671875
2023-07-30T13:45:42.590625,0.9293482303619385,0.17166556417942047,0.12238704413175583,-0.3030909299850464,-0.4873046875,0.81494140625,-0.20263671875
2023-07-30T13:45:42.600633,0.9293482303619385,0.17166556417942047,0.12238704413175583,-0.3030909299850464,-0.49462890625,0.802734375,-0.185546875
2023-07-30T13:45:42.600633,0.9290741086006165,0.1706826239824295,0.12509790062904358,-0.30337947607040405,-0.49462890625,0.802734375,-0.185546875
2023-07-30T13:45:42.606641,0.9290741086006165,0.1706826239824295,0.12509790062904358,-0.30337947607040405,-0.51220703125,0.8056640625,-0.1953125
2023-07-30T13:45:42.606641,0.9288502335548401,0.16923071444034576,0.12742242217063904,-0.3039107024669647,-0.51220703125,0.8056640625,-0.1953125
2023-07-30T13:45:42.622266,0.9288502335548401,0.16923071444034576,0.12742242217063904,-0.3039107024669647,-0.494140625,0.814453125,-0.21923828125
2023-07-30T13:45:42.622266,0.9287499785423279,0.16719871759414673,0.1292949914932251,-0.30455002188682556,-0.494140625,0.814453125,-0.21923828125
2023-07-30T13:45:42.622266,0.9287499785423279,0.16719871759414673,0.1292949914932251,-0.30455002188682556,-0.47705078125,0.8115234375,-0.2119140625
2023-07-30T13:45:42.622266,0.9287332892417908,0.16462846100330353,0.13105988502502441,-0.30524614453315735,-0.47705078125,0.8115234375,-0.2119140625
2023-07-30T13:45:42.637887,0.9287332892417908,0.16462846100330353,0.13105988502502441,-0.30524614453315735,-0.4921875,0.79345703125,-0.193359375
2023-07-30T13:45:42.637887,0.9287290573120117,0.161631777882576,0.13287143409252167,-0.3060763478279114,-0.4921875,0.79345703125,-0.193359375
2023-07-30T13:45:42.637887,0.9287290573120117,0.161631777882576,0.13287143409252167,-0.3060763478279114,-0.52197265625,0.7978515625,-0.1884765625
2023-07-30T13:45:42.653508,0.9285820722579956,0.15859633684158325,0.1351000815629959,-0.3071327209472656,-0.52197265625,0.7978515625,-0.1884765625
2023-07-30T13:45:42.653508,0.9285820722579956,0.15859633684158325,0.1351000815629959,-0.3071327209472656,-0.52880859375,0.796875,-0.189453125
2023-07-30T13:45:42.653508,0.928391695022583,0.1557411402463913,0.1374555081129074,-0.3081226646900177,-0.52880859375,0.796875,-0.189453125
2023-07-30T13:45:42.653508,0.928391695022583,0.1557411402463913,0.1374555081129074,-0.3081226646900177,-0.5263671875,0.77490234375,-0.18603515625
2023-07-30T13:45:42.669131,0.9281405210494995,0.15343402326107025,0.13945406675338745,-0.3091370463371277,-0.5263671875,0.77490234375,-0.18603515625
2023-07-30T13:45:42.676639,0.9281405210494995,0.15343402326107025,0.13945406675338745,-0.3091370463371277,-0.53955078125,0.75341796875,-0.16650390625
2023-07-30T13:45:42.676639,0.9278286099433899,0.15151239931583405,0.14037524163722992,-0.31060078740119934,-0.53955078125,0.75341796875,-0.16650390625
2023-07-30T13:45:42.685143,0.9278286099433899,0.15151239931583405,0.14037524163722992,-0.31060078740119934,-0.53662109375,0.77001953125,-0.16064453125
2023-07-30T13:45:42.685143,0.9276157021522522,0.14908981323242188,0.1397576481103897,-0.31268057227134705,-0.53662109375,0.77001953125,-0.16064453125
2023-07-30T13:45:42.685143,0.9276157021522522,0.14908981323242188,0.1397576481103897,-0.31268057227134705,-0.52978515625,0.7958984375,-0.169921875
2023-07-30T13:45:42.685143,0.9276880025863647,0.1457362323999405,0.13750959932804108,-0.31503504514694214,-0.52978515625,0.7958984375,-0.169921875
2023-07-30T13:45:42.700769,0.9276880025863647,0.1457362323999405,0.13750959932804108,-0.31503504514694214,-0.54736328125,0.814453125,-0.1484375
2023-07-30T13:45:42.700769,0.9276320338249207,0.14291858673095703,0.13541243970394135,-0.3173903226852417,-0.54736328125,0.814453125,-0.1484375
2023-07-30T13:45:42.716389,0.9276320338249207,0.14291858673095703,0.13541243970394135,-0.3173903226852417,-0.57470703125,0.80615234375,-0.1337890625
2023-07-30T13:45:42.716389,0.9274599552154541,0.14158281683921814,0.13353677093982697,-0.3192808926105499,-0.57470703125,0.80615234375,-0.1337890625
2023-07-30T13:45:42.716389,0.9274599552154541,0.14158281683921814,0.13353677093982697,-0.3192808926105499,-0.57861328125,0.8095703125,-0.154296875
2023-07-30T13:45:42.716389,0.9272989630699158,0.14049842953681946,0.13153010606765747,-0.3210555613040924,-0.57861328125,0.8095703125,-0.154296875
2023-07-30T13:45:42.732011,0.9272989630699158,0.14049842953681946,0.13153010606765747,-0.3210555613040924,-0.552734375,0.81201171875,-0.15771484375
2023-07-30T13:45:42.732011,0.9273207783699036,0.1393580585718155,0.12884868681430817,-0.3225734531879425,-0.552734375,0.81201171875,-0.15771484375
2023-07-30T13:45:42.747631,0.9273207783699036,0.1393580585718155,0.12884868681430817,-0.3225734531879425,-0.53662109375,0.787109375,-0.13525390625
2023-07-30T13:45:42.747631,0.9273921847343445,0.13838395476341248,0.12617701292037964,-0.3238408863544464,-0.53662109375,0.787109375,-0.13525390625
2023-07-30T13:45:42.747631,0.9273921847343445,0.13838395476341248,0.12617701292037964,-0.3238408863544464,-0.5380859375,0.77880859375,-0.1435546875
2023-07-30T13:45:42.747631,0.9277294874191284,0.13643145561218262,0.12300769984722137,-0.3249208331108093,-0.5380859375,0.77880859375,-0.1435546875
2023-07-30T13:45:42.763252,0.9277294874191284,0.13643145561218262,0.12300769984722137,-0.3249208331108093,-0.51953125,0.7666015625,-0.16796875
2023-07-30T13:45:42.763252,0.9278413653373718,0.13497251272201538,0.12069086730480194,-0.32607749104499817,-0.51953125,0.7666015625,-0.16796875
2023-07-30T13:45:42.779264,0.9278413653373718,0.13497251272201538,0.12069086730480194,-0.32607749104499817,-0.529296875,0.78173828125,-0.18212890625
2023-07-30T13:45:42.779264,0.9276002049446106,0.13468866050243378,0.11867973208427429,-0.3276156187057495,-0.529296875,0.78173828125,-0.18212890625
2023-07-30T13:45:42.779264,0.9276002049446106,0.13468866050243378,0.11867973208427429,-0.3276156187057495,-0.58642578125,0.79150390625,-0.13232421875
2023-07-30T13:45:42.779264,0.9272897839546204,0.13461260497570038,0.11752670258283615,-0.32893842458724976,-0.58642578125,0.79150390625,-0.13232421875
2023-07-30T13:45:42.794888,0.9272897839546204,0.13461260497570038,0.11752670258283615,-0.32893842458724976,-0.61767578125,0.76953125,-0.08544921875
2023-07-30T13:45:42.794888,0.926978349685669,0.1351492553949356,0.11746238172054291,-0.3296183943748474,-0.61767578125,0.76953125,-0.08544921875
