Timestamp,Index,Frame ID,w,x,y,z,ax,ay,az,x_0,y_0,z_0,x_1,y_1,z_1,x_2,y_2,z_2,x_3,y_3,z_3,x_4,y_4,z_4,x_5,y_5,z_5,x_6,y_6,z_6,x_7,y_7,z_7,x_8,y_8,z_8,x_9,y_9,z_9,x_10,y_10,z_10,x_11,y_11,z_11,x_12,y_12,z_12,x_13,y_13,z_13,x_14,y_14,z_14,x_15,y_15,z_15,x_16,y_16,z_16,x_17,y_17,z_17,x_18,y_18,z_18,x_19,y_19,z_19,x_20,y_20,z_20
2023-08-01 17:18:22.111032,0,0,0.9999765753746032,-0.0022063485812395,-0.0064020836725831,0.0010073521407321,-0.2744140625,0.8603515625,0.39892578125,0.5900155901908875,0.8977148532867432,-2.2849891934129118e-07,0.5614159107208252,0.8501572608947754,-0.018771206960082054,0.5657020807266235,0.7710580825805664,-0.025226673111319542,0.5889578461647034,0.7114244699478149,-0.033626724034547806,0.5974783301353455,0.6589294075965881,-0.04109625518321991,0.6258290410041809,0.7175053358078003,0.005709701217710972,0.6361038684844971,0.6481493711471558,-0.014138145372271538,0.6298196315765381,0.6131780743598938,-0.033689700067043304,0.6187795996665955,0.5888233780860901,-0.04715222120285034,0.6587122678756714,0.7380632162094116,0.0008818612550385296,0.666976809501648,0.6605017781257629,-0.02216709591448307,0.6463398337364197,0.6291279196739197,-0.0451192669570446,0.6258465051651001,0.6086112856864929,-0.05956614390015602,0.6855447292327881,0.7736719846725464,-0.008452720940113068,0.7083110809326172,0.6983151435852051,-0.04047761857509613,0.6685630679130554,0.7139298319816589,-0.05393313989043236,0.6349105834960938,0.7423927783966064,-0.05581844970583916,0.7081539034843445,0.8226144909858704,-0.019204657524824142,0.7187504172325134,0.7625300884246826,-0.048200637102127075,0.6868332028388977,0.757811963558197,-0.05764821171760559,0.6566259264945984,0.7734308242797852,-0.05895709991455078
2023-08-01 17:18:22.206419,1,1,0.99997478723526,-0.0022096063476055,-0.0065847346559166,0.0015175123699009,-0.2607421875,0.865234375,0.3994140625,0.5810269713401794,0.9488489031791687,-1.7015173625622992e-07,0.546941876411438,0.8979823589324951,-0.014865534380078316,0.5599170923233032,0.7906776070594788,-0.016145681962370872,0.5888264775276184,0.7190266251564026,-0.020311400294303894,0.6001102924346924,0.6575976610183716,-0.023871343582868576,0.6160414218902588,0.7430447340011597,0.015972765162587166,0.6308889985084534,0.6724931597709656,0.0022499726619571447,0.6292811632156372,0.6288147568702698,-0.013232250697910786,0.6210641860961914,0.5935292840003967,-0.025280216708779335,0.6497070789337158,0.7597671747207642,0.010499486699700356,0.6623499989509583,0.6769724488258362,-0.006800931878387928,0.6464813351631165,0.6325031518936157,-0.025965919718146324,0.6255261301994324,0.6005612015724182,-0.03846289590001106,0.6778874397277832,0.7923158407211304,0.0003173516597598791,0.7039079666137695,0.7042255401611328,-0.02764047682285309,0.6686737537384033,0.7149285674095154,-0.041216906160116196,0.6344966888427734,0.7422215938568115,-0.04449594393372536,0.7039716243743896,0.8344119787216187,-0.011147532612085342,0.7119574546813965,0.7639394998550415,-0.03960765525698662,0.6797017455101013,0.7573259472846985,-0.05055634677410126,0.6478861570358276,0.7757213711738586,-0.053743381053209305
2023-08-01 17:18:22.288554,2,2,0.9999743700027466,-0.0020298575982451,-0.0067327469587326,0.0013820764143019,-0.28955078125,0.86669921875,0.40087890625,0.5752000212669373,0.960057258605957,-1.28852093439491e-07,0.5462707281112671,0.8901897668838501,-0.014148910529911518,0.5610194802284241,0.7884947657585144,-0.017555981874465942,0.5892049670219421,0.7211179137229919,-0.024728065356612206,0.6009640693664551,0.6588243842124939,-0.03143461048603058,0.6197059154510498,0.7400985360145569,0.019259246066212654,0.632641077041626,0.6707378625869751,0.0023781834170222282,0.6304154396057129,0.6287779808044434,-0.01637406274676323,0.6219242215156555,0.5962066054344177,-0.029878493398427963,0.6533817052841187,0.759077250957489,0.01206809189170599,0.6664096117019653,0.6768815517425537,-0.009032403118908405,0.6466814875602722,0.6370438933372498,-0.03043786995112896,0.6236494183540344,0.6095466017723083,-0.04331878945231438,0.6809942126274109,0.7925397753715515,-0.00022484970395453274,0.7051110863685608,0.7054285407066345,-0.030590083450078964,0.6676501035690308,0.7146044373512268,-0.044114820659160614,0.6323925256729126,0.7399461269378662,-0.046324484050273895,0.7045679688453674,0.8354766368865967,-0.013829514384269714,0.7106902599334717,0.7643670439720154,-0.041681744158267975,0.678255558013916,0.761145293712616,-0.050338100641965866,0.6481384038925171,0.7807023525238037,-0.05128169804811478
2023-08-01 17:18:22.362937,3,3,0.9999719858169556,-0.0020303141791373,-0.0070431022904813,0.001514294417575,-0.28955078125,0.86865234375,0.3955078125,0.5704839825630188,0.9659101366996765,-1.5214907023164415e-07,0.5449756979942322,0.8891505599021912,-0.014229262247681618,0.5596581101417542,0.7890412211418152,-0.018010005354881287,0.5873003005981445,0.7232991456985474,-0.025617051869630814,0.604128360748291,0.6626471281051636,-0.03242968022823334,0.6199972629547119,0.7381281852722168,0.020876340568065643,0.6341931819915771,0.669272243976593,0.003977655433118343,0.6333155632019043,0.629361629486084,-0.015298563987016678,0.6269859075546265,0.596284806728363,-0.029446782544255257,0.6534446477890015,0.7590579986572266,0.01363597996532917,0.667186439037323,0.677990198135376,-0.007790809962898493,0.6492809653282166,0.6411060094833374,-0.03004475310444832,0.6283860206604004,0.6158631443977356,-0.04382956400513649,0.6812890768051147,0.7936758995056152,0.0011633734684437513,0.7053728103637695,0.7071676254272461,-0.029639462009072304,0.668748676776886,0.7131941318511963,-0.044306498020887375,0.6336157917976379,0.7362980246543884,-0.04759328067302704,0.7063126564025879,0.8383228778839111,-0.012610545381903648,0.7118123769760132,0.7658472657203674,-0.04120810702443123,0.6791157126426697,0.7615062594413757,-0.05065273120999336,0.6480909585952759,0.7803047895431519,-0.05224691703915596
2023-08-01 17:18:22.431650,4,4,0.9999707341194152,-0.0019006232032552,-0.0071857422590255,0.0018098545260727,-0.275390625,0.87451171875,0.3935546875,0.5727680325508118,0.9679530262947083,-1.5942873687890824e-07,0.5475981831550598,0.88711017370224,-0.013922399841248989,0.5604934096336365,0.7891060709953308,-0.018044406548142433,0.5863013863563538,0.7247598171234131,-0.026489214971661568,0.6042513251304626,0.665763258934021,-0.03406687080860138,0.6203674674034119,0.7369577884674072,0.0232643261551857,0.6344468593597412,0.6673378944396973,0.004857650026679039,0.6327010989189148,0.6280232667922974,-0.01572955586016178,0.6248489022254944,0.5970944166183472,-0.03011190891265869,0.6533222198486328,0.7584831714630127,0.015535905957221985,0.6682697534561157,0.6769489049911499,-0.007662463467568159,0.6493275761604309,0.6404009461402893,-0.031245173886418343,0.6264075040817261,0.6171446442604065,-0.04514303058385849,0.6810862421989441,0.7930347919464111,0.0023490635212510824,0.7055802345275879,0.7068668007850647,-0.02980245091021061,0.6685947179794312,0.7125493884086609,-0.04523138329386711,0.6329654455184937,0.7362993359565735,-0.04833808168768883,0.7061537504196167,0.8368353843688965,-0.012119763530790806,0.7110750079154968,0.7635971903800964,-0.04104204848408699,0.6774508357048035,0.7599711418151855,-0.05019020289182663,0.6455680727958679,0.780136227607727,-0.051194928586483
2023-08-01 17:18:22.492435,5,5,0.9999687671661376,-0.0017572123324498,-0.0074815088883042,0.0018114480189979,-0.2724609375,0.88232421875,0.3974609375,0.5700592398643494,0.9686222672462463,-1.5267693243004032e-07,0.5461382865905762,0.8885429501533508,-0.014390618540346622,0.5601180791854858,0.7897301316261292,-0.01853836141526699,0.5862945914268494,0.7238636612892151,-0.026894070208072662,0.6024417281150818,0.6629859209060669,-0.0343867652118206,0.6195292472839355,0.7363138198852539,0.0228298157453537,0.6338252425193787,0.6663099527359009,0.004665704444050789,0.6319435834884644,0.6273807287216187,-0.015781238675117493,0.624241828918457,0.5963948965072632,-0.03025168739259243,0.6526007056236267,0.7570865154266357,0.015365136787295341,0.6666879653930664,0.6742480993270874,-0.007109663914889097,0.6490256786346436,0.63844895362854,-0.030360594391822815,0.6276121139526367,0.6156886219978333,-0.04450872540473938,0.6804212331771851,0.7919839024543762,0.0023538616951555014,0.7046823501586914,0.7042009830474854,-0.029616331681609154,0.6681440472602844,0.7115212082862854,-0.04502240940928459,0.6326388716697693,0.7368801832199097,-0.04835124313831329,0.7056830525398254,0.8371754884719849,-0.011992748826742172,0.7120282649993896,0.7635657787322998,-0.04110846295952797,0.679161548614502,0.7607576847076416,-0.05065004900097847,0.6473299264907837,0.7816722989082336,-0.052124299108982086
2023-08-01 17:18:22.554732,6,6,0.9999687671661376,-0.0017572123324498,-0.0074815088883042,0.0018114480189979,-0.27685546875,0.88427734375,0.38720703125,0.5720519423484802,0.9697743654251099,-1.4863422848065966e-07,0.5473672747612,0.8884274363517761,-0.013927964493632317,0.5604159832000732,0.7890163064002991,-0.017762409523129463,0.5849667191505432,0.7238723039627075,-0.0257922001183033,0.6029725670814514,0.6641214489936829,-0.03288819640874863,0.6191999316215515,0.73445063829422,0.02312963455915451,0.634766697883606,0.6648458242416382,0.005053084343671799,0.6333869695663452,0.6265256404876709,-0.01532742753624916,0.6256980299949646,0.5955968499183655,-0.02961357869207859,0.6520061492919922,0.7556001543998718,0.015587186440825462,0.668053150177002,0.6727491021156311,-0.006848352961242199,0.6503629088401794,0.6377977132797241,-0.029932482168078423,0.6285102963447571,0.6160504221916199,-0.0437479242682457,0.6798802614212036,0.7903438210487366,0.0026079006493091583,0.7056741118431091,0.703088641166687,-0.028785767033696175,0.6699365973472595,0.7101757526397705,-0.04387613758444786,0.635157585144043,0.7347120046615601,-0.0470820851624012,0.705498456954956,0.8353066444396973,-0.011678418144583702,0.7115768194198608,0.7621921300888062,-0.039880864322185516,0.6787194013595581,0.7594183683395386,-0.0487532764673233,0.647479236125946,0.7796527147293091,-0.04983929172158241
2023-08-01 17:18:22.617272,7,7,0.9999703764915466,-0.0017593544907867,-0.0072168661281466,0.002032867167145,-0.30029296875,0.90283203125,0.390625,0.56397545337677,0.9623785018920898,-1.3314887326032476e-07,0.5404151678085327,0.8769961595535278,-0.012737689539790154,0.5533907413482666,0.7809741497039795,-0.01584297977387905,0.579781711101532,0.7162045836448669,-0.02370246686041355,0.5973454713821411,0.6548396348953247,-0.030782613903284073,0.6124621629714966,0.7261285781860352,0.024223696440458298,0.6276254653930664,0.6580328941345215,0.006850004196166992,0.6268512606620789,0.6177698373794556,-0.012974091805517673,0.620672345161438,0.5851188898086548,-0.027064239606261253,0.6449729800224304,0.7453423738479614,0.015856316313147545,0.6601459980010986,0.6625495553016663,-0.006128418259322643,0.6424672603607178,0.626133918762207,-0.028734633699059486,0.6213470697402954,0.6047612428665161,-0.042236506938934326,0.6728183627128601,0.7792786359786987,0.0020795403979718685,0.6985174417495728,0.693419337272644,-0.029095908626914024,0.6620792746543884,0.7018834352493286,-0.04379163682460785,0.6268872022628784,0.7295660972595215,-0.046381738036870956,0.6983959674835205,0.8241409063339233,-0.0130558917298913,0.7072800397872925,0.7502936124801636,-0.04055143520236015,0.6747717261314392,0.7467465996742249,-0.048849865794181824,0.6424283981323242,0.7681921720504761,-0.04934011399745941
2023-08-01 17:18:22.671590,8,8,0.9999709129333496,-0.0017015704652294,-0.0071588880382478,0.002033183351159,-0.3017578125,0.93017578125,0.3955078125,0.561510443687439,0.9615828990936279,-1.5094012439931248e-07,0.5356597900390625,0.8756197094917297,-0.011071800254285336,0.5492401719093323,0.7756388187408447,-0.01243628654628992,0.5766730904579163,0.7097790241241455,-0.01863749325275421,0.5927313566207886,0.6494381427764893,-0.024182608351111412,0.6078385710716248,0.7203003764152527,0.025674905627965927,0.6210859417915344,0.6520493626594543,0.009961563162505627,0.6201350092887878,0.611108124256134,-0.008785161189734936,0.6143798232078552,0.5763490200042725,-0.022584635764360428,0.6410691142082214,0.7389653325080872,0.0166886318475008,0.6556918025016785,0.6549801826477051,-0.004198199603706598,0.6372935771942139,0.6173079609870911,-0.026141254231333733,0.6156966686248779,0.5953484773635864,-0.03927329555153847,0.6692820191383362,0.7719616889953613,0.0025299733970314264,0.6944027543067932,0.6856554746627808,-0.027706054970622063,0.6571286916732788,0.6922116875648499,-0.04240138456225395,0.6215075254440308,0.7187618017196655,-0.04522043094038963,0.694607138633728,0.815761148929596,-0.012850581668317318,0.7026894092559814,0.7421119213104248,-0.03926254063844681,0.6700887680053711,0.7379846572875977,-0.04713232442736626,0.638444185256958,0.7592300772666931,-0.047566067427396774
2023-08-01 17:18:22.735207,9,9,0.999970316886902,-0.0021358306985348,-0.0067422133870422,0.0030294540338218,-0.32373046875,0.89453125,0.40234375,0.558250904083252,0.9611327648162842,-1.2854467001943704e-07,0.5318856835365295,0.8711890578269958,-0.010087124072015285,0.5440513491630554,0.7702242136001587,-0.010791719891130924,0.5702347755432129,0.702617883682251,-0.016856325790286064,0.5852510333061218,0.6393951177597046,-0.02203805185854435,0.6022371649742126,0.7105451822280884,0.03089256025850773,0.6144754886627197,0.6424458026885986,0.01603163778781891,0.6132082939147949,0.6014763116836548,-0.002942214719951153,0.6078508496284485,0.5663350820541382,-0.017154201865196228,0.6355729699134827,0.7292264103889465,0.02147734723985195,0.6481808423995972,0.645371675491333,0.0007857602904550731,0.6310373544692993,0.608316957950592,-0.02260354533791542,0.6115089654922485,0.5853098630905151,-0.03687088564038277,0.6643161177635193,0.7629655003547668,0.006706061773002148,0.6883026957511902,0.6775871515274048,-0.023840514943003654,0.6516432166099548,0.6857971549034119,-0.039768118411302567,0.6164939403533936,0.7130528688430786,-0.04315808042883873,0.6905910968780518,0.8077014088630676,-0.009222488850355148,0.6982229351997375,0.733398973941803,-0.03577980026602745,0.6655892133712769,0.7295167446136475,-0.04426520690321922,0.6338158249855042,0.7509118914604187,-0.04495518282055855
2023-08-01 17:18:22.796136,10,10,0.999868094921112,-0.0044343224726617,-0.0069876187480986,0.0139767182990908,-0.25,0.8154296875,0.40771484375,0.5466475486755371,0.9602632522583008,-1.5470212133550376e-07,0.5194458365440369,0.8752729296684265,-0.012615259736776352,0.5273442268371582,0.7709165811538696,-0.016136974096298218,0.5527424812316895,0.6999861001968384,-0.024927228689193726,0.5739465355873108,0.6344671845436096,-0.03266442194581032,0.5878608822822571,0.71061110496521,0.026861006394028664,0.599857747554779,0.6373074054718018,0.007382736075669527,0.5950639843940735,0.5958816409111023,-0.014292138628661633,0.5857927799224854,0.5639738440513611,-0.02947578765451908,0.6218001246452332,0.7264418005943298,0.01748734340071678,0.6318346261978149,0.6379028558731079,-0.0048106457106769085,0.6113276481628418,0.5974850654602051,-0.028323853388428688,0.5896923542022705,0.5724468231201172,-0.04328546300530434,0.6514383554458618,0.7584363222122192,0.0021646327804774046,0.6748778820037842,0.6671619415283203,-0.03085004910826683,0.6355435252189636,0.678414523601532,-0.046081043779850006,0.5989120006561279,0.7079013586044312,-0.04918818548321724,0.6788190603256226,0.8017081022262573,-0.014531117863953114,0.6825688481330872,0.7244345545768738,-0.04383847489953041,0.6480292677879333,0.724445104598999,-0.05246859788894653,0.6157684326171875,0.7481591105461121,-0.053207095712423325
2023-08-01 17:18:22.859194,11,11,0.999300181865692,-0.0285656619817018,-0.0232525635510683,0.0065225730650126,-0.24609375,0.83837890625,0.52099609375,0.5493345856666565,0.9625235795974731,-1.466855792386923e-07,0.5211426615715027,0.8755139708518982,-0.011897369287908077,0.5305258631706238,0.7734734416007996,-0.015279839746654034,0.5554124712944031,0.7048763036727905,-0.023864172399044037,0.5702564120292664,0.6394896507263184,-0.031412940472364426,0.5891306400299072,0.7064676880836487,0.027913859114050865,0.5983276963233948,0.6329809427261353,0.008177202194929123,0.5934960842132568,0.5937992334365845,-0.014452643692493439,0.5834504961967468,0.562696099281311,-0.03011014312505722,0.6237496137619019,0.7239334583282471,0.018225543200969696,0.6341188549995422,0.6358866691589355,-0.0044713434763252735,0.6158702969551086,0.5985811948776245,-0.028889240697026253,0.5951492786407471,0.5747840404510498,-0.04420037195086479,0.6533417701721191,0.7572816014289856,0.0026444862596690655,0.6743124127388,0.665859043598175,-0.03021787852048874,0.635772168636322,0.6760821342468262,-0.04650873690843582,0.5999809503555298,0.7036699056625366,-0.050357501953840256,0.679959774017334,0.8019580245018005,-0.014230518601834774,0.682050883769989,0.7259655594825745,-0.04295405000448227,0.6482977271080017,0.7241587042808533,-0.05217544734477997,0.6177341938018799,0.7444466352462769,-0.05355624482035637
2023-08-01 17:18:22.922374,12,12,0.9981820583343506,-0.042392048984766,-0.0426714606583118,-0.0038181338459253,-0.19091796875,0.8125,0.525390625,0.5472392439842224,0.9696075916290283,-2.144135322623697e-07,0.5176727771759033,0.8857749700546265,-0.01042953971773386,0.5272175073623657,0.7807575464248657,-0.012111689895391464,0.5538925528526306,0.7103819251060486,-0.01917707361280918,0.568823516368866,0.6472720503807068,-0.025744237005710602,0.5856614708900452,0.7220975756645203,0.026415815576910973,0.5919639468193054,0.6529003381729126,0.008219490759074688,0.585671603679657,0.6156866550445557,-0.013064151629805565,0.5780288577079773,0.5827192068099976,-0.028720231726765633,0.6200669407844543,0.7341492176055908,0.01608242839574814,0.6270500421524048,0.6425595283508301,-0.0034733633510768414,0.6076485514640808,0.5982303619384766,-0.02551594190299511,0.5889624357223511,0.5654448866844177,-0.04098758473992348,0.6503437757492065,0.7645178437232971,0.0002836889761965722,0.6718596816062927,0.6672612428665161,-0.03156290575861931,0.632231593132019,0.6817665100097656,-0.045477937906980515,0.5973694324493408,0.7127970457077026,-0.04863110929727554,0.6788627505302429,0.8078876733779907,-0.01673571765422821,0.680828332901001,0.730491042137146,-0.04566224664449692,0.6461855173110962,0.7315290570259094,-0.05359916761517525,0.6153831481933594,0.7557474970817566,-0.054576326161623
2023-08-01 17:18:22.982324,13,13,0.9966679215431212,-0.049347884953022,-0.0632470473647117,-0.0147480005398392,-0.24365234375,0.80615234375,0.60546875,0.5500364899635315,0.9774038195610046,-1.6909415023746988e-07,0.5211641788482666,0.8911962509155273,-0.01443580910563469,0.5293155908584595,0.7943792939186096,-0.019686296582221985,0.5523173809051514,0.7277675867080688,-0.029605159536004066,0.564357578754425,0.6624441146850586,-0.038511723279953,0.58530592918396,0.7257034182548523,0.02186550386250019,0.5917736887931824,0.653023898601532,0.0013875323347747326,0.5857527256011963,0.6130571961402893,-0.02097458206117153,0.5760284662246704,0.5773783922195435,-0.03719243034720421,0.6208945512771606,0.7414878010749817,0.012532643042504787,0.6276925802230835,0.6518000364303589,-0.01139763556420803,0.6067327857017517,0.6138807535171509,-0.03535940870642662,0.5854009389877319,0.5858398079872131,-0.05082070454955101,0.6517671942710876,0.7749617099761963,-0.0023783210199326277,0.6719184517860413,0.6807805299758911,-0.037662774324417114,0.6330288648605347,0.702121913433075,-0.05169656127691269,0.5994591116905212,0.737586259841919,-0.053759872913360596,0.6804912686347961,0.8219392895698547,-0.018800964578986168,0.6817323565483093,0.751718282699585,-0.05089336261153221,0.6480585932731628,0.754401683807373,-0.06004907935857773,0.6187329292297363,0.7778378129005432,-0.06103256717324257
2023-08-01 17:18:23.041858,14,14,0.995838463306427,-0.0495861284434795,-0.073536105453968,-0.0209593158215284,-0.27978515625,0.84521484375,0.568359375,0.5640464425086975,0.9875668287277222,-1.923034176343208e-07,0.5363341569900513,0.9000287652015686,-0.013999460265040398,0.5432471036911011,0.807676374912262,-0.020214833319187164,0.5666843056678772,0.7431567311286926,-0.03130008652806282,0.579371452331543,0.6863121390342712,-0.040939200669527054,0.6042040586471558,0.7425727248191833,0.02088247798383236,0.6142544150352478,0.6709111928939819,-0.001964831491932273,0.6052190065383911,0.6369603276252747,-0.02593606524169445,0.5902252197265625,0.6104385256767273,-0.04179931804537773,0.6381433606147766,0.7587969899177551,0.011821983382105827,0.6469235420227051,0.6731381416320801,-0.011808783747255802,0.624772310256958,0.6394056081771851,-0.03515118733048439,0.6016292572021484,0.6159597039222717,-0.04978662729263306,0.668623685836792,0.7927689552307129,-0.002798450877889991,0.6929909586906433,0.7037025094032288,-0.03711734712123871,0.6539866924285889,0.7297967076301575,-0.048423245549201965,0.6199491620063782,0.7680639624595642,-0.04824550449848175,0.6980023384094238,0.8417943120002747,-0.01894630491733551,0.7032811641693115,0.7763851284980774,-0.04858703538775444,0.6703562140464783,0.7812617421150208,-0.05438338592648506,0.6407976150512695,0.8054880499839783,-0.05266476050019264
2023-08-01 17:18:23.110649,15,15,0.994376003742218,-0.0447311773896217,-0.0915902704000473,-0.02875323779881,-0.2451171875,0.87158203125,0.55615234375,0.5768333077430725,0.990932047367096,-1.525935147128621e-07,0.5458162426948547,0.904427707195282,-0.011266333051025867,0.5526712536811829,0.8099448084831238,-0.015456853434443474,0.5796176791191101,0.7470476627349854,-0.02436312846839428,0.5952016115188599,0.6938953995704651,-0.03171326592564583,0.6112870573997498,0.7423222064971924,0.023336080834269524,0.6250506043434143,0.6739270687103271,0.0023443857207894325,0.6200830340385437,0.639930009841919,-0.02032577432692051,0.6051871180534363,0.6167148351669312,-0.034764330834150314,0.6465854644775391,0.7602888345718384,0.014196964912116528,0.6581372022628784,0.6771566867828369,-0.006919069681316614,0.6390649676322937,0.642996072769165,-0.028002917766571045,0.6159659028053284,0.6202906370162964,-0.040763963013887405,0.6776711940765381,0.7962127923965454,-0.0002658700686879456,0.7020035982131958,0.7093296051025391,-0.03117326647043228,0.6680641770362854,0.734825611114502,-0.04115131497383118,0.6365736126899719,0.7741565108299255,-0.04047650471329689,0.7075973749160767,0.8464423418045044,-0.01610676385462284,0.7133514285087585,0.781616747379303,-0.04287279024720192,0.6822076439857483,0.784245491027832,-0.04767304286360741,0.6535896062850952,0.8069267272949219,-0.045544810593128204
2023-08-01 17:18:23.168915,16,16,0.9919735193252563,-0.0317446812987327,-0.1169022321701049,-0.0362586826086044,-0.3037109375,0.861328125,0.52099609375,0.6255460977554321,0.9801070690155029,1.1905001429113327e-07,0.5985944271087646,0.8955521583557129,-0.017340950667858124,0.6084666848182678,0.8010307550430298,-0.024876773357391357,0.6406155228614807,0.7339915037155151,-0.03801549971103668,0.6710655093193054,0.6856091618537903,-0.048633381724357605,0.6548431515693665,0.7252515554428101,0.022399988025426865,0.6667529940605164,0.6482940912246704,-0.003636174602434039,0.6753252148628235,0.6124923229217529,-0.027734698727726936,0.6755250096321106,0.6110543012619019,-0.04105983301997185,0.6928733587265015,0.7420396208763123,0.015042654238641262,0.7133623957633972,0.6540104746818542,-0.012689919210970402,0.7057848572731018,0.6265305280685425,-0.035590849816799164,0.6920243501663208,0.6305308938026428,-0.045943621546030045,0.726355254650116,0.7774779200553894,0.0010111171286553144,0.7597411274909973,0.6968715190887451,-0.0322054885327816,0.731703519821167,0.7177483439445496,-0.041955869644880295,0.7018901705741882,0.7620775699615479,-0.03885945305228233,0.7573583722114563,0.8269516229629517,-0.015294570475816727,0.7751731872558594,0.7650882601737976,-0.0419892892241478,0.7510241270065308,0.7695974111557007,-0.04629936069250107,0.72324138879776,0.798887312412262,-0.042096663266420364
2023-08-01 17:18:23.233222,17,17,0.9897341132164,-0.0200370363891124,-0.1372795552015304,-0.0343399755656719,-0.265625,0.88623046875,0.484375,0.6369033455848694,0.977838933467865,1.0622974144780528e-07,0.6054337024688721,0.8928000330924988,-0.016217267140746117,0.615030825138092,0.7970538139343262,-0.025667691603302956,0.6496165990829468,0.7330458760261536,-0.04014723747968674,0.6869372129440308,0.6914199590682983,-0.052451241761446,0.6651425361633301,0.7201849818229675,0.017002256587147713,0.6774986386299133,0.6423867344856262,-0.009203140623867512,0.6880695223808289,0.6096460819244385,-0.03232113644480705,0.6908747553825378,0.6151465177536011,-0.0446312390267849,0.7032024264335632,0.7376481890678406,0.00879125576466322,0.7298142313957214,0.6484724283218384,-0.01718377321958542,0.7262033820152283,0.6218013167381287,-0.038221586495637894,0.7164076566696167,0.6297604441642761,-0.04797278344631195,0.7370734810829163,0.7719644904136658,-0.0054365843534469604,0.7764233946800232,0.6830856800079346,-0.03550694137811661,0.7537775039672852,0.6952753663063049,-0.04610906541347504,0.7276299595832825,0.7379576563835144,-0.04571620374917984,0.768506646156311,0.8197730183601379,-0.02165539562702179,0.7853468060493469,0.7552707195281982,-0.04631393402814865,0.7663779258728027,0.7583540678024292,-0.05125197768211365,0.7445060610771179,0.7874833941459656,-0.04880426451563835
2023-08-01 17:18:23.288973,18,18,0.9882096648216248,-0.0107217961922287,-0.1502590924501419,-0.0273623876273632,-0.26806640625,0.8828125,0.49560546875,0.6483471393585205,0.9708079099655151,4.658008734281793e-08,0.6156951189041138,0.8884747624397278,-0.012679776176810265,0.6275608539581299,0.7869147062301636,-0.01881890930235386,0.66282057762146,0.7228202223777771,-0.030030863359570503,0.6966356039047241,0.6805043816566467,-0.03929132595658302,0.6770294308662415,0.704239547252655,0.021144654601812363,0.6911965608596802,0.6263319253921509,-0.003073243424296379,0.7045602202415466,0.5956153273582458,-0.02661261335015297,0.70765221118927,0.6014668941497803,-0.03965328633785248,0.7157331109046936,0.7234534025192261,0.011446443386375904,0.7456459403038025,0.6352517604827881,-0.01671060174703598,0.7419666051864624,0.620213508605957,-0.04061572626233101,0.7272233366966248,0.6419446468353271,-0.05061563849449158,0.7492823600769043,0.7579930424690247,-0.0035932655446231365,0.7907794117927551,0.6717199087142944,-0.03207097202539444,0.7712944149971008,0.679072380065918,-0.0447646901011467,0.7449555993080139,0.7173638939857483,-0.04605163633823395,0.7794703245162964,0.8065974712371826,-0.02038407512009144,0.7980577945709229,0.7445557713508606,-0.04332507401704788,0.7801581025123596,0.7471106052398682,-0.048784468322992325,0.7588034272193909,0.7734657526016235,-0.04694562777876854
2023-08-01 17:18:23.351548,19,19,0.9870930910110474,-0.0012858676491305,-0.1591776758432388,-0.0175522807985544,-0.24951171875,0.87548828125,0.4267578125,0.6585820913314819,0.9657059907913208,1.5371429684662985e-09,0.6232252717018127,0.8841097354888916,-0.014246435835957527,0.6371669769287109,0.7760803699493408,-0.01948205567896366,0.6750587224960327,0.7091460227966309,-0.02879025600850582,0.7077938318252563,0.6616400480270386,-0.03590676188468933,0.6852999925613403,0.6892086863517761,0.021241320297122,0.6993803381919861,0.6088317036628723,-0.0003337608359288424,0.7145727276802063,0.5791678428649902,-0.02199774794280529,0.7208659648895264,0.5828737616539001,-0.034105535596609116,0.7250775694847107,0.7098563313484192,0.013072788715362549,0.7593141198158264,0.625792920589447,-0.01427258551120758,0.7554744482040405,0.6293491125106812,-0.036084067076444626,0.7407159805297852,0.6644137501716614,-0.04361783713102341,0.7591877579689026,0.743911623954773,-0.0004533570318017155,0.8014801740646362,0.6612380743026733,-0.025361763313412666,0.7854462265968323,0.6644893288612366,-0.03578689321875572,0.7627776861190796,0.6971184015274048,-0.03641609847545624,0.7888344526290894,0.7911583185195923,-0.016085879877209663,0.808942437171936,0.7283565402030945,-0.03406720608472824,0.7933840751647949,0.7292931079864502,-0.03643415868282318,0.7756474614143372,0.7532007694244385,-0.03317941725254059
2023-08-01 17:18:23.418737,20,20,0.9861685633659364,0.0077632088214159,-0.1655498743057251,-0.0021289703436195,-0.23388671875,0.85986328125,0.4189453125,0.6684945225715637,0.9564322233200073,-3.140246107591338e-08,0.6324308514595032,0.871673047542572,-0.014510360546410084,0.6481622457504272,0.7599573135375977,-0.017967229709029198,0.6880084872245789,0.6913213729858398,-0.025541085749864578,0.7190744876861572,0.6392495036125183,-0.03119920939207077,0.692050576210022,0.675273060798645,0.026350466534495354,0.7058675289154053,0.6007657647132874,0.008022274821996689,0.7185835838317871,0.5715186595916748,-0.012735804542899132,0.7239960432052612,0.5648783445358276,-0.025551268830895424,0.732138991355896,0.6960205435752869,0.018850132822990417,0.7640925645828247,0.6156660318374634,-0.0070648486725986,0.7611542344093323,0.6236619353294373,-0.030275879427790642,0.7483822703361511,0.6558187007904053,-0.03936544060707092,0.766593337059021,0.729424238204956,0.005851259920746088,0.8069040775299072,0.6489486694335938,-0.018653184175491333,0.7917283177375793,0.6542852520942688,-0.03130243718624115,0.7694005966186523,0.6865633130073547,-0.03358345851302147,0.7970907092094421,0.7744086980819702,-0.009251025505363941,0.8161677718162537,0.7099814414978027,-0.02642872929573059,0.8030505776405334,0.7094451189041138,-0.030078643932938576,0.7876839637756348,0.7313957810401917,-0.028238445520401
2023-08-01 17:18:23.484120,21,21,0.9861916899681092,0.0123180374503135,-0.1646350920200348,0.0130145903676748,-0.21533203125,0.84521484375,0.3955078125,0.6916359066963196,0.8883033990859985,2.658436812907894e-07,0.6606143712997437,0.7783967852592468,-0.008889683522284031,0.6672230362892151,0.6747782826423645,-0.007889913395047188,0.7018982172012329,0.6014930009841919,-0.011450357735157013,0.7317190766334534,0.5487236976623535,-0.013276948593556881,0.7059975266456604,0.6037942171096802,0.04152483493089676,0.7175012826919556,0.5347492694854736,0.033821165561676025,0.7287962436676025,0.4922153949737549,0.016271011903882027,0.73801589012146,0.46023643016815186,0.0021322674583643675,0.7443438768386841,0.6174432039260864,0.03513280302286148,0.769281268119812,0.5376529693603516,0.02223576232790947,0.7778817415237427,0.5139427185058594,-0.0019340212456882,0.7760753631591797,0.5168032646179199,-0.016773678362369537,0.777876615524292,0.644729733467102,0.023701069876551628,0.8089637756347656,0.5664029717445374,0.01081421971321106,0.8068084120750427,0.5482561588287354,-0.007183664012700319,0.7926233410835266,0.5648167133331299,-0.017345158383250237,0.8099994659423828,0.6844967603683472,0.010137507691979408,0.820532500743866,0.6235870718955994,-0.0003942809416912496,0.8131392002105713,0.5994351506233215,-0.00920918770134449,0.7991101145744324,0.6002525091171265,-0.013691767118871212
2023-08-01 17:18:23.540837,22,22,0.9864354133605956,0.0132233994081616,-0.1610795259475708,0.0286988262087106,-0.12939453125,0.8349609375,0.38623046875,0.691353440284729,0.8415809869766235,1.0699034191929968e-07,0.6584484577178955,0.7450670599937439,-0.010543865151703358,0.665795087814331,0.6439695954322815,-0.013277333229780197,0.6991128921508789,0.5743818283081055,-0.020671864971518517,0.7273364663124084,0.5207773447036743,-0.02676316350698471,0.7078720927238464,0.5722343325614929,0.029314054176211357,0.7201645970344543,0.49675893783569336,0.01287081278860569,0.7309848070144653,0.45641231536865234,-0.008831365033984184,0.7368602156639099,0.4364545941352844,-0.023753846064209938,0.7456873655319214,0.5874326825141907,0.021395890042185783,0.7698648571968079,0.5034820437431335,0.0006436525727622211,0.7735908627510071,0.4779043197631836,-0.025961287319660187,0.7648170590400696,0.48434919118881226,-0.04142902418971062,0.7783104181289673,0.6170395612716675,0.008313479833304882,0.8112403154373169,0.537431001663208,-0.012602390721440315,0.803405225276947,0.5192981362342834,-0.03385905921459198,0.780722439289093,0.5375529527664185,-0.04461377114057541,0.8088072538375854,0.6600295901298523,-0.006431356072425842,0.8223627805709839,0.5963970422744751,-0.02284287102520466,0.8099439144134521,0.5681247711181641,-0.034966062754392624,0.7872177958488464,0.5654216408729553,-0.04118723049759865
2023-08-01 17:18:23.600870,23,23,0.987122654914856,0.0107008088380098,-0.1537280678749084,0.0429185219109058,-0.091796875,0.84619140625,0.42138671875,0.675104022026062,0.7830188274383545,1.551817945255607e-07,0.6410120725631714,0.6851689219474792,-0.009436638094484806,0.6472114324569702,0.5817279815673828,-0.007889789529144764,0.6800820231437683,0.5068803429603577,-0.010988588444888592,0.706814169883728,0.45292484760284424,-0.012728042900562286,0.684775173664093,0.5192028284072876,0.03438711166381836,0.6938228607177734,0.4446975588798523,0.024964965879917145,0.6994377374649048,0.40213337540626526,0.009415165521204472,0.7054070830345154,0.3698330819606781,-0.0031528074759989977,0.7221211791038513,0.5289511680603027,0.027440592646598816,0.739138126373291,0.4453866481781006,0.013348877429962158,0.7420639991760254,0.4065477252006531,-0.00804894883185625,0.738085150718689,0.3936700224876404,-0.02225610427558422,0.7548050880432129,0.5544098615646362,0.015086456201970577,0.7826385498046875,0.4680291414260864,-0.004643149208277464,0.7714534997940063,0.44993531703948975,-0.023804442957043648,0.7495489120483398,0.46640312671661377,-0.03362341970205307,0.7870266437530518,0.5907465815544128,0.0011832989985123277,0.7952486276626587,0.5188935995101929,-0.01687248796224594,0.779810905456543,0.49224942922592163,-0.029096227139234543,0.7569507360458374,0.4915187358856201,-0.03547484055161476
2023-08-01 17:18:23.669664,24,24,0.988326370716095,0.0057963747531175,-0.1416158676147461,0.0558774285018444,-0.1123046875,0.8427734375,0.41650390625,0.6659347414970398,0.7672476172447205,8.848134314121125e-08,0.632872462272644,0.6682321429252625,-0.007147520314902067,0.6368467211723328,0.5706273913383484,-0.0053551881574094296,0.6649495959281921,0.49666017293930054,-0.00880659744143486,0.6840846538543701,0.43814989924430847,-0.010781705379486084,0.6725358366966248,0.5038585066795349,0.038434337824583054,0.6812723875045776,0.43308526277542114,0.02835785038769245,0.6861239075660706,0.3902702331542969,0.010593481361865997,0.690621018409729,0.3548528552055359,-0.00402082409709692,0.7071148157119751,0.5129634141921997,0.030585877597332,0.719691812992096,0.431111216545105,0.015920601785182953,0.7210839986801147,0.3872675895690918,-0.007986492477357388,0.715705394744873,0.36552029848098755,-0.02477707900106907,0.7386379241943359,0.536910891532898,0.017454832792282104,0.763992965221405,0.4547231197357178,-0.00269301887601614,0.7541743516921997,0.435197651386261,-0.023854445666074753,0.7317725419998169,0.4458448886871338,-0.035420794039964676,0.7719855308532715,0.5728733539581299,0.002837561536580324,0.78376305103302,0.5079898238182068,-0.015945889055728912,0.769344687461853,0.48239564895629883,-0.029980231076478958,0.7444299459457397,0.4800593852996826,-0.0379578061401844
2023-08-01 17:18:23.724550,25,25,0.9893007874488832,-0.0001670693891355,-0.130623459815979,0.0649726316332817,-0.0712890625,0.83837890625,0.4189453125,0.6480405330657959,0.7472996115684509,5.847149964210985e-08,0.6157520413398743,0.6508616805076599,-0.007284003775566816,0.6200422644615173,0.5534722805023193,-0.006649728398770094,0.6463266611099243,0.48061686754226685,-0.011783731169998646,0.6657756567001343,0.421175479888916,-0.01540758740156889,0.6576272249221802,0.48899394273757935,0.03683207556605339,0.6659818291664124,0.41377589106559753,0.023623881861567497,0.6658015251159668,0.3684038519859314,0.004730795044451952,0.6636996865272522,0.33678215742111206,-0.009207107126712799,0.6910215616226196,0.4975340664386749,0.028441591188311577,0.7049897909164429,0.4133749008178711,0.010103020817041397,0.7021545767784119,0.36832985281944275,-0.014710279181599617,0.6912589073181152,0.3481096625328064,-0.030467206612229347,0.7228357195854187,0.5201816558837891,0.014644959941506386,0.7482391595840454,0.4360256791114807,-0.007624818943440914,0.7321316599845886,0.4199742376804352,-0.0280008427798748,0.7047219276428223,0.4337785243988037,-0.037490155547857285,0.7572207450866699,0.5544292330741882,-0.0006414150120690465,0.768186092376709,0.48604416847229004,-0.019175652414560318,0.7492054104804993,0.46079114079475403,-0.03196138143539429,0.7197591066360474,0.45878323912620544,-0.038287386298179626
2023-08-01 17:18:23.791846,26,26,0.9902073740959167,-0.0089983660727739,-0.1190868467092514,0.07229595631361,-0.005859375,0.8349609375,0.4462890625,0.6334417462348938,0.7327788472175598,6.515399064710437e-08,0.6009233593940735,0.6381506323814392,-0.007768465206027031,0.6005872488021851,0.5422496199607849,-0.007879088632762432,0.6234310269355774,0.46861881017684937,-0.013547232374548912,0.6437987089157104,0.41122645139694214,-0.0178754311054945,0.6363622546195984,0.4775323271751404,0.03256746008992195,0.6436744332313538,0.40297335386276245,0.01958957314491272,0.6445634365081787,0.3566121459007263,0.0019077216275036335,0.644141435623169,0.31926631927490234,-0.012152791023254395,0.6713494658470154,0.48509278893470764,0.02380252070724964,0.6843975186347961,0.4002200961112976,0.0047581079415977,0.6833436489105225,0.35298335552215576,-0.01919839158654213,0.6742174029350281,0.3275194466114044,-0.03488635644316673,0.7050938010215759,0.5075874924659729,0.009957903996109962,0.7295464873313904,0.42114683985710144,-0.014107856899499893,0.7121870517730713,0.40572383999824524,-0.03398560360074043,0.683501124382019,0.41818055510520935,-0.0430285781621933,0.740292489528656,0.5423705577850342,-0.005205775145441294,0.7443851828575134,0.4752998352050781,-0.0262064877897501,0.7261409163475037,0.4486042261123657,-0.039764758199453354,0.6988736987113953,0.4442616105079651,-0.04639265313744545
2023-08-01 17:18:23.852902,27,27,0.9913209676742554,-0.0191287379711866,-0.1055770888924598,0.0759613886475563,-0.060546875,0.83251953125,0.474609375,0.5828220844268799,0.7340123653411865,-6.011524789073519e-08,0.5477662086486816,0.6437858939170837,-0.007072423119097948,0.5462548136711121,0.5378791689872742,-0.008502716198563576,0.5596689581871033,0.45954450964927673,-0.015578278340399265,0.5718247890472412,0.3946158289909363,-0.02153932675719261,0.5926820635795593,0.47860878705978394,0.028410140424966812,0.60310298204422,0.4031974971294403,0.011900966987013817,0.5971071124076843,0.3578909635543823,-0.007258182857185602,0.5869218707084656,0.32213646173477173,-0.021132009103894234,0.6263285875320435,0.48674020171165466,0.017133774235844612,0.6353352069854736,0.39322519302368164,-0.005185194779187441,0.6164686679840088,0.34607750177383423,-0.028192950412631035,0.5904679894447327,0.322424054145813,-0.04204534366726875,0.6585959196090698,0.5067907571792603,0.0007940436480566859,0.6708581447601318,0.4080679416656494,-0.02609141729772091,0.635818600654602,0.39939016103744507,-0.04336629807949066,0.5980859398841858,0.41759932041168213,-0.04958145692944527,0.6894898414611816,0.5374452471733093,-0.016733841970562935,0.6781935691833496,0.4574795663356781,-0.03833094239234924,0.6443043947219849,0.4385579526424408,-0.04860508814454079,0.610771656036377,0.4426501393318176,-0.052445974200963974
2023-08-01 17:18:23.910146,28,28,0.9921643137931824,-0.0295013785362243,-0.0946529656648635,0.0760292112827301,-0.0419921875,0.83349609375,0.46826171875,0.5679603219032288,0.7415549159049988,-1.3779295215954335e-07,0.530422031879425,0.6555112600326538,-0.008622261695563793,0.5257289409637451,0.5463749170303345,-0.011191975325345993,0.5376998782157898,0.46544772386550903,-0.01927804760634899,0.5499048233032227,0.3965114951133728,-0.026376258581876755,0.5737790465354919,0.4816603660583496,0.023223979398608208,0.583674430847168,0.4036923050880432,0.00273195281624794,0.5759553909301758,0.355884313583374,-0.01789654977619648,0.5634288191795349,0.3212338387966156,-0.03214754909276962,0.6090861558914185,0.48933300375938416,0.01216895505785942,0.616211473941803,0.3958929479122162,-0.013331830501556396,0.5913702845573425,0.35330888628959656,-0.03590793535113335,0.5626764893531799,0.3336462378501892,-0.0488785058259964,0.6410770416259766,0.5108934044837952,-0.004209376871585846,0.6523597240447998,0.41374629735946655,-0.035590071231126785,0.6124116778373718,0.41184526681900024,-0.05216366797685623,0.5735136866569519,0.43371328711509705,-0.056825991719961166,0.6698748469352722,0.5436660647392273,-0.021633654832839966,0.6556022763252258,0.46711304783821106,-0.04715913534164429,0.62087482213974,0.44698619842529297,-0.05812401324510574,0.5881125330924988,0.4472923278808594,-0.06168811768293381
2023-08-01 17:18:23.970817,29,29,0.9924383163452148,-0.0414582341909408,-0.0872254967689514,0.0757561326026916,-0.0439453125,0.822265625,0.5068359375,0.5672115087509155,0.7430480718612671,-1.3373561102980602e-07,0.531244695186615,0.6541778445243835,-0.007617054041475058,0.5275915265083313,0.547417163848877,-0.009284268133342266,0.5383065342903137,0.4685198962688446,-0.017041075974702835,0.5500138401985168,0.4022529721260071,-0.023499220609664917,0.575282871723175,0.4814741611480713,0.026570407673716545,0.5867518782615662,0.40379104018211365,0.0072960578836500645,0.575558066368103,0.35903698205947876,-0.012760073877871037,0.5602162480354309,0.3246261775493622,-0.026451775804162025,0.6079204678535461,0.48908063769340515,0.01555765513330698,0.6201374530792236,0.3936026096343994,-0.010916836559772491,0.5948463082313538,0.3553932309150696,-0.03441336750984192,0.565300464630127,0.3410910665988922,-0.04657734930515289,0.6391310691833496,0.509253978729248,-0.0005354611203074455,0.6516878008842468,0.4141209125518799,-0.02982374094426632,0.6125010251998901,0.4134913980960846,-0.04613865911960602,0.5746648907661438,0.43776682019233704,-0.05011628568172455,0.6695117950439453,0.5413893461227417,-0.017879266291856766,0.6622503995895386,0.46514692902565,-0.039112918078899384,0.6290717720985413,0.446390300989151,-0.04820725694298744,0.5974976420402527,0.4508049786090851,-0.050642069429159164
2023-08-01 17:18:24.030998,30,30,0.9923823475837708,-0.0582881346344947,-0.0799082219600677,0.0734464898705482,-0.05029296875,0.8134765625,0.5498046875,0.5323622822761536,0.7827515602111816,-3.368463694641832e-07,0.49364620447158813,0.6965456008911133,-0.006902430672198534,0.4861449897289276,0.5926140546798706,-0.010679998435080051,0.49656328558921814,0.5155176520347595,-0.020041869953274727,0.5056965947151184,0.45141756534576416,-0.028869925066828728,0.537105143070221,0.5149585008621216,0.019942903891205788,0.5413979291915894,0.4405282139778137,-0.004324501380324364,0.5222243666648865,0.40098708868026733,-0.028242480009794235,0.50057053565979,0.3725813031196594,-0.04437415301799774,0.5720531344413757,0.5229852199554443,0.006806659512221813,0.5749295949935913,0.4296756088733673,-0.01948235183954239,0.5457533597946167,0.3986303210258484,-0.042395271360874176,0.5145950317382812,0.38648486137390137,-0.05585828050971031,0.6041350960731506,0.5484544634819031,-0.011364988051354885,0.6111628413200378,0.45523694157600403,-0.040977951139211655,0.5700260996818542,0.45615696907043457,-0.054946817457675934,0.5309408903121948,0.4740596413612366,-0.059262946248054504,0.632969856262207,0.5901742577552795,-0.030738694593310356,0.6173803210258484,0.5215122699737549,-0.05440191552042961,0.5802379250526428,0.5037751793861389,-0.06333143264055252,0.5458984971046448,0.5006346106529236,-0.06634768098592758
2023-08-01 17:18:24.091303,31,31,0.9918539524078368,-0.073240078985691,-0.0777082219719886,0.0694471672177314,-0.05712890625,0.85205078125,0.6015625,0.524081289768219,0.802054762840271,-2.8327701784292003e-07,0.484518826007843,0.718682050704956,-0.008909592404961586,0.4768930673599243,0.6116407513618469,-0.013439326547086239,0.48316690325737,0.5329299569129944,-0.023037537932395935,0.4817157983779907,0.4650874733924866,-0.03152744472026825,0.5231221318244934,0.5321269035339355,0.016996966674923897,0.5228649377822876,0.45181402564048767,-0.0064893667586147785,0.5050879716873169,0.41459667682647705,-0.029441898688673973,0.48579302430152893,0.3920489549636841,-0.04460161551833153,0.5594016909599304,0.5401167869567871,0.005440653767436743,0.5551682114601135,0.4457436203956604,-0.01808951236307621,0.5246676206588745,0.4171755313873291,-0.039790328592061996,0.4956032931804657,0.4074528217315674,-0.05342297628521919,0.5926169157028198,0.5657162070274353,-0.011044354178011417,0.5984516739845276,0.46745991706848145,-0.03886982798576355,0.556027889251709,0.4736260175704956,-0.05138480290770531,0.5188577771186829,0.4991316795349121,-0.05525266006588936,0.6214300990104675,0.6070525050163269,-0.028887666761875153,0.6061818599700928,0.5346882939338684,-0.052157048135995865,0.5700864195823669,0.5199036002159119,-0.06030594930052757,0.5388678312301636,0.5242072343826294,-0.062571682035923
2023-08-01 17:18:24.154777,32,32,0.9911482930183412,-0.086107924580574,-0.0780654475092887,0.0641586109995842,-0.068359375,0.787109375,0.59423828125,0.5198659300804138,0.8214381337165833,-3.407582198633463e-07,0.48008593916893005,0.734848141670227,-0.007047015707939863,0.4703376889228821,0.6314204931259155,-0.011764262802898884,0.4734583795070648,0.5554492473602295,-0.022172141820192337,0.47130751609802246,0.4919899106025696,-0.03133942186832428,0.5144553184509277,0.54881751537323,0.019863994792103767,0.5125846862792969,0.4672173261642456,-0.006250050384551287,0.4897642135620117,0.43536776304244995,-0.031515419483184814,0.46433165669441223,0.42235395312309265,-0.04686587676405907,0.5496343970298767,0.5571961402893066,0.007503717206418514,0.5430690050125122,0.46392616629600525,-0.016200700774788857,0.5108261704444885,0.44296514987945557,-0.03819003701210022,0.48139795660972595,0.4405231177806854,-0.05163761228322983,0.5830485224723816,0.5831966400146484,-0.009984389878809452,0.5867224931716919,0.4852571487426758,-0.037531718611717224,0.5454147458076477,0.4957640767097473,-0.04948674514889717,0.5108964443206787,0.525349497795105,-0.05279356241226196,0.6125486493110657,0.6244036555290222,-0.028705844655632973,0.5935067534446716,0.5520140528678894,-0.05086285620927811,0.5560440421104431,0.5437195897102356,-0.05756183713674545,0.525553286075592,0.5547579526901245,-0.05870751291513443
2023-08-01 17:18:24.219185,33,33,0.9904945492744446,-0.0955156534910202,-0.0813975259661674,0.0563183799386024,-0.08740234375,0.791015625,0.62890625,0.5157074928283691,0.8447737693786621,-3.8953888292780903e-07,0.4751462936401367,0.75637286901474,-0.001967483665794134,0.4650198221206665,0.6544919013977051,-0.004457722418010235,0.46761322021484375,0.5815194249153137,-0.013697689399123192,0.4675862491130829,0.5235155820846558,-0.02240736410021782,0.5085141658782959,0.5732076168060303,0.023884832859039307,0.5019075274467468,0.5010745525360107,-0.0003826274478342384,0.47974520921707153,0.47139447927474976,-0.025123633444309235,0.456955224275589,0.459534227848053,-0.040427424013614655,0.5431088805198669,0.5792691707611084,0.008962062187492847,0.5340140461921692,0.4912290573120117,-0.013184883631765842,0.503365159034729,0.4714486002922058,-0.03429974615573883,0.4754403233528137,0.47126972675323486,-0.04711459204554558,0.577098548412323,0.6041403412818909,-0.010502506978809834,0.5782204866409302,0.5120180249214172,-0.03606274724006653,0.5400161743164062,0.5253152847290039,-0.0467706173658371,0.5090519189834595,0.5573753118515015,-0.04948849976062775,0.6079556345939636,0.6450529098510742,-0.030895153060555458,0.5889570116996765,0.5729349851608276,-0.050430890172719955,0.5513492226600647,0.5692041516304016,-0.054676350206136703,0.5217269062995911,0.5858255624771118,-0.05441899225115776
2023-08-01 17:18:24.281474,34,34,0.990217924118042,-0.0994799733161926,-0.0833123996853828,0.0512947812676429,-0.0908203125,0.78076171875,0.60498046875,0.5167783498764038,0.844599187374115,-3.1804623290554446e-07,0.4779166281223297,0.7619612216949463,-0.005364842247217894,0.46711885929107666,0.6596631407737732,-0.009384111501276493,0.4695242941379547,0.5860055088996887,-0.01914900168776512,0.4648802578449249,0.5257326364517212,-0.02825254760682583,0.5100523233413696,0.5767880082130432,0.020287485793232918,0.5046945810317993,0.4974491000175476,-0.003917868714779615,0.48300570249557495,0.46484801173210144,-0.028305256739258766,0.45758187770843506,0.4493696093559265,-0.04327959194779396,0.5454481244087219,0.58429354429245,0.007170125376433134,0.5385085344314575,0.4919576048851013,-0.01659524254500866,0.506332278251648,0.47274476289749146,-0.03841487690806389,0.4746616780757904,0.4743461310863495,-0.050899118185043335,0.5786868929862976,0.6086869239807129,-0.010583631694316864,0.5832527875900269,0.5123825669288635,-0.03743520379066467,0.5424013137817383,0.5216077566146851,-0.049386173486709595,0.5060372948646545,0.5512112975120544,-0.05239037051796913,0.6072907447814941,0.6484093070030212,-0.02936897985637188,0.5891451239585876,0.5766255259513855,-0.05065767467021942,0.5516587495803833,0.5714544653892517,-0.056287847459316254,0.5203108787536621,0.5857186317443848,-0.05647372454404831
2023-08-01 17:18:24.340251,35,35,0.988935649394989,-0.1104027032852172,-0.0930766761302948,0.0339744873344898,-0.11669921875,0.79296875,0.630859375,0.5265929698944092,0.902614951133728,-5.21877154824324e-07,0.48790866136550903,0.8196351528167725,-0.0032674097456038,0.4724571704864502,0.7235790491104126,-0.007841266691684723,0.4731665849685669,0.6536493897438049,-0.019112002104520798,0.4863554537296295,0.6211503148078918,-0.030085671693086624,0.5204341411590576,0.6347935199737549,0.02190103381872177,0.5118034482002258,0.5667044520378113,-0.002964344806969166,0.48769015073776245,0.5407227277755737,-0.028576042503118515,0.4607560336589813,0.5305802226066589,-0.0449848435819149,0.5559325218200684,0.6401901245117188,0.00684017688035965,0.5430380702018738,0.5607548356056213,-0.016843169927597046,0.5120033621788025,0.5460678935050964,-0.03850039467215538,0.4822418689727783,0.5482153296470642,-0.051193129271268845,0.5911969542503357,0.6646553874015808,-0.012574348598718643,0.5815615653991699,0.5864900946617126,-0.03942389786243439,0.5440821647644043,0.6069803237915039,-0.049713652580976486,0.5135313272476196,0.6421358585357666,-0.05135258659720421,0.6224087476730347,0.7058264017105103,-0.033148087561130524,0.5914132595062256,0.6525301337242126,-0.05214506387710571,0.5556657314300537,0.6552909016609192,-0.05557442829012871,0.5300495028495789,0.673190712928772,-0.054520804435014725
2023-08-01 17:18:24.403754,36,36,0.9880271553993224,-0.1145316213369369,-0.1012759357690811,0.0206869170069694,-0.13671875,0.79736328125,0.7138671875,0.5333840847015381,0.9115381240844727,-4.0082250052364543e-07,0.49627867341041565,0.8280999660491943,-0.0027437314856797457,0.4858916997909546,0.7357379198074341,-0.006188945844769478,0.48871421813964844,0.6741122603416443,-0.01603352651000023,0.4894605875015259,0.6295791864395142,-0.02538076974451542,0.5290039777755737,0.653990626335144,0.020796645432710648,0.5179500579833984,0.5858962535858154,-0.004491280764341354,0.4946235716342926,0.5606942772865295,-0.029107991605997086,0.47069209814071655,0.552165150642395,-0.04389131814241409,0.5645694136619568,0.6608698964118958,0.006088868714869022,0.5505282878875732,0.5814601182937622,-0.016699252650141716,0.5176919102668762,0.5666526556015015,-0.03642177954316139,0.4895817041397095,0.5662133097648621,-0.047641534358263016,0.5986323356628418,0.6854352951049805,-0.013107321225106716,0.5923572778701782,0.6058081388473511,-0.03983459621667862,0.5522551536560059,0.6294040679931641,-0.047994643449783325,0.5227850079536438,0.6640381217002869,-0.048065755516290665,0.6284951567649841,0.7254996299743652,-0.03337375074625015,0.6004631519317627,0.6722930073738098,-0.05287213996052742,0.5635507106781006,0.6798385977745056,-0.055114053189754486,0.5386456251144409,0.7002986073493958,-0.0529620461165905
2023-08-01 17:18:24.468064,37,37,0.986696481704712,-0.113718532025814,-0.1161158457398414,0.003907554782927,-0.1474609375,0.79638671875,0.69482421875,0.5449868440628052,0.9342789649963379,-3.754418571588758e-07,0.5025789737701416,0.8531025052070618,-0.004961399361491203,0.49088022112846375,0.7573096752166748,-0.010715787298977375,0.504604697227478,0.6987026929855347,-0.022532079368829727,0.529364824295044,0.6787754893302917,-0.03375120088458061,0.5322673916816711,0.6686185598373413,0.019010359421372414,0.5226016640663147,0.6016780138015747,-0.006167246028780937,0.5009956955909729,0.5772982835769653,-0.0318475067615509,0.4771461486816406,0.5693875551223755,-0.04815101996064186,0.5695499777793884,0.6764099597930908,0.004322820343077183,0.5571268796920776,0.601308286190033,-0.019907519221305847,0.5287826657295227,0.5915915966033936,-0.04160015285015106,0.5020930767059326,0.5971064567565918,-0.053730305284261703,0.6064538359642029,0.7038664817810059,-0.014854781329631805,0.6038796901702881,0.6252059936523438,-0.042556289583444595,0.567435622215271,0.6489061117172241,-0.05411839857697487,0.5366923213005066,0.6860602498054504,-0.056429892778396606,0.6401394605636597,0.7473558187484741,-0.0351744145154953,0.6162130236625671,0.6947957873344421,-0.05742475762963295,0.5790485143661499,0.7019761800765991,-0.06280648708343506,0.5501882433891296,0.7234827280044556,-0.06275913864374161
2023-08-01 17:18:24.533119,38,38,0.9856767654418944,-0.1088846921920776,-0.1285520195960998,-0.007735728751868,-0.1796875,0.8056640625,0.642578125,0.579025387763977,0.9770536422729492,-3.499884257962549e-07,0.5399553775787354,0.9032992124557495,-0.007130966056138277,0.5362964868545532,0.8131260871887207,-0.014781092293560505,0.562065839767456,0.7554599046707153,-0.028677821159362793,0.5947498083114624,0.7376984357833862,-0.04173169657588005,0.5830984711647034,0.7296432852745056,0.015386844985187054,0.5900853276252747,0.6549893617630005,-0.012709859758615494,0.5731760263442993,0.6302309036254883,-0.03896309807896614,0.5500917434692383,0.6283047199249268,-0.054542530328035355,0.6162110567092896,0.7386375665664673,0.0015518049476668239,0.6171330809593201,0.657581090927124,-0.02435772307217121,0.5912861227989197,0.6426759362220764,-0.0459601990878582,0.5664616823196411,0.6494656205177307,-0.05796108767390251,0.6488364934921265,0.7659263610839844,-0.01709422655403614,0.6592909097671509,0.682368278503418,-0.046665068715810776,0.6245573163032532,0.7059188485145569,-0.05737447738647461,0.5957841873168945,0.7454372048377991,-0.058337319642305374,0.6795058846473694,0.8078563213348389,-0.03698115050792694,0.6716285943984985,0.7473281025886536,-0.05782189592719078,0.6407448053359985,0.7521963715553284,-0.060790520161390305,0.6169934272766113,0.7736291289329529,-0.05900774523615837
2023-08-01 17:18:24.598577,39,39,0.9844520688056946,-0.1018402799963951,-0.1421762406826019,-0.0163903478533029,-0.20654296875,0.80712890625,0.65234375,0.586932897567749,0.9829062223434448,-2.9321697070372466e-07,0.5547347664833069,0.9071071147918701,-0.005800350569188595,0.5580774545669556,0.8201896548271179,-0.010534873232245445,0.581213116645813,0.7666852474212646,-0.021033301949501038,0.6019518971443176,0.7305994033813477,-0.030178969725966454,0.6006666421890259,0.7398785948753357,0.019589925184845924,0.6102935075759888,0.6651918888092041,-0.006268404424190521,0.59554523229599,0.6409639120101929,-0.031492412090301514,0.5720809102058411,0.6408997774124146,-0.04579506069421768,0.6328783631324768,0.7502580285072327,0.007830431684851646,0.6380953788757324,0.6674153208732605,-0.017255229875445366,0.6117510795593262,0.6533979177474976,-0.03945422172546387,0.5832831859588623,0.6626781225204468,-0.050911061465740204,0.6645687222480774,0.7759700417518616,-0.008576121181249619,0.6775686144828796,0.689323902130127,-0.035045985132455826,0.6427960991859436,0.7073702812194824,-0.04604557901620865,0.6129467487335205,0.7444429993629456,-0.0475417785346508,0.6956760883331299,0.8165527582168579,-0.026149379089474678,0.6884262561798096,0.7595170140266418,-0.04629145935177803,0.6568094491958618,0.7635258436203003,-0.05072731152176857,0.6318517327308655,0.7840217351913452,-0.04950796067714691
2023-08-01 17:18:24.659120,40,40,0.982979953289032,-0.0912410840392112,-0.1577135622501373,-0.0234907325357198,-0.18310546875,0.7978515625,0.646484375,0.6024380326271057,0.9853178262710571,-1.7392119389114669e-07,0.5677729249000549,0.9160281419754028,-0.012300905771553516,0.5534563064575195,0.835311233997345,-0.02079774998128414,0.5448477268218994,0.7767902612686157,-0.03376636654138565,0.5438620448112488,0.7289278507232666,-0.04565480723977089,0.6156725883483887,0.7489367127418518,0.012159780599176884,0.626573383808136,0.676953911781311,-0.01330932043492794,0.6147394776344299,0.6480525732040405,-0.03806953877210617,0.5921787619590759,0.6408002972602844,-0.052270326763391495,0.647712767124176,0.7592713832855225,0.0032785111106932163,0.6578381657600403,0.6747679114341736,-0.023200660943984985,0.6341450214385986,0.6566687822341919,-0.04591657966375351,0.6044347286224365,0.6622289419174194,-0.057039350271224976,0.6790711879730225,0.7842980623245239,-0.010346939787268639,0.6967185139656067,0.6967232823371887,-0.039251841604709625,0.6649662852287292,0.7148787975311279,-0.0503249391913414,0.6352347731590271,0.7545003890991211,-0.050419777631759644,0.7096779942512512,0.8238571286201477,-0.025382213294506073,0.7077760696411133,0.7636358737945557,-0.04782863333821297,0.6798170208930969,0.7677443027496338,-0.052119240164756775,0.6572402119636536,0.7928825616836548,-0.0496196448802948
2023-08-01 17:18:24.730647,41,41,0.9814724326133728,-0.0795734599232673,-0.1720998138189315,-0.0275956355035305,-0.17919921875,0.79931640625,0.5888671875,0.6407588124275208,0.9711425304412842,-2.2782545627819673e-08,0.607026994228363,0.8983273506164551,-0.019712772220373154,0.6093671321868896,0.8084447979927063,-0.028384240344166756,0.6296636462211609,0.7413907051086426,-0.04043491557240486,0.6458356380462646,0.6799595355987549,-0.05007455497980118,0.6504103541374207,0.7283124327659607,0.017853232100605965,0.6626638174057007,0.6562451124191284,-0.00918248575180769,0.6630881428718567,0.6278591156005859,-0.03475344181060791,0.6550093293190002,0.6342127919197083,-0.047987502068281174,0.6868496537208557,0.7399504780769348,0.013575156219303608,0.7088344693183899,0.659740149974823,-0.01491798646748066,0.6972542405128479,0.6514425277709961,-0.03894171491265297,0.6780194640159607,0.6736919283866882,-0.048683445900678635,0.7202759385108948,0.7654391527175903,0.0029750133398920298,0.7491275668144226,0.6877515316009521,-0.026302766054868698,0.7279156446456909,0.6985310912132263,-0.03971978649497032,0.7048086524009705,0.7369682788848877,-0.04067060723900795,0.7522381544113159,0.8047344088554382,-0.00981999933719635,0.7653337717056274,0.7466858625411987,-0.03148037567734718,0.7460187673568726,0.7508114576339722,-0.03671683743596077,0.7271531224250793,0.7783611416816711,-0.03449046611785889
2023-08-01 17:18:24.788745,42,42,0.980259358882904,-0.0703903958201408,-0.1823177188634872,-0.0299523416906595,-0.201171875,0.779296875,0.59716796875,0.6521531343460083,0.9626502394676208,5.0549381569453544e-08,0.6200727224349976,0.8942345976829529,-0.024018745869398117,0.6237370371818542,0.8024507164955139,-0.03538540005683899,0.6449757218360901,0.7348959445953369,-0.049252189695835114,0.664354681968689,0.6757296323776245,-0.060295287519693375,0.663465142250061,0.7168798446655273,0.012868214398622513,0.6775422096252441,0.6420133113861084,-0.016485361382365227,0.6826594471931458,0.6173444986343384,-0.04410609230399132,0.6812047958374023,0.6314317584037781,-0.05848456174135208,0.7003610134124756,0.7310563921928406,0.010022387839853764,0.7268348932266235,0.6496537327766418,-0.020453086122870445,0.7205499410629272,0.6430806517601013,-0.046709250658750534,0.7067651748657227,0.6681707501411438,-0.05828838422894478,0.7335615754127502,0.7589710354804993,0.0005016992799937725,0.7692736387252808,0.6805371642112732,-0.029935967177152634,0.7508426904678345,0.689461886882782,-0.04558471962809563,0.7277268767356873,0.7283459901809692,-0.04859507083892822,0.7648714780807495,0.7990570664405823,-0.011522086337208748,0.7816980481147766,0.7413159012794495,-0.03463044390082359,0.7627356052398682,0.7422192692756653,-0.042261455208063126,0.7412245869636536,0.7677125930786133,-0.04216733202338219
2023-08-01 17:18:24.836954,43,43,0.9796951413154602,-0.0622445605695247,-0.1880813539028167,-0.0307958610355854,-0.24365234375,0.82080078125,0.56591796875,0.6613717079162598,0.9493959546089172,6.253341666706547e-08,0.6302093267440796,0.8815673589706421,-0.021902993321418762,0.6370534896850586,0.7897605299949646,-0.03168435022234917,0.6617977619171143,0.7256761193275452,-0.04350346699357033,0.6817290186882019,0.6771717071533203,-0.052039142698049545,0.6700369119644165,0.6980481743812561,0.010084452107548714,0.6864200830459595,0.6234427690505981,-0.01778542436659336,0.6971185207366943,0.60157310962677,-0.04395999014377594,0.699496328830719,0.6247522830963135,-0.05697150528430939,0.7097234725952148,0.7133618593215942,0.007180732674896717,0.7341402769088745,0.6338521838188171,-0.016900239512324333,0.7341437935829163,0.6307097673416138,-0.03869310021400452,0.7259511947631836,0.6613319516181946,-0.04847009852528572,0.7435877919197083,0.7426676154136658,-0.001774607808329165,0.7781462669372559,0.6681944131851196,-0.02390751615166664,0.7696874141693115,0.6668224334716797,-0.03395947813987732,0.7551809549331665,0.7023717761039734,-0.03560163080692291,0.7754658460617065,0.7863671183586121,-0.01364446897059679,0.7972124814987183,0.7298834919929504,-0.029337063431739807,0.7843931317329407,0.7265918850898743,-0.031902607530355453,0.7668994665145874,0.7524600625038147,-0.02923663705587387
2023-08-01 17:18:24.905908,44,44,0.979425609111786,-0.0495066046714782,-0.19363634288311,-0.0279200244694948,-0.2177734375,0.84521484375,0.57373046875,0.6722185015678406,0.9373570680618286,7.905430265964242e-08,0.6432209014892578,0.8688622713088989,-0.01970706321299076,0.6479150056838989,0.78289794921875,-0.029836855828762054,0.6695662140846252,0.7215548157691956,-0.041723717004060745,0.6947482228279114,0.6744961738586426,-0.050296030938625336,0.681054413318634,0.6798655986785889,0.010819463059306145,0.7008548378944397,0.6038323640823364,-0.018352389335632324,0.7142711281776428,0.5856586694717407,-0.04828738048672676,0.7174233794212341,0.61201012134552,-0.06414230912923813,0.7222765684127808,0.6985360383987427,0.007493265904486179,0.74814772605896,0.6170538067817688,-0.01698850281536579,0.7534383535385132,0.6108054518699646,-0.04320714995265007,0.7436710596084595,0.6418628692626953,-0.05691063404083252,0.7565160393714905,0.7288773059844971,-0.0013466461095958948,0.7925520539283752,0.6567100882530212,-0.02222810499370098,0.7912209630012512,0.6439536213874817,-0.0375513881444931,0.7753430008888245,0.6736387610435486,-0.04386045038700104,0.7877278327941895,0.7750926613807678,-0.012783458456397057,0.8109245896339417,0.7251076102256775,-0.0281925518065691,0.8078063726425171,0.7122165560722351,-0.03461955860257149,0.7943647503852844,0.7276669144630432,-0.035309430211782455
2023-08-01 17:18:24.960825,45,45,0.9797250628471376,-0.0403595007956028,-0.1949258893728256,-0.0226690713316202,-0.19580078125,0.8642578125,0.5419921875,0.7104724645614624,0.9077894687652588,2.792853024402575e-07,0.6745059490203857,0.8228777050971985,-0.016249222680926323,0.677824079990387,0.7270247340202332,-0.021351860836148262,0.7132358551025391,0.6611908674240112,-0.029252156615257263,0.7446767687797546,0.6147682070732117,-0.034497227519750595,0.7134223580360413,0.6407086253166199,0.02185407094657421,0.7243186235427856,0.5711203813552856,0.003752773394808173,0.7428891658782959,0.5407034754753113,-0.017365438863635063,0.7588700652122498,0.5355002880096436,-0.030096786096692085,0.7560536861419678,0.6557982563972473,0.018051421269774437,0.7764020562171936,0.5789397358894348,-0.001288322964683175,0.789959192276001,0.5538231730461121,-0.024929851293563843,0.7939308285713196,0.5629289150238037,-0.03819378837943077,0.7912845611572266,0.68672776222229,0.008572088554501534,0.816118597984314,0.6257578134536743,-0.013459473848342896,0.8147591352462769,0.6197736859321594,-0.03238577023148537,0.8015758395195007,0.6454408764839172,-0.04007664695382118,0.8231856226921082,0.7281863689422607,-0.002868063747882843,0.8428248167037964,0.6745520234107971,-0.019636986777186394,0.8365516662597656,0.657276451587677,-0.02924077957868576,0.8205173015594482,0.6639961004257202,-0.03232429176568985
2023-08-01 17:18:25.022917,46,46,0.9801304936408995,-0.0307061057537794,-0.1954555958509445,-0.0140897845849394,-0.17236328125,0.8369140625,0.53369140625,0.7104099988937378,0.9043928384780884,1.3208467919412215e-07,0.677064061164856,0.8258991837501526,-0.013142803683876991,0.6798024773597717,0.7320110201835632,-0.017989737913012505,0.7140160799026489,0.665137529373169,-0.026154087856411934,0.7445773482322693,0.6191259026527405,-0.03143518045544624,0.7141385078430176,0.643008828163147,0.021709419786930084,0.7333406805992126,0.5666161179542542,0.002044325228780508,0.7507526874542236,0.5405477285385132,-0.01899794116616249,0.7613381743431091,0.5448459386825562,-0.030181430280208588,0.753282368183136,0.6592219471931458,0.016965586692094803,0.7759108543395996,0.5769004225730896,-0.0018741947133094072,0.7872737646102905,0.5563619136810303,-0.02282981015741825,0.7896022200584412,0.5697221755981445,-0.033858153969049454,0.7878274917602539,0.6881436705589294,0.006822019349783659,0.8132568001747131,0.6225805878639221,-0.012474899180233479,0.8111096620559692,0.6192060112953186,-0.027467232197523117,0.7999843955039978,0.6476848125457764,-0.03308827430009842,0.8216601610183716,0.7269598841667175,-0.005314333364367485,0.8430548310279846,0.6691208481788635,-0.018198756501078606,0.8354307413101196,0.6543658971786499,-0.02441641502082348,0.8195764422416687,0.6641867160797119,-0.02583659626543522
2023-08-01 17:18:25.085781,47,47,0.9808394312858582,-0.0209368206560611,-0.1936840415000915,-0.0014034633059054,-0.1552734375,0.8291015625,0.484375,0.7136842012405396,0.8850544095039368,1.7237366023437062e-07,0.6809625625610352,0.8077595233917236,-0.0142859211191535,0.6868948340415955,0.7072405219078064,-0.01869635470211506,0.7222623229026794,0.6403175592422485,-0.02622384950518608,0.7520479559898376,0.5971083641052246,-0.030932994559407234,0.7205300331115723,0.6171061992645264,0.02043089270591736,0.739112377166748,0.5408612489700317,-0.0007740619475953281,0.7570388317108154,0.5165089964866638,-0.023922864347696304,0.7675575017929077,0.5257182121276855,-0.03672312945127487,0.759908139705658,0.634423553943634,0.015576623380184174,0.7804667353630066,0.553934633731842,-0.0029378870967775583,0.7923332452774048,0.5314110517501831,-0.024601038545370102,0.7946467399597168,0.5442964434623718,-0.03675677254796028,0.7940613627433777,0.6655268669128418,0.005008174572139978,0.8206011652946472,0.5990397930145264,-0.01313558779656887,0.8206160068511963,0.5887525081634521,-0.027847519144415855,0.8106329441070557,0.6104529500007629,-0.03445078060030937,0.825975775718689,0.7066680788993835,-0.007918785326182842,0.8440635204315186,0.6523632407188416,-0.0210749302059412,0.8390981554985046,0.6345385313034058,-0.027601737529039383,0.8267630934715271,0.6387874484062195,-0.02953702211380005
2023-08-01 17:18:25.153324,48,48,0.9818835854530334,-0.013976564630866,-0.188501238822937,0.0132878776639699,-0.16943359375,0.82177734375,0.46728515625,0.7135663628578186,0.8691874742507935,1.5381411344606022e-07,0.6833549737930298,0.7922083139419556,-0.017874523997306824,0.6895991563796997,0.6924000978469849,-0.023872969672083855,0.7207912802696228,0.6213073134422302,-0.032741986215114594,0.7468365430831909,0.5703588724136353,-0.03853081166744232,0.7229889631271362,0.5980517268180847,0.021713806316256523,0.7426269054412842,0.5178641080856323,-6.386279710568488e-05,0.7600255608558655,0.4953339099884033,-0.025630317628383636,0.769943356513977,0.508666455745697,-0.04085760563611984,0.7616599202156067,0.6153005957603455,0.017894653603434563,0.7823737263679504,0.5304166674613953,-0.0025965457316488028,0.7938841581344604,0.512816309928894,-0.030348289757966995,0.7958052754402161,0.5319921970367432,-0.04734817519783974,0.7949623465538025,0.6456094980239868,0.008231628686189651,0.8272165060043335,0.5685864686965942,-0.012414018623530865,0.8279138803482056,0.5572986602783203,-0.033793192356824875,0.816389799118042,0.5876913666725159,-0.04524357244372368,0.8265669941902161,0.6865589022636414,-0.0038405414670705795,0.8429630994796753,0.6288161277770996,-0.021147796884179115,0.8382201194763184,0.6103405952453613,-0.0334116667509079,0.8253626227378845,0.6216135025024414,-0.03942896053195
2023-08-01 17:18:25.209863,49,49,0.982765018939972,-0.0107916304841637,-0.1829566806554794,0.0241525098681449,-0.12060546875,0.8271484375,0.4697265625,0.7028545141220093,0.8063107132911682,1.6403342328885628e-07,0.6652892827987671,0.7134718894958496,-0.0123977642506361,0.6694036722183228,0.612388014793396,-0.013929685577750206,0.7004472017288208,0.538080096244812,-0.018929408863186836,0.7260769009590149,0.48280492424964905,-0.02229679562151432,0.7058734893798828,0.540168046951294,0.028312155976891518,0.7162076234817505,0.4669538736343384,0.017034944146871567,0.7244940996170044,0.4259854555130005,0.00014506959996651858,0.7319520115852356,0.3981821835041046,-0.01271018385887146,0.7440377473831177,0.5523042678833008,0.023065662011504173,0.7641603946685791,0.470076322555542,0.004304197151213884,0.7644974589347839,0.44623517990112305,-0.019137408584356308,0.7563467621803284,0.45123204588890076,-0.03213456645607948,0.7778681516647339,0.5776584148406982,0.013017216697335243,0.8090139031410217,0.49460017681121826,-0.006138587836176157,0.8002631068229675,0.4772202670574188,-0.02412097342312336,0.7797436118125916,0.49507495760917664,-0.032465122640132904,0.8106603026390076,0.61529940366745,0.0011397481430321932,0.8240653276443481,0.5502068996429443,-0.015023801475763321,0.8137768507003784,0.5217469930648804,-0.02624412626028061,0.7950587272644043,0.5179864764213562,-0.03133362904191017
2023-08-01 17:18:25.280434,50,50,0.9843053817749025,-0.0088033797219395,-0.1713901907205581,0.0411203205585479,-0.09423828125,0.8330078125,0.4638671875,0.7005341053009033,0.79454505443573,2.597054837849555e-08,0.6669998168945312,0.7077927589416504,-0.012303503230214119,0.6710918545722961,0.6091102361679077,-0.01569857820868492,0.7007997035980225,0.5396865606307983,-0.022807056084275246,0.7255816459655762,0.4903312921524048,-0.028142007067799568,0.7106574773788452,0.5303311347961426,0.02594989538192749,0.7196095585823059,0.46152371168136597,0.010686561465263367,0.7265588641166687,0.42676660418510437,-0.00957863312214613,0.7303813099861145,0.4096025824546814,-0.02373729832470417,0.7474291920661926,0.5447567105293274,0.01951318047940731,0.766766369342804,0.4669538140296936,0.0008751947898417711,0.7669298648834229,0.44516506791114807,-0.02185569517314434,0.759207010269165,0.45324641466140747,-0.0349617637693882,0.779834508895874,0.5720981955528259,0.007980037480592728,0.8113521933555603,0.4945264756679535,-0.011033158749341965,0.8021605014801025,0.4754963517189026,-0.027646757662296295,0.7827087640762329,0.4911659359931946,-0.03578667342662811,0.810321569442749,0.6118454337120056,-0.005543067120015621,0.823727011680603,0.5505934357643127,-0.020359065383672714,0.8124667406082153,0.5247915983200073,-0.029247960075736046,0.7933642268180847,0.5237327814102173,-0.033314090222120285
2023-08-01 17:18:25.338959,51,51,0.9852561354637146,-0.0088395001366734,-0.1630204916000366,0.0511515475809574,-0.09912109375,0.8447265625,0.43701171875,0.6942839026451111,0.7810177206993103,8.372261817157778e-08,0.6609629392623901,0.6895120143890381,-0.009973769076168537,0.665336012840271,0.5916829705238342,-0.010955896228551865,0.694445013999939,0.5221331119537354,-0.016775544732809067,0.7151699662208557,0.46827441453933716,-0.021205971017479897,0.6991460919380188,0.5202304720878601,0.03278809413313866,0.7056788206100464,0.44946396350860596,0.01871708407998085,0.714625358581543,0.40990063548088074,-0.001413934864103794,0.7221373915672302,0.3887757360935211,-0.015771806240081787,0.7355873584747314,0.5319544076919556,0.025384387001395226,0.7553887963294983,0.44851958751678467,0.0053792428225278854,0.7585648894309998,0.423601359128952,-0.02040094882249832,0.7515993714332581,0.4307636022567749,-0.034894898533821106,0.767650306224823,0.5576826930046082,0.012898435816168785,0.798559844493866,0.4750317633152008,-0.007287971675395966,0.7903112173080444,0.45832890272140503,-0.027240613475441933,0.7696200013160706,0.47932592034339905,-0.036646049469709396,0.799117386341095,0.5960385203361511,-0.0014192583039402962,0.8117963075637817,0.5321769118309021,-0.01821773312985897,0.7993776202201843,0.5040873885154724,-0.03079027310013771,0.7777242064476013,0.5022622346878052,-0.03695850074291229
2023-08-01 17:18:25.402657,52,52,0.986607015132904,-0.010360118933022,-0.1494493186473846,0.0645287930965423,-0.08154296875,0.86767578125,0.43359375,0.6534601449966431,0.7325507402420044,1.4158013073028997e-07,0.615306556224823,0.6462818384170532,-0.011152896098792553,0.6126971244812012,0.5462464690208435,-0.012618700973689556,0.6348497271537781,0.47344982624053955,-0.01841902919113636,0.650737464427948,0.4158174991607666,-0.022396966814994812,0.6526164412498474,0.46911925077438354,0.02790224365890026,0.6563360691070557,0.38804230093955994,0.01538163423538208,0.6574199199676514,0.3354659974575043,-0.0018145008943974972,0.6564870476722717,0.3010696768760681,-0.014525936916470528,0.6877797842025757,0.47811397910118103,0.020450115203857422,0.7010772228240967,0.38969266414642334,-0.0002953405200969428,0.6958944797515869,0.3566659688949585,-0.023634321987628937,0.6811263561248779,0.3584602475166321,-0.03634605556726456,0.7208485007286072,0.5016176104545593,0.007909229956567287,0.7412407398223877,0.41564053297042847,-0.013928703963756561,0.7217087745666504,0.40096473693847656,-0.03258718550205231,0.6939041614532471,0.42316287755966187,-0.040271151810884476,0.7552775144577026,0.5369666814804077,-0.006421763449907303,0.7620481252670288,0.4641391932964325,-0.02358550764620304,0.7416464686393738,0.4394477307796478,-0.03447268158197403,0.7136448621749878,0.44473332166671753,-0.039082806557416916
2023-08-01 17:18:25.461088,53,53,0.9876378774642944,-0.0132987834513187,-0.1374259442090988,0.0742209032177925,-0.0087890625,0.830078125,0.47216796875,0.6381208300590515,0.726370096206665,1.2424122175502816e-08,0.604330837726593,0.630901038646698,-0.006673886906355619,0.6002500653266907,0.5373758673667908,-0.007187263108789921,0.6184417605400085,0.4641234576702118,-0.013767121359705925,0.6297814846038818,0.4029076397418976,-0.018864739686250687,0.6347377300262451,0.46499013900756836,0.03521052002906799,0.6388322710990906,0.38798099756240845,0.02162853069603443,0.6379978060722351,0.34221068024635315,0.002544836373999715,0.6354080438613892,0.30745601654052734,-0.011709052138030529,0.6681933999061584,0.47270703315734863,0.025483887642621994,0.6785715818405151,0.3861614465713501,0.004206343553960323,0.6722003221511841,0.34768998622894287,-0.021485408768057823,0.6581605076789856,0.3352789878845215,-0.03659765422344208,0.7017656564712524,0.49302008748054504,0.010784233920276165,0.7215629816055298,0.40559273958206177,-0.012532489374279976,0.7039830684661865,0.3932109475135803,-0.031615179032087326,0.6778593063354492,0.41327333450317383,-0.039249125868082047,0.7381816506385803,0.5249929428100586,-0.005453720688819885,0.7424454092979431,0.45421102643013,-0.023769566789269447,0.721792459487915,0.43035948276519775,-0.034797728061676025,0.6938433647155762,0.434733122587204,-0.03924201801419258
2023-08-01 17:18:25.524102,54,54,0.988511562347412,-0.0189975555986166,-0.1255246847867965,0.0820210427045822,-0.03369140625,0.84130859375,0.46240234375,0.5955674648284912,0.7205247282981873,-6.310192901537448e-08,0.560350239276886,0.6288732886314392,-0.003327579703181982,0.5568153858184814,0.5260552167892456,-0.001561578013934195,0.5664376616477966,0.4519945979118347,-0.006578138563781977,0.5680305361747742,0.38710302114486694,-0.01051041018217802,0.5978860259056091,0.4581756889820099,0.03943309560418129,0.6063008904457092,0.38626980781555176,0.024540947750210762,0.6013027429580688,0.3440845310688019,0.0043538701720535755,0.590813934803009,0.3131147027015686,-0.01037653349339962,0.629871129989624,0.46534615755081177,0.02710878476500511,0.636383056640625,0.37629902362823486,0.005579046439379454,0.6192202568054199,0.33670467138290405,-0.019465800374746323,0.5939176678657532,0.31843918561935425,-0.03433321416378021,0.6617071032524109,0.4850533604621887,0.009492418728768826,0.6773801445960999,0.3931683301925659,-0.01512990240007639,0.6494711637496948,0.3826095163822174,-0.032768614590168,0.6144753694534302,0.3965725302696228,-0.03954136371612549,0.6952619552612305,0.5168896317481995,-0.009390449151396751,0.6923810839653015,0.44201019406318665,-0.029061147943139076,0.6650106906890869,0.42011022567749023,-0.03934796154499054,0.6331490874290466,0.4188205897808075,-0.04339044541120529
2023-08-01 17:18:25.584964,55,55,0.9889780879020692,-0.0270680300891399,-0.1154949069023132,0.0886029154062271,-0.01953125,0.83642578125,0.478515625,0.5837115049362183,0.7179878950119019,-1.6273885705686553e-07,0.5452187657356262,0.6297429203987122,-0.0031667151488363743,0.5368056893348694,0.5246628522872925,-0.002681907033547759,0.5458160638809204,0.449318528175354,-0.009092923253774643,0.5510292053222656,0.38419342041015625,-0.014346107840538025,0.5772517323493958,0.4521174728870392,0.0367450974881649,0.5863403081893921,0.3781777620315552,0.018608292564749718,0.5795472860336304,0.3403306007385254,-0.003364283125847578,0.5659693479537964,0.31833040714263916,-0.018075531348586082,0.6114003658294678,0.45964786410331726,0.024336326867341995,0.6164122223854065,0.371671199798584,0.0009966399520635605,0.5983408689498901,0.33774295449256897,-0.024475540965795517,0.572114109992981,0.32728660106658936,-0.039119236171245575,0.6450021862983704,0.4791804850101471,0.006570110563188791,0.658798098564148,0.3883705139160156,-0.018895603716373444,0.6300577521324158,0.37986063957214355,-0.03620583191514015,0.5941854119300842,0.39598095417022705,-0.042583733797073364,0.6792152523994446,0.5104522705078125,-0.012306800112128258,0.670623779296875,0.43577051162719727,-0.032354265451431274,0.6422687768936157,0.41368603706359863,-0.042278025299310684,0.610174298286438,0.41305914521217346,-0.04588385671377182
2023-08-01 17:18:25.651836,56,56,0.9892371296882628,-0.0402314513921737,-0.1045990288257598,0.094076320528984,-0.0224609375,0.81201171875,0.498046875,0.5719324350357056,0.7233249545097351,-1.8666430889879848e-07,0.5340945720672607,0.6382375955581665,-0.004217575304210186,0.5249568819999695,0.5308122634887695,-0.004470046143978834,0.5306135416030884,0.45322370529174805,-0.011541325598955154,0.5330955386161804,0.38772502541542053,-0.017608946189284325,0.5674575567245483,0.45899564027786255,0.0332275852560997,0.5749943256378174,0.37980949878692627,0.01387801207602024,0.5635307431221008,0.341117799282074,-0.00825551524758339,0.5463466048240662,0.31840574741363525,-0.02287187986075878,0.599990963935852,0.465570867061615,0.02038649655878544,0.6053837537765503,0.37222132086753845,-0.004143949598073959,0.5831707715988159,0.3381914794445038,-0.029405567795038223,0.5538475513458252,0.3292628824710846,-0.043704479932785034,0.6319407820701599,0.48385798931121826,0.002170202089473605,0.6430100202560425,0.3868994414806366,-0.024708854034543037,0.609774649143219,0.38160282373428345,-0.04251398146152496,0.5723688006401062,0.4026556611061096,-0.048968859016895294,0.6639493107795715,0.5131535530090332,-0.017139310017228127,0.6530985236167908,0.4337422847747803,-0.037779659032821655,0.6211063861846924,0.4167892634868622,-0.047478336840867996,0.5875250101089478,0.4232240319252014,-0.050981342792510986
2023-08-01 17:18:25.724582,57,57,0.9890348315238952,-0.0593417510390281,-0.0926326364278793,0.0985282137989997,0.01708984375,0.80810546875,0.5419921875,0.5593132972717285,0.7297378778457642,-2.4392733166678227e-07,0.5209096670150757,0.6476061344146729,-0.0032441606745123863,0.5124530792236328,0.5386395454406738,-0.003092533675953746,0.5188644528388977,0.4609904885292053,-0.009776866994798183,0.5210093259811401,0.3950350880622864,-0.01576044037938118,0.5584412217140198,0.46501293778419495,0.03143314644694328,0.5638653039932251,0.3866764307022095,0.011457255110144615,0.5484955906867981,0.3469400405883789,-0.010841959156095982,0.5282129049301147,0.32244938611984253,-0.0256960391998291,0.5906260013580322,0.4708337187767029,0.01802436262369156,0.5913667678833008,0.3769814968109131,-0.006266622804105282,0.5655781626701355,0.34082600474357605,-0.03070579096674919,0.5350961685180664,0.32716137170791626,-0.0449460931122303,0.6218926310539246,0.48952293395996094,-0.0005090723279863596,0.6263473629951477,0.3941825032234192,-0.028348980471491814,0.5908597707748413,0.3926441967487335,-0.04503963142633438,0.5540081858634949,0.4129621982574463,-0.050779689103364944,0.6529415845870972,0.520149827003479,-0.01994730904698372,0.63742995262146,0.4433574378490448,-0.041053835302591324,0.6041144132614136,0.4289647340774536,-0.049713537096977234,0.5714127421379089,0.4344337582588196,-0.05252872034907341
2023-08-01 17:18:25.787374,58,58,0.9886992573738098,-0.0735979750752449,-0.0854012742638588,0.0988116115331649,0.00390625,0.8251953125,0.56982421875,0.551695704460144,0.7397472858428955,-2.5326113473056466e-07,0.5103954672813416,0.6609205007553101,-0.0062622628174722195,0.49963828921318054,0.5483132004737854,-0.006850968115031719,0.5056478381156921,0.46738770604133606,-0.013397776521742344,0.5055218935012817,0.3982863128185272,-0.019215598702430725,0.5464503169059753,0.47446978092193604,0.027847543358802795,0.5494706034660339,0.39592981338500977,0.009050157852470875,0.5333400964736938,0.3552008271217346,-0.011648555286228657,0.5136626362800598,0.32594552636146545,-0.0263286754488945,0.579832136631012,0.47894471883773804,0.015554023906588554,0.5787512063980103,0.3841021656990051,-0.007441301830112934,0.5505883693695068,0.34835386276245117,-0.030458755791187286,0.52017742395401,0.33215320110321045,-0.044601235538721085,0.6110413670539856,0.49779361486434937,-0.002010009018704295,0.6163471341133118,0.39745867252349854,-0.030938375741243362,0.5773869156837463,0.3979266881942749,-0.04779491946101189,0.5395303964614868,0.4195258319377899,-0.05395687371492386,0.6407220959663391,0.5282820463180542,-0.02054361253976822,0.6207373142242432,0.4504868686199188,-0.04451015591621399,0.5855982899665833,0.43729960918426514,-0.05477336421608925,0.5538293123245239,0.44313549995422363,-0.05867963284254074
2023-08-01 17:18:25.846768,59,59,0.9884974360466005,-0.0869915783405304,-0.0793118774890899,0.0949467569589614,0.01416015625,0.82958984375,0.5830078125,0.5130003690719604,0.7864069938659668,-4.7081164211704163e-07,0.4704008400440216,0.7053132057189941,-0.005665643140673637,0.4540815055370331,0.603631854057312,-0.009930931963026524,0.45139244198799133,0.5291690230369568,-0.02017662487924099,0.44625240564346313,0.4641138017177582,-0.02939458377659321,0.5072472095489502,0.514901876449585,0.021283365786075592,0.5033048987388611,0.4388023614883423,-0.006089695729315281,0.47344788908958435,0.4076184034347534,-0.03214314207434654,0.44064247608184814,0.3921789526939392,-0.04797537997364998,0.5398266315460205,0.5217046737670898,0.007612793240696192,0.5305078029632568,0.4311888515949249,-0.01818949170410633,0.4923011362552643,0.41182440519332886,-0.03908619284629822,0.4563489854335785,0.411109060049057,-0.05088081955909729,0.5703274011611938,0.5459120273590088,-0.011631442233920097,0.5662784576416016,0.4574880301952362,-0.038895636796951294,0.5216140151023865,0.46309036016464233,-0.049609746783971786,0.4831685423851013,0.4838780462741852,-0.05214891955256462,0.5977384448051453,0.5862830877304077,-0.032411523163318634,0.5752918720245361,0.5203062891960144,-0.052682630717754364,0.534153163433075,0.5086141228675842,-0.05889564007520676,0.49973082542419434,0.5099561810493469,-0.06027162820100784
2023-08-01 17:18:25.898824,60,60,0.9884117245674132,-0.0961780250072479,-0.0770017504692077,0.0886720418930053,-0.03662109375,0.80517578125,0.62255859375,0.5046065449714661,0.804470419883728,-4.090506990905851e-07,0.4642927050590515,0.7227697372436523,-0.005187191069126129,0.44843581318855286,0.6214848160743713,-0.009520347230136395,0.44376036524772644,0.5476672053337097,-0.019938817247748375,0.4407263994216919,0.484718918800354,-0.029144082218408585,0.49576398730278015,0.540748119354248,0.020340917631983757,0.4886033833026886,0.4638848602771759,-0.005448749754577875,0.46104007959365845,0.4339083433151245,-0.0302591510117054,0.4328247308731079,0.4184917211532593,-0.0459451749920845,0.5279276371002197,0.5453794598579407,0.007179184816777706,0.5128176212310791,0.45671796798706055,-0.016964050009846687,0.4745120406150818,0.43388113379478455,-0.03784656897187233,0.440938800573349,0.4273154139518738,-0.0509757325053215,0.5590681433677673,0.5666586756706238,-0.011127987876534462,0.5552615523338318,0.47137802839279175,-0.03884522616863251,0.5103461742401123,0.48116636276245117,-0.04962407052516937,0.47257429361343384,0.5073183178901672,-0.05249841511249542,0.5872218608856201,0.6025063991546631,-0.030623681843280792,0.5650477409362793,0.5336258411407471,-0.052362702786922455,0.5255788564682007,0.5245782136917114,-0.058708060532808304,0.49233534932136536,0.5316526889801025,-0.06001301482319832
2023-08-01 17:18:25.957806,61,61,0.9881519675254822,-0.105460911989212,-0.0766430273652076,0.0809907391667366,-0.04541015625,0.80322265625,0.6435546875,0.5046154260635376,0.798389196395874,-3.828413639439532e-07,0.4653061330318451,0.7192122936248779,-0.0034462236799299717,0.4493338465690613,0.6201652884483337,-0.00770748732611537,0.4454052448272705,0.5491953492164612,-0.018044887110590935,0.4425208568572998,0.4879319369792938,-0.027600497007369995,0.4983808100223541,0.5402247309684753,0.019718920812010765,0.49256467819213867,0.46352821588516235,-0.0060758814215660095,0.4640171527862549,0.43193739652633667,-0.031195932999253273,0.43159154057502747,0.4180286228656769,-0.04642406851053238,0.5296252369880676,0.5457766056060791,0.006154333241283894,0.5177747011184692,0.4572634696960449,-0.01978445239365101,0.4790014922618866,0.436691552400589,-0.04138914868235588,0.44188350439071655,0.43626868724823,-0.053207676857709885,0.5600030422210693,0.5661981105804443,-0.012018566019833088,0.55509352684021,0.47296613454818726,-0.03921777382493019,0.5112113356590271,0.47923144698143005,-0.05015294626355171,0.47233667969703674,0.5045311450958252,-0.05231436714529991,0.5878762602806091,0.6012656092643738,-0.031088322401046753,0.5640588998794556,0.532852292060852,-0.05154252052307129,0.5246255397796631,0.5238648056983948,-0.05662314221262932,0.49070969223976135,0.531042218208313,-0.05645723640918732
2023-08-01 17:18:26.024826,62,62,0.987651228904724,-0.1154492646455764,-0.0781728625297546,0.0714522525668144,-0.0537109375,0.7939453125,0.6162109375,0.49395787715911865,0.8594971895217896,-5.829252813782659e-07,0.45245060324668884,0.787481427192688,-0.003952716942876577,0.4335031509399414,0.6921026110649109,-0.009242469444870949,0.43116283416748047,0.6271969079971313,-0.020539844408631325,0.4317615330219269,0.5787859559059143,-0.03184370696544647,0.4816477596759796,0.6060912609100342,0.014077662490308285,0.462824285030365,0.5406509637832642,-0.012964002788066864,0.4361690878868103,0.5172596573829651,-0.03876015916466713,0.40835660696029663,0.5067915320396423,-0.05481548607349396,0.5156421661376953,0.6114014387130737,-0.0010837088339030743,0.49700549244880676,0.5294580459594727,-0.028284883126616478,0.45922359824180603,0.5193933248519897,-0.04921148344874382,0.42492878437042236,0.5265310406684875,-0.06043675169348717,0.5492289662361145,0.63553386926651,-0.020382516086101532,0.5373698472976685,0.5492502450942993,-0.05022471770644188,0.49707257747650146,0.5700465440750122,-0.05919286608695984,0.4658294916152954,0.6054364442825317,-0.05928398668766022,0.5791968107223511,0.6756516098976135,-0.040569569915533066,0.5506064295768738,0.6121215224266052,-0.06295154243707657,0.5103647112846375,0.6125796437263489,-0.06616456061601639,0.4798535108566284,0.6296624541282654,-0.06431138515472412
2023-08-01 17:18:26.087527,63,63,0.9869702458381652,-0.1237025186419487,-0.0818798765540123,0.0623146034777164,-0.07275390625,0.79150390625,0.65283203125,0.5002420544624329,0.8779731392860413,-4.3411750993982423e-07,0.4553666412830353,0.8051708340644836,-0.003891178173944354,0.4377559721469879,0.7108349204063416,-0.0078743239864707,0.436176598072052,0.6452276110649109,-0.01750531792640686,0.433061420917511,0.5996131896972656,-0.026878423988819122,0.48204416036605835,0.6270128488540649,0.015945101156830788,0.462413489818573,0.5640820860862732,-0.009041761048138142,0.43738964200019836,0.537554919719696,-0.03371444717049599,0.4134346842765808,0.5233110785484314,-0.04950748011469841,0.5178172588348389,0.6291433572769165,0.0018996691796928644,0.49787235260009766,0.5519328117370605,-0.02222413942217827,0.46243247389793396,0.5389470458030701,-0.041606880724430084,0.432369589805603,0.5410680174827576,-0.05270956829190254,0.5520468354225159,0.6513142585754395,-0.016373980790376663,0.5416555404663086,0.5675645470619202,-0.04310331493616104,0.5012359619140625,0.5890397429466248,-0.05121646821498871,0.47116589546203613,0.6238018274307251,-0.05179228633642197,0.5817593932151794,0.6898040771484375,-0.03576044738292694,0.552911102771759,0.630099892616272,-0.05634823068976402,0.512959897518158,0.6328384280204773,-0.060020752251148224,0.48412618041038513,0.6510685086250305,-0.05916270241141319
2023-08-01 17:18:26.146235,64,64,0.9862452149391174,-0.1299660503864288,-0.0875844582915306,0.0525189563632011,-0.09326171875,0.7744140625,0.67236328125,0.5017104744911194,0.8887175917625427,-4.2923403498207335e-07,0.45856258273124695,0.8164407014846802,-0.003237901721149683,0.4419863224029541,0.7239567041397095,-0.007259897422045469,0.4388081431388855,0.6588497161865234,-0.01689661666750908,0.43195053935050964,0.613453209400177,-0.026123881340026855,0.4898644983768463,0.6397050619125366,0.015254530124366283,0.4734576642513275,0.5758110880851746,-0.010207336395978928,0.4476218819618225,0.5532759428024292,-0.034627821296453476,0.42104434967041016,0.5454778671264648,-0.04939902201294899,0.5243642330169678,0.6439052224159241,0.0013272735523059964,0.5058168172836304,0.5662328004837036,-0.021954786032438278,0.47128820419311523,0.5554112792015076,-0.04038090631365776,0.44055402278900146,0.5610832571983337,-0.05055280029773712,0.5575017333030701,0.666344940662384,-0.01669330894947052,0.5454726219177246,0.5863874554634094,-0.04215594008564949,0.5060886144638062,0.6095932126045227,-0.049208421260118484,0.47627851366996765,0.6451522707939148,-0.049001771956682205,0.5863035917282104,0.7042649984359741,-0.035834141075611115,0.5564438104629517,0.6478115916252136,-0.05498358979821205,0.517005205154419,0.652661144733429,-0.05781126767396927,0.4884716272354126,0.6716718077659607,-0.05630869045853615
2023-08-01 17:18:26.207508,65,65,0.985576868057251,-0.1346015781164169,-0.0940670520067215,0.0408894903957843,-0.09716796875,0.75830078125,0.6806640625,0.521461009979248,0.9350314736366272,-4.129078661208041e-07,0.47958165407180786,0.8698297142982483,-0.006911638658493757,0.4558083713054657,0.780771791934967,-0.01253853552043438,0.4494660794734955,0.7136936783790588,-0.02409248612821102,0.469041109085083,0.6882465481758118,-0.03475911170244217,0.5063349008560181,0.6875313520431519,0.016197877004742622,0.49233749508857727,0.6252166628837585,-0.008720453828573227,0.4681885242462158,0.6073164939880371,-0.03224515542387962,0.44405874609947205,0.600398063659668,-0.047278132289648056,0.5389475226402283,0.6884846091270447,0.0031246899161487818,0.5211637616157532,0.6052713394165039,-0.01888490654528141,0.4909713566303253,0.5808314085006714,-0.0384780652821064,0.4646800458431244,0.5708938837051392,-0.05080585554242134,0.5727689862251282,0.7108316421508789,-0.014555524103343487,0.5647408366203308,0.6356979012489319,-0.04517347365617752,0.5279901027679443,0.6668359637260437,-0.0569729283452034,0.4994147717952728,0.7064731121063232,-0.05868275836110115,0.6031830310821533,0.749644935131073,-0.033260684460401535,0.576165497303009,0.7010607719421387,-0.057970959693193436,0.5394706726074219,0.7117295861244202,-0.06492485851049423,0.5118994116783142,0.7344176173210144,-0.06583353877067566
2023-08-01 17:18:26.266704,66,66,0.984799861907959,-0.1371470093727111,-0.1028841063380241,0.0278356485068798,-0.1357421875,0.755859375,0.68408203125,0.53255695104599,0.9612851738929749,-3.744604271105345e-07,0.48957380652427673,0.8863576054573059,-0.0032709401566535234,0.4692055881023407,0.7953293323516846,-0.006439110729843378,0.46415749192237854,0.7304454445838928,-0.01632099598646164,0.46930721402168274,0.6896703243255615,-0.025478145107626915,0.5107189416885376,0.713341236114502,0.0233639907091856,0.49814698100090027,0.6502194404602051,-0.00020524066349025816,0.4756271243095398,0.6349681615829468,-0.02385680191218853,0.4544939696788788,0.6331658959388733,-0.03843476623296738,0.5440800189971924,0.7137523293495178,0.009809330105781555,0.5286082625389099,0.6336472630500793,-0.008817623369395733,0.5000687837600708,0.6116116046905518,-0.02847934700548649,0.47619372606277466,0.6028714179992676,-0.041860610246658325,0.5791780352592468,0.7333442568778992,-0.008441254496574402,0.574106752872467,0.6517202854156494,-0.03518790379166603,0.538059651851654,0.6807933449745178,-0.045885778963565826,0.5106297731399536,0.7221491932868958,-0.0481884628534317,0.6137422919273376,0.7694112062454224,-0.027481403201818466,0.5933881998062134,0.715831995010376,-0.04897930845618248,0.557366669178009,0.7269192934036255,-0.05347863584756851,0.5289006233215332,0.7543548941612244,-0.05326185002923012
2023-08-01 17:18:26.327247,67,67,0.9841355085372924,-0.1368222534656524,-0.1116735488176345,0.0169094260782003,-0.15234375,0.79150390625,0.72998046875,0.5410807132720947,0.9732859134674072,-4.097372254818765e-07,0.4966312646865845,0.8945314288139343,-0.0007850101101212204,0.47897616028785706,0.8048928380012512,-0.003803258528932929,0.47750598192214966,0.7408670783042908,-0.01377540547400713,0.48070502281188965,0.6996964812278748,-0.023091193288564682,0.5225026607513428,0.7238563895225525,0.025262948125600815,0.5131590366363525,0.6583379507064819,0.0009844640735536814,0.4921926259994507,0.6446856260299683,-0.02309611439704895,0.47197505831718445,0.651031494140625,-0.036843303591012955,0.5557596683502197,0.7284970283508301,0.010766396299004555,0.5436327457427979,0.6526612639427185,-0.010769499465823174,0.5133452415466309,0.6471754312515259,-0.030590755864977837,0.4875197112560272,0.659052848815918,-0.041490331292152405,0.5897513628005981,0.7485422492027283,-0.008268211036920547,0.5858772397041321,0.6710103750228882,-0.032911770045757294,0.5498954057693481,0.6979345679283142,-0.04203514754772186,0.5226848125457764,0.7394251227378845,-0.04286591336131096,0.6221660375595093,0.7831934094429016,-0.028144150972366333,0.6012499332427979,0.727314293384552,-0.04555913433432579,0.5659440755844116,0.73826003074646,-0.04770249128341675,0.5397152900695801,0.7652226090431213,-0.04572717472910881
2023-08-01 17:18:26.392380,68,68,0.9834754467010498,-0.1296947598457336,-0.1263121664524078,0.0007855913136154,-0.173828125,0.7861328125,0.71728515625,0.548809826374054,0.9789822697639465,-3.8239403465922805e-07,0.5042816400527954,0.9059719443321228,-0.0012960629537701607,0.48636287450790405,0.8168021440505981,-0.005477109458297491,0.49372315406799316,0.7573044300079346,-0.016413766890764236,0.5197158455848694,0.7328463196754456,-0.02713724412024021,0.5326859354972839,0.7350489497184753,0.024374430999159813,0.5202963352203369,0.676559567451477,0.0007952490705065429,0.5002182126045227,0.6670686602592468,-0.02270618826150894,0.4829660654067993,0.6773759126663208,-0.03638695552945137,0.5673784613609314,0.737758994102478,0.010017323307693005,0.5586179494857788,0.6663001775741577,-0.010700498707592487,0.5318350195884705,0.6640350818634033,-0.029616879299283028,0.5099096894264221,0.6808239221572876,-0.0396425686776638,0.6028391718864441,0.7586376070976257,-0.008673450909554958,0.6008116006851196,0.6844891309738159,-0.032499007880687714,0.5664587020874023,0.7125893831253052,-0.04179808124899864,0.5417106747627258,0.7555254697799683,-0.04279152676463127,0.6366133689880371,0.7944368124008179,-0.0281355157494545,0.6131627559661865,0.7463651895523071,-0.045428622514009476,0.5807782411575317,0.7602280378341675,-0.047809865325689316,0.5593841075897217,0.7886962890625,-0.04588565602898598
2023-08-01 17:18:26.457136,69,69,0.9830180406570436,-0.1213131174445152,-0.1374779343605041,-0.0076447436586022,-0.17333984375,0.78857421875,0.67724609375,0.5759941935539246,0.997606098651886,-3.213109494026867e-07,0.5427838563919067,0.9265244007110596,-0.00792295765131712,0.5439292192459106,0.8449442982673645,-0.015967972576618195,0.5671148896217346,0.7938665747642517,-0.0303837601095438,0.5904121994972229,0.7724353075027466,-0.04405529797077179,0.5846121907234192,0.763554573059082,0.017022110521793365,0.5901630520820618,0.6968900561332703,-0.01377672329545021,0.5710505247116089,0.6776819825172424,-0.04164492338895798,0.5458815097808838,0.680599570274353,-0.056929126381874084,0.6168215274810791,0.7722733020782471,0.0033863261342048645,0.629436731338501,0.692822277545929,-0.028323132544755936,0.6005603671073914,0.6890532374382019,-0.05078161880373955,0.5713363289833069,0.7078670263290405,-0.059483546763658524,0.6479980945587158,0.7973383069038391,-0.015391584485769272,0.6606882214546204,0.7202248573303223,-0.04725034534931183,0.6227039694786072,0.7506758570671082,-0.056445617228746414,0.5926737189292908,0.7929611206054688,-0.05359063670039177,0.6783545613288879,0.8372179269790649,-0.03568150848150253,0.6747416257858276,0.7836031913757324,-0.05556348338723183,0.6417273879051208,0.7934633493423462,-0.05662129819393158,0.615705668926239,0.8175357580184937,-0.05219465121626854
2023-08-01 17:18:26.522709,70,70,0.9821171760559082,-0.1099408343434333,-0.1522081643342971,-0.0138426944613456,-0.18212890625,0.79638671875,0.6494140625,0.6029776334762573,0.9976315498352051,-2.2760710294278397e-07,0.5711756944656372,0.9300675392150879,-0.013214967213571072,0.5587438941001892,0.8583841323852539,-0.024567369371652603,0.5535464882850647,0.8065940737724304,-0.04093432053923607,0.5536943078041077,0.7604836225509644,-0.05610339716076851,0.6136425137519836,0.7698851823806763,0.007667130324989557,0.6232938766479492,0.693626344203949,-0.02440701611340046,0.6067819595336914,0.6727325916290283,-0.0536784902215004,0.5801960229873657,0.673662006855011,-0.06978657841682434,0.644787073135376,0.7809979915618896,-0.0024779129307717085,0.6529500484466553,0.6938465237617493,-0.03733067959547043,0.6292075514793396,0.6873648762702942,-0.06564820557832718,0.5995875000953674,0.7057019472122192,-0.07866121828556061,0.6751366853713989,0.8055211305618286,-0.01746121421456337,0.6905009746551514,0.7198514342308044,-0.051691073924303055,0.6584585905075073,0.7397958636283875,-0.06747159361839294,0.6266782283782959,0.7805530428886414,-0.06948437541723251,0.7053751945495605,0.8454971313476562,-0.03380786255002022,0.7075738310813904,0.7905251979827881,-0.06038019061088562,0.6804871559143066,0.7954765558242798,-0.0685468465089798,0.6550596952438354,0.819707453250885,-0.0681331530213356
2023-08-01 17:18:26.578643,71,71,0.9813575744628906,-0.0982680395245552,-0.1642584949731826,-0.0173123627901077,-0.17333984375,0.7958984375,0.671875,0.6143057346343994,0.9958255290985107,-2.254498951970163e-07,0.5785934925079346,0.9303695559501648,-0.015535338781774044,0.564034104347229,0.8488105535507202,-0.026699522510170937,0.5660164952278137,0.78699791431427,-0.042115774005651474,0.585792601108551,0.741339921951294,-0.055746350437402725,0.6268520951271057,0.7636672258377075,0.010207440704107285,0.6392940282821655,0.6885266900062561,-0.01943390443921089,0.625116765499115,0.6678445935249329,-0.04689919576048851,0.6018339991569519,0.670940637588501,-0.06216464936733246,0.6586189270019531,0.7771422266960144,0.0025117669720202684,0.671192467212677,0.6923463344573975,-0.030860815197229385,0.6493675708770752,0.6905518770217896,-0.05777396634221077,0.6215240359306335,0.7135006785392761,-0.06953075528144836,0.6894221901893616,0.8024603724479675,-0.010341770946979523,0.7074807286262512,0.7163062691688538,-0.04286622628569603,0.6777470111846924,0.7353349924087524,-0.057290222495794296,0.6477648615837097,0.7780203223228455,-0.05844002589583397,0.720120906829834,0.8413891792297363,-0.02477467805147171,0.7246927618980408,0.7804885506629944,-0.05012057349085808,0.7003171443939209,0.7870721817016602,-0.057330548763275146,0.6769174933433533,0.8158677816390991,-0.05619702488183975
2023-08-01 17:18:26.650376,72,72,0.9803841710090636,-0.0832931473851203,-0.1776646673679351,-0.0185538996011018,-0.17138671875,0.802734375,0.6572265625,0.6471609473228455,0.973318338394165,5.1569170267384834e-08,0.6123722195625305,0.9039060473442078,-0.021773619577288628,0.6118999123573303,0.8149714469909668,-0.031733594834804535,0.6310534477233887,0.7470383644104004,-0.04461069032549858,0.650499165058136,0.6883577704429626,-0.054831959307193756,0.6499840617179871,0.7299747467041016,0.013316476717591286,0.6592745780944824,0.657764732837677,-0.014147241599857807,0.6629024147987366,0.6301226615905762,-0.0400850735604763,0.6604057550430298,0.6405186057090759,-0.0536048598587513,0.6879972815513611,0.7402361631393433,0.010019813664257526,0.7056238651275635,0.6608646512031555,-0.01806420274078846,0.69840407371521,0.6577925086021423,-0.04130222648382187,0.6850900650024414,0.6887025833129883,-0.05065787956118584,0.7224714159965515,0.7664104700088501,0.0004712886002380401,0.7522202134132385,0.6881369352340698,-0.027394670993089676,0.7346031665802002,0.7016867399215698,-0.03817863389849663,0.7144614458084106,0.7451320886611938,-0.03773638606071472,0.7553492784500122,0.8063703775405884,-0.011677072383463383,0.7722527980804443,0.7492242455482483,-0.03383469581604004,0.7546810507774353,0.7537148594856262,-0.03867005184292793,0.7350629568099976,0.7842698693275452,-0.03580472990870476
2023-08-01 17:18:26.699267,73,73,0.9798344373703004,-0.0720306187868118,-0.1855690628290176,-0.0173184815794229,-0.1923828125,0.8388671875,0.58935546875,0.6573717594146729,0.9649996161460876,1.1347815842555065e-07,0.6210223436355591,0.8963388204574585,-0.026388050988316536,0.6219736337661743,0.8015602231025696,-0.0402819998562336,0.6465978026390076,0.7332678437232971,-0.05664147436618805,0.6705719828605652,0.6797214150428772,-0.07040274143218994,0.6584877371788025,0.7131384015083313,0.010556655004620552,0.670076847076416,0.6422483325004578,-0.020564166828989983,0.6782581210136414,0.618211030960083,-0.048396822065114975,0.6809701323509216,0.6363399028778076,-0.062025465071201324,0.6967058777809143,0.7267565131187439,0.008249729871749878,0.7214621305465698,0.6458572149276733,-0.022355295717716217,0.7189658880233765,0.6469165086746216,-0.046161800622940063,0.7109788060188293,0.6772348284721375,-0.054912861436605453,0.7321397662162781,0.7544199824333191,-0.0010676989331841469,0.7667343020439148,0.6729485988616943,-0.03178885579109192,0.7515700459480286,0.6848127841949463,-0.04429160803556442,0.7325029373168945,0.7267055511474609,-0.044316232204437256,0.764801561832428,0.7942626476287842,-0.013214861042797565,0.7817352414131165,0.7324897050857544,-0.036699328571558,0.7649583220481873,0.736756443977356,-0.041939619928598404,0.7461528778076172,0.7668757438659668,-0.03906849026679993
2023-08-01 17:18:26.758026,74,74,0.979320228099823,-0.0588701702654361,-0.1930739432573318,-0.0137347178533673,-0.17431640625,0.84716796875,0.55810546875,0.6628449559211731,0.9462951421737671,1.6873423547281163e-08,0.6288514733314514,0.8855722546577454,-0.02226882241666317,0.6312500834465027,0.792282223701477,-0.032900068908929825,0.6536387801170349,0.7284186482429504,-0.045432914048433304,0.6782045364379883,0.6794376969337463,-0.054931264370679855,0.6650127172470093,0.6864903569221497,0.010852622799575329,0.6807387471199036,0.6122403144836426,-0.01719442941248417,0.6879541277885437,0.595267117023468,-0.044177502393722534,0.6872808337211609,0.6213294267654419,-0.057830341160297394,0.7053272128105164,0.700630247592926,0.007365026976913214,0.7263955473899841,0.6195473670959473,-0.016626926138997078,0.7272890210151672,0.6189883947372437,-0.03913699835538864,0.7182929515838623,0.651203453540802,-0.04926528036594391,0.7402496337890625,0.7294108867645264,-0.0023843205999583006,0.7728699445724487,0.6527866721153259,-0.025178179144859314,0.7676926851272583,0.6502039432525635,-0.03739957511425018,0.7537325620651245,0.6823481917381287,-0.040582966059446335,0.773065984249115,0.7739236950874329,-0.014939227141439915,0.7944597601890564,0.7152186036109924,-0.03301171213388443,0.7848784327507019,0.7137808203697205,-0.037322498857975006,0.7688124775886536,0.7381942272186279,-0.035693760961294174
2023-08-01 17:18:26.821643,75,75,0.97887122631073,-0.046455755829811,-0.1989761441946029,-0.0078366724774241,-0.16357421875,0.8212890625,0.560546875,0.6690930128097534,0.9351873397827148,-1.8374008092791883e-08,0.6363467574119568,0.8682937026023865,-0.01689280942082405,0.6390228867530823,0.7703489065170288,-0.025366097688674927,0.6650489568710327,0.70550936460495,-0.03649139404296875,0.6911426782608032,0.6610903739929199,-0.04495326057076454,0.6768079400062561,0.6702664494514465,0.014331373386085033,0.6942732334136963,0.5952130556106567,-0.014026622287929058,0.7026258707046509,0.579677164554596,-0.041619472205638885,0.7001934051513672,0.601513147354126,-0.05548406392335892,0.7174955606460571,0.6857873797416687,0.00856634322553873,0.7412284016609192,0.6048177480697632,-0.01772218383848667,0.7428866624832153,0.599074125289917,-0.041444357484579086,0.731048583984375,0.6293660998344421,-0.051584985107183456,0.7528731822967529,0.714752197265625,-0.0030992028769105673,0.7872354984283447,0.6436227560043335,-0.02492419444024563,0.7812334299087524,0.6334701776504517,-0.03861164674162865,0.7615682482719421,0.6541141271591187,-0.04304765909910202,0.784487783908844,0.757448673248291,-0.017291467636823654,0.8037800788879395,0.7068933248519897,-0.03290145844221115,0.7941858172416687,0.6964349746704102,-0.038251373916864395,0.7753592729568481,0.7049593329429626,-0.038001831620931625
2023-08-01 17:18:26.885126,76,76,0.978892147541046,-0.0322779715061187,-0.2018008083105087,0.0021236722823232,-0.14892578125,0.83544921875,0.5615234375,0.6804616451263428,0.9220691919326782,4.7046722073673664e-08,0.6453154683113098,0.851382315158844,-0.01384557131677866,0.6447571516036987,0.754857063293457,-0.019760040566325188,0.673138439655304,0.6867172122001648,-0.029257023707032204,0.7026869654655457,0.6400101184844971,-0.035399287939071655,0.684051513671875,0.656444251537323,0.019385432824492455,0.7033467888832092,0.5743358135223389,-0.004797535017132759,0.7150761485099792,0.556675910949707,-0.027786867693066597,0.7166892290115356,0.577911376953125,-0.0382293276488781,0.7236704230308533,0.6725596189498901,0.01460474543273449,0.7466754913330078,0.5885089635848999,-0.006127622444182634,0.7528792023658752,0.5766190886497498,-0.025787224993109703,0.7475203275680542,0.6021241545677185,-0.03437189385294914,0.7584832310676575,0.7012079954147339,0.003899083938449621,0.7852224111557007,0.6343264579772949,-0.013717408291995525,0.7817966938018799,0.6306188106536865,-0.024590060114860535,0.767906904220581,0.6565605401992798,-0.027522871270775795,0.7915817499160767,0.7404083013534546,-0.009228506125509739,0.8112708330154419,0.6834741830825806,-0.019654905423521996,0.8043829202651978,0.6714943051338196,-0.022543003782629967,0.7891954183578491,0.6809960603713989,-0.021256346255540848
2023-08-01 17:18:26.940135,77,77,0.9793437719345092,-0.0232300721108913,-0.2005700916051864,0.0108498549088835,-0.1767578125,0.82568359375,0.46630859375,0.6963687539100647,0.8679591417312622,1.4365951983563718e-07,0.6565879583358765,0.7831190824508667,-0.016755856573581696,0.6617642045021057,0.6802831888198853,-0.02139142155647278,0.6961608529090881,0.6088754534721375,-0.029085002839565277,0.7284048199653625,0.5618239045143127,-0.034967806190252304,0.6982495784759521,0.5965254306793213,0.023495299741625786,0.7091675400733948,0.5251463651657104,0.008177533745765686,0.71975177526474,0.4914555847644806,-0.012310927733778954,0.7267036437988281,0.48297053575515747,-0.02590315230190754,0.7377987504005432,0.6102191209793091,0.019508516415953636,0.7557931542396545,0.5295817852020264,-0.0023771473206579685,0.7569834589958191,0.5220733284950256,-0.029904093593358994,0.748970627784729,0.5529453754425049,-0.04421107470989227,0.773245096206665,0.6368481516838074,0.010630463249981403,0.8028906583786011,0.5532777309417725,-0.009984470903873444,0.7984086871147156,0.5413686633110046,-0.032969824969768524,0.7838201522827148,0.575230062007904,-0.04423550143837929,0.8061948418617249,0.675685703754425,-0.00016993274039123207,0.8192998170852661,0.6128396391868591,-0.017892176285386086,0.8135594129562378,0.5933974981307983,-0.03162471577525139,0.801772952079773,0.6087394952774048,-0.03782881423830986
2023-08-01 17:18:26.992888,78,78,0.9795588254928588,-0.015802638605237,-0.1995494961738586,0.0198702979832887,-0.12060546875,0.8388671875,0.47265625,0.6984390616416931,0.8393845558166504,1.1917745013079184e-07,0.6632084846496582,0.7593597173690796,-0.015053055249154568,0.6671562790870667,0.6546501517295837,-0.019816672429442406,0.6970646977424622,0.5797622799873352,-0.02826872654259205,0.7195588946342468,0.528652548789978,-0.03416997566819191,0.6987793445587158,0.5669568181037903,0.02417040430009365,0.7090970277786255,0.4915061593055725,0.006382984109222889,0.7243807911872864,0.4572609066963196,-0.015128685161471367,0.7340349555015564,0.45433172583580017,-0.02896956354379654,0.7385914921760559,0.5820980072021484,0.018365109339356422,0.7583471536636353,0.5011667013168335,-0.005275134928524494,0.7627469301223755,0.49136704206466675,-0.03190412372350693,0.7564604878425598,0.5188560485839844,-0.0454903244972229,0.7737881541252136,0.6106827855110168,0.0074645099230110645,0.8056692481040955,0.5298866629600525,-0.013669973239302635,0.8006568551063538,0.5174509286880493,-0.031736820936203,0.7836206555366516,0.5444232225418091,-0.039700720459222794,0.8076683282852173,0.6518305540084839,-0.005622489843517542,0.8204631805419922,0.592966616153717,-0.023084407672286034,0.8117814660072327,0.5697223544120789,-0.03436790779232979,0.7955821752548218,0.5736968517303467,-0.03885083645582199
2023-08-01 17:18:27.056992,79,79,0.980809211730957,-0.0104168308898806,-0.1917233914136886,0.0338657796382904,-0.14453125,0.83251953125,0.46044921875,0.6956712603569031,0.8198771476745605,1.0191439514528611e-07,0.6618305444717407,0.7335907816886902,-0.013369054533541203,0.6667499542236328,0.6270926594734192,-0.016438594087958336,0.6972159743309021,0.5516951680183411,-0.023417064920067787,0.7207915782928467,0.5003224015235901,-0.02845948003232479,0.6969683170318604,0.5520336627960205,0.027326207607984543,0.7059702277183533,0.47732990980148315,0.011953938752412796,0.7197784781455994,0.4402221441268921,-0.008072838187217712,0.7307015061378479,0.42701947689056396,-0.021678106859326363,0.7356375455856323,0.566045880317688,0.02161315828561783,0.7553101181983948,0.4860690236091614,0.0010955104371532798,0.7603813409805298,0.469024658203125,-0.023144787177443504,0.7565750479698181,0.48481789231300354,-0.03594021126627922,0.7703302502632141,0.5933136940002441,0.010723918676376343,0.801364541053772,0.5131329298019409,-0.008883059956133366,0.7972174286842346,0.495009183883667,-0.026318363845348358,0.7811064720153809,0.5150359272956848,-0.034234195947647095,0.8040416836738586,0.6321089863777161,-0.0022954277228564024,0.8159647583961487,0.5704924464225769,-0.018183154985308647,0.8054478764533997,0.5426852703094482,-0.028606103733181953,0.7870842814445496,0.5411112904548645,-0.03298880532383919
2023-08-01 17:18:27.116553,80,80,0.9819800853729248,-0.0101669188588857,-0.1824472695589065,0.0482155047357082,-0.12255859375,0.83642578125,0.4287109375,0.6952154040336609,0.7974624633789062,9.04084274111483e-08,0.659843385219574,0.7099761366844177,-0.011673400178551674,0.6629141569137573,0.6080085039138794,-0.013997490517795086,0.6913081407546997,0.5350706577301025,-0.020373975858092308,0.7106553316116333,0.4779895544052124,-0.025282805785536766,0.6952537298202515,0.534659206867218,0.028681298717856407,0.7013728022575378,0.4620911478996277,0.014560586772859097,0.7126914858818054,0.4225587844848633,-0.004966019187122583,0.7234790325164795,0.40244942903518677,-0.01862752065062523,0.7337232828140259,0.5474408268928528,0.022413861006498337,0.7540751099586487,0.4665978252887726,0.003114720107987523,0.7564234137535095,0.4488259255886078,-0.021190496161580086,0.750362753868103,0.4602087140083313,-0.03456546738743782,0.767869234085083,0.5730628967285156,0.011221623979508877,0.7992921471595764,0.49070242047309875,-0.007485391106456518,0.7910147309303284,0.4716717600822449,-0.02543983794748783,0.7710970044136047,0.4887220859527588,-0.03405826538801193,0.8005305528640747,0.6107425689697266,-0.0018358031520619988,0.8126090168952942,0.5449671745300293,-0.016683083027601242,0.8000919222831726,0.5146453976631165,-0.027024544775485992,0.7795420289039612,0.5096442103385925,-0.031869374215602875
2023-08-01 17:18:27.180577,81,81,0.9831374287605286,-0.0131614618003368,-0.1712005585432052,0.0629116967320442,-0.03173828125,0.8388671875,0.45263671875,0.6752695441246033,0.7459527850151062,1.9970543974068278e-07,0.6356840133666992,0.6531357765197754,-0.01078813336789608,0.6364385485649109,0.5511841177940369,-0.010269103571772575,0.6660315990447998,0.4760386347770691,-0.01360858790576458,0.6881697773933411,0.41796302795410156,-0.015192877501249313,0.672787070274353,0.48314857482910156,0.032211169600486755,0.6780845522880554,0.4109083414077759,0.022412879392504692,0.6815687417984009,0.3676190972328186,0.006158996839076281,0.6861215829849243,0.3365022540092468,-0.006559382658451796,0.7099506258964539,0.49089571833610535,0.026551688089966774,0.7236925363540649,0.4098189175128937,0.012041659094393253,0.726841390132904,0.37324002385139465,-0.009897086769342422,0.7238095998764038,0.365375280380249,-0.023841427639126778,0.7428466081619263,0.5143629312515259,0.01562418881803751,0.7659881711006165,0.43265610933303833,-0.0027471045032143593,0.7585598230361938,0.41265812516212463,-0.02163754776120186,0.7408413887023926,0.429379940032959,-0.030977396294474602,0.7767621874809265,0.5489080548286438,0.0029435164760798216,0.7876602411270142,0.4785739481449127,-0.013561368919909,0.7755975723266602,0.4487495422363281,-0.025423487648367882,0.7546778917312622,0.44654610753059387,-0.03126469999551773
2023-08-01 17:18:27.242499,82,82,0.9843562841415404,-0.0174320358783006,-0.1581683158874511,0.0756417587399482,-0.037109375,0.8447265625,0.4775390625,0.6638249754905701,0.7343971133232117,7.38584233772599e-08,0.6265143156051636,0.6392164826393127,-0.007017246447503567,0.6273630261421204,0.5372890830039978,-0.0053780572488904,0.6518344283103943,0.4615600109100342,-0.008906923234462738,0.6680552363395691,0.4003484845161438,-0.011184251867234707,0.6621055603027344,0.4724206328392029,0.035845063626766205,0.666793704032898,0.40166252851486206,0.024852437898516655,0.6688132286071777,0.35534122586250305,0.007331512868404388,0.6697179079055786,0.31691208481788635,-0.006857417523860931,0.6973848938941956,0.4796465039253235,0.02775096893310547,0.709107518196106,0.3994666635990143,0.011040964163839817,0.708834707736969,0.35459089279174805,-0.012361886911094189,0.7002134323120117,0.332688570022583,-0.02768123336136341,0.7299173474311829,0.5010998249053955,0.014540636911988258,0.7506375312805176,0.42027023434638977,-0.006720714271068573,0.737349808216095,0.39951616525650024,-0.026583479717373848,0.7124049067497253,0.40723779797554016,-0.036361657083034515,0.7641057372093201,0.5341597199440002,-0.00010795464913826436,0.7720551490783691,0.4680027365684509,-0.018968429416418076,0.7552675604820251,0.438090980052948,-0.03222224861383438,0.7283344268798828,0.42983579635620117,-0.03919181972742081
2023-08-01 17:18:27.300375,83,83,0.98539400100708,-0.0229061860591173,-0.1447525024414062,0.0867219492793083,0.01953125,0.80615234375,0.49560546875,0.6063117384910583,0.7132845520973206,-1.497392210225712e-09,0.5659341812133789,0.6199894547462463,-0.003326964098960161,0.5608072280883789,0.5192998051643372,-0.0009967555524781346,0.5744589567184448,0.4429452419281006,-0.005395012442022562,0.5813798308372498,0.3795595169067383,-0.008255125023424625,0.5985204577445984,0.44880175590515137,0.04258941859006882,0.6029923558235168,0.37509679794311523,0.029295653104782104,0.6008397340774536,0.3321155309677124,0.010177585296332836,0.5961233973503113,0.3053995370864868,-0.0030815342906862497,0.6304550170898438,0.4544134736061096,0.031467340886592865,0.6349417567253113,0.36846649646759033,0.013606731779873371,0.6227837204933167,0.32659515738487244,-0.009895323775708675,0.603255033493042,0.31177496910095215,-0.023843318223953247,0.6637084484100342,0.4725431799888611,0.014744654297828674,0.6765470504760742,0.38481903076171875,-0.00603334978222847,0.6545308828353882,0.3677172064781189,-0.024046622216701508,0.6255189180374146,0.3814936578273773,-0.03154857084155083,0.7005462646484375,0.5019846558570862,-0.003409116994589567,0.7007256150245667,0.4256041646003723,-0.019761955365538597,0.6743912696838379,0.3995151221752167,-0.02957322634756565,0.6418452262878418,0.3992652893066406,-0.03355634957551956
2023-08-01 17:18:27.361621,84,84,0.986016035079956,-0.0319545269012451,-0.1311287879943847,0.0977575704455375,0.03271484375,0.81396484375,0.47802734375,0.5804048776626587,0.7113013863563538,-4.5506414636520276e-08,0.5425504446029663,0.6216423511505127,-0.004904797300696373,0.5354015827178955,0.5170554518699646,-0.004410095512866974,0.5462928414344788,0.44151055812835693,-0.010593272745609283,0.5541889667510986,0.37765729427337646,-0.01579582691192627,0.573055624961853,0.4458487629890442,0.036209359765052795,0.5810783505439758,0.3752066493034363,0.019744647666811943,0.5799666047096252,0.33082813024520874,-0.0017360865604132414,0.5737060308456421,0.2990683615207672,-0.017327817156910896,0.6077293753623962,0.4518014192581177,0.024751154705882072,0.6136023998260498,0.36572882533073425,0.001068736775778234,0.6001758575439453,0.3266490399837494,-0.025207912549376488,0.5771516561508179,0.31244388222694397,-0.04043922945857048,0.6419417262077332,0.46999162435531616,0.008058934472501278,0.6550986766815186,0.380151629447937,-0.016798174008727074,0.6303713917732239,0.3679150342941284,-0.034640051424503326,0.5965479612350464,0.38325273990631104,-0.041381482034921646,0.6776321530342102,0.4999181032180786,-0.010122439824044704,0.6724507808685303,0.4256370961666107,-0.029661666601896286,0.6475323438644409,0.4010496139526367,-0.04026298224925995,0.6161174774169922,0.40033048391342163,-0.04434306547045708
