Timestamp,Index,Frame ID,w,x,y,z,ax,ay,az,x_0,y_0,z_0,x_1,y_1,z_1,x_2,y_2,z_2,x_3,y_3,z_3,x_4,y_4,z_4,x_5,y_5,z_5,x_6,y_6,z_6,x_7,y_7,z_7,x_8,y_8,z_8,x_9,y_9,z_9,x_10,y_10,z_10,x_11,y_11,z_11,x_12,y_12,z_12,x_13,y_13,z_13,x_14,y_14,z_14,x_15,y_15,z_15,x_16,y_16,z_16,x_17,y_17,z_17,x_18,y_18,z_18,x_19,y_19,z_19,x_20,y_20,z_20
2023-08-01 16:25:05.081328,0,497,0.9996668100357056,-0.019039362668991,-0.0173511691391468,-0.0016398947918787,0.1240234375,0.98828125,0.1025390625,0.6207898855209351,0.7845927476882935,-1.914902156840981e-07,0.5852645039558411,0.724927544593811,-0.0014066753210499,0.569532573223114,0.6443226933479309,0.0007395106949843,0.5597856044769287,0.5802989602088928,-0.0024905721656978,0.5756811499595642,0.5352501273155212,-0.0044490024447441,0.6210708022117615,0.6073967218399048,0.0378606766462326,0.6272966861724854,0.5513584017753601,0.028154332190752,0.6175383925437927,0.5264506936073303,0.0148215247318148,0.6068732738494873,0.52103590965271,0.0067635094746947,0.6453402638435364,0.6086617708206177,0.0302042588591575,0.6589649319648743,0.5384095311164856,0.0170709211379289,0.641539454460144,0.5147616267204285,0.0002371562441112,0.6172928214073181,0.5197114944458008,-0.0076867141760885,0.6695381999015808,0.6180403828620911,0.0181642174720764,0.6904087066650391,0.5412966012954712,0.0040507316589355,0.6677243709564209,0.5188333988189697,-0.0081062028184533,0.6399940252304077,0.525852620601654,-0.0116885816678404,0.6906394958496094,0.6336034536361694,0.0053569753654301,0.6889703273773193,0.5709919929504395,-0.0069683236069977,0.6660746335983276,0.5422656536102295,-0.0147289913147687,0.64114910364151,0.5351809859275818,-0.0170177109539508
2023-08-01 16:25:05.143309,1,498,0.9997008442878724,-0.0213491804897785,-0.0087291095405817,-0.0081434296444058,0.09033203125,0.9990234375,0.0556640625,0.6200096011161804,0.7845244407653809,-1.7429131560220412e-07,0.5852974653244019,0.7248557209968567,-0.0004703157756011,0.5701817870140076,0.6422260999679565,0.0020285258069634,0.5616683959960938,0.5776124596595764,-0.0008972611976787,0.5761985182762146,0.5302613973617554,-0.002654050476849,0.6231557130813599,0.6025530099868774,0.0378289707005023,0.6290695667266846,0.5473949909210205,0.0294151231646537,0.6195072531700134,0.5210839509963989,0.0168578717857599,0.609027624130249,0.5123507976531982,0.0089224930852651,0.6477941870689392,0.6045409440994263,0.0292879492044448,0.6613468527793884,0.5342502593994141,0.0178131535649299,0.643871009349823,0.5080258250236511,0.0022046866361051,0.6190954446792603,0.5108852386474609,-0.0053940662182867,0.6719259023666382,0.6146746873855591,0.0164985992014408,0.6918560862541199,0.5370763540267944,0.0033809274900704,0.6689456105232239,0.5128747224807739,-0.0076849069446325,0.6409885883331299,0.5191901922225952,-0.010941500775516,0.6927617788314819,0.6305313110351562,0.002927107270807,0.6898810863494873,0.5659448504447937,-0.0094608468934893,0.6670385599136353,0.5359188318252563,-0.0167749542742967,0.6425042152404785,0.5282400846481323,-0.0188214927911758
2023-08-01 16:25:05.206147,2,499,0.9995239973068236,-0.0264283139258623,-0.0017223079921677,-0.0158169567584991,0.09716796875,0.986328125,0.1240234375,0.6192537546157837,0.7846338748931885,-2.181798492983944e-07,0.5850409865379333,0.721530020236969,-0.0001568907609907,0.5710687637329102,0.6387274265289307,0.0014991895295679,0.5619779825210571,0.5740982294082642,-0.0025817153509706,0.5770267844200134,0.5274399518966675,-0.0056343963369727,0.6243506073951721,0.6006759405136108,0.035354096442461,0.630865216255188,0.5424424409866333,0.0237942915409803,0.6201294660568237,0.5167864561080933,0.0095833102241158,0.6092803478240967,0.5121503472328186,0.0011484094429761,0.6490539312362671,0.6035260558128357,0.0261392574757337,0.663333535194397,0.5301403999328613,0.011102944612503,0.6434829831123352,0.5070027112960815,-0.0059355520643293,0.6177495121955872,0.5145942568778992,-0.0136021533980965,0.6734602451324463,0.6143249273300171,0.0128150731325149,0.6940760016441345,0.5349706411361694,-0.0022798138670623,0.66878741979599,0.5119007229804993,-0.0137261543422937,0.6398436427116394,0.5197541117668152,-0.0166604649275541,0.6938679218292236,0.6314799785614014,-0.001218891236931,0.6908029317855835,0.5671224594116211,-0.014135998673737,0.6670274138450623,0.5369123816490173,-0.0215142965316772,0.6419305801391602,0.5290306210517883,-0.0232969596982002
2023-08-01 16:25:05.264007,3,500,0.999104917049408,-0.0336689874529838,0.004127534572035,-0.0252740215510129,0.12548828125,0.97021484375,0.13232421875,0.6177204847335815,0.7851729393005371,-2.3019899231258026e-07,0.5840508937835693,0.7211190462112427,-0.0005476792575791,0.5709053874015808,0.6376110315322876,0.0003562585625331,0.5611993670463562,0.5725125670433044,-0.0045186029747128,0.5756175518035889,0.5255540609359741,-0.0084534045308828,0.6255401968955994,0.5990384817123413,0.0340298600494861,0.6334401965141296,0.5402270555496216,0.0211356785148382,0.6219854950904846,0.5148289799690247,0.0062005915679037,0.6106933355331421,0.5102158784866333,-0.0026328319218009,0.6504409909248352,0.6020181775093079,0.024529680609703,0.6657574772834778,0.5271874666213989,0.0084382332861423,0.6455069780349731,0.5042890906333923,-0.0087601719424128,0.6196587085723877,0.5119090676307678,-0.0164246391505002,0.6748834252357483,0.6132398247718811,0.0108480658382177,0.69609534740448,0.5323499441146851,-0.0050970558077096,0.6696817278862,0.5090944170951843,-0.0165206044912338,0.6401069164276123,0.5163031816482544,-0.019350316375494,0.6949712038040161,0.6308547258377075,-0.003574346890673,0.6906822323799133,0.5653212666511536,-0.0171101093292236,0.6658749580383301,0.5349258184432983,-0.0246713999658823,0.6404997110366821,0.5263411402702332,-0.026541993021965
2023-08-01 16:25:05.329292,4,501,0.9980685114860536,-0.0438545867800712,0.0135654583573341,-0.0418565720319747,0.03857421875,0.9609375,0.1240234375,0.6135510206222534,0.771950364112854,-2.402507277565747e-07,0.5819865465164185,0.7074011564254761,1.7533298887428828e-05,0.5689043402671814,0.6226074695587158,0.0012450142530724,0.5606406927108765,0.559118926525116,-0.0030521471053361,0.5709720849990845,0.5081304907798767,-0.005808612331748,0.6306718587875366,0.5807571411132812,0.0341834425926208,0.6383532881736755,0.5184854865074158,0.0217343214899301,0.622680127620697,0.4944421052932739,0.006955771241337,0.6062949299812317,0.4915130138397217,-0.0015794123755767,0.6545149683952332,0.5843935608863831,0.0245465543121099,0.6684239506721497,0.5083375573158264,0.0103554120287299,0.6443755030632019,0.4844480156898498,-0.0056037749163806,0.6150609850883484,0.4900058805942535,-0.0130190839990973,0.6768120527267456,0.5970984101295471,0.0105925304815173,0.6999592185020447,0.5154989957809448,-0.0036985264159739,0.672480583190918,0.4910217523574829,-0.0140666775405406,0.6407104134559631,0.4954582452774048,-0.0168607123196125,0.6939134001731873,0.6172349452972412,-0.0041497037746012,0.6928938627243042,0.550676167011261,-0.0169801991432905,0.6688972115516663,0.518722653388977,-0.0239032357931137,0.6427373886108398,0.5072638392448425,-0.0255352798849344
2023-08-01 16:25:05.399347,5,502,0.9966033697128296,-0.0564422868192195,0.0164520535618066,-0.0576657615602016,-0.04541015625,0.97412109375,0.166015625,0.6128579378128052,0.7721672654151917,-2.748229235294275e-07,0.5799067616462708,0.701826274394989,0.0020860463846474,0.5678579211235046,0.6160993576049805,0.0042717768810689,0.5595664381980896,0.549358069896698,-5.583281108556548e-06,0.5707653164863586,0.4988073408603668,-0.0032740198075771,0.6287574172019958,0.5756152272224426,0.0386574193835258,0.6370847225189209,0.5125754475593567,0.0263942908495664,0.6225014328956604,0.486277312040329,0.0112943835556507,0.6070008873939514,0.4818741679191589,0.0023105663713067,0.6539990901947021,0.5800816416740417,0.0274026878178119,0.6689174771308899,0.5024909377098083,0.0134081346914172,0.647383987903595,0.4759964346885681,-0.0035818638280034,0.6190391778945923,0.4791871905326843,-0.0120080541819334,0.678191065788269,0.5942263603210449,0.0117362523451447,0.7023544311523438,0.5094746947288513,-0.0036342202220112,0.6752825379371643,0.4819252490997314,-0.0152462106198072,0.6428616046905518,0.4848453104496002,-0.0189262777566909,0.6969964504241943,0.614780843257904,-0.0045304773375391,0.6908420920372009,0.5449109673500061,-0.0190361142158508,0.6645592451095581,0.5126283168792725,-0.0272077843546867,0.6374858021736145,0.501228392124176,-0.0296820160001516
2023-08-01 16:25:05.461423,6,503,0.9949435591697692,-0.068642072379589,0.0191254764795303,-0.0707794651389122,-0.1240234375,0.90966796875,0.2861328125,0.613254725933075,0.7664510011672974,-2.816127846472227e-07,0.5804197788238525,0.6966161727905273,0.0019731980282813,0.5684053897857666,0.6107240319252014,0.0039501809515058,0.5601094365119934,0.5445892810821533,-0.0004561198002193,0.5705642104148865,0.4944551587104797,-0.0037023581098765,0.6321852803230286,0.5649862289428711,0.036912951618433,0.6414490342140198,0.5000813007354736,0.0232815816998481,0.6250430941581726,0.4747754633426666,0.0075984778814017,0.6093246340751648,0.4744167923927307,-0.0013097914634272,0.6571350693702698,0.570376992225647,0.0254728607833385,0.6749290227890015,0.491362988948822,0.0111571392044425,0.6517889499664307,0.4670100808143616,-0.0049261818639934,0.6236354112625122,0.473834216594696,-0.012506429105997,0.6809442043304443,0.5852116346359253,0.0094943605363368,0.7057151198387146,0.498871386051178,-0.0053152870386838,0.675557553768158,0.4714548885822296,-0.015997951850295,0.6425809860229492,0.4754049777984619,-0.0192631334066391,0.699114978313446,0.6069616675376892,-0.007213968783617,0.6920669078826904,0.5353879928588867,-0.0207502413541078,0.6627453565597534,0.505016565322876,-0.0280219800770282,0.6344225406646729,0.4961455464363098,-0.0300449822098016
2023-08-01 16:25:05.516280,7,504,0.9935933947563172,-0.078800044953823,0.0117253363132476,-0.0801567286252975,-0.126953125,0.96142578125,0.32666015625,0.6156818866729736,0.7512234449386597,-2.5569832473593124e-07,0.5802163481712341,0.6828702092170715,-0.001605499186553,0.5666860342025757,0.5843446850776672,-0.0003854398382827,0.5594215989112854,0.5112113952636719,-0.004583231639117,0.5698180198669434,0.4537110328674316,-0.0073057143017649,0.6345008015632629,0.5384654402732849,0.0337407849729061,0.644892692565918,0.4685873985290527,0.0197476428002119,0.6294139623641968,0.4399721324443817,0.0031990034040063,0.6108604073524475,0.4348345994949341,-0.0064954375848174,0.6632460355758667,0.5446639060974121,0.023945290595293,0.679151713848114,0.4601839482784271,0.0076780351810157,0.6548061966896057,0.4314149618148803,-0.010932601056993,0.6229031682014465,0.4345141947269439,-0.0197666324675083,0.6891170144081116,0.5616827607154846,0.0096188019961118,0.7152450680732727,0.4690579771995544,-0.007157783024013,0.6866532564163208,0.439744234085083,-0.0197459235787391,0.652060329914093,0.4421363770961761,-0.0235596615821123,0.7087816596031189,0.5876349210739136,-0.0054815155453979,0.7061955332756042,0.5108414888381958,-0.0221263822168111,0.6802831292152405,0.4723460376262665,-0.0315983518958091,0.6521242260932922,0.456423282623291,-0.0343861766159534
2023-08-01 16:25:05.574286,8,505,0.9921533465385436,-0.0869298353791236,0.0100374706089496,-0.0892982184886932,-0.1005859375,0.94921875,0.3095703125,0.6173837780952454,0.7532596588134766,-2.98402056841951e-07,0.5808358192443848,0.6771669387817383,0.0018185256049036,0.5674715042114258,0.5776790976524353,0.0055671399459242,0.5596670508384705,0.5029554963111877,0.0023259364534169,0.568855881690979,0.44234299659729,0.0004788605147041,0.6362781524658203,0.5312327146530151,0.0454312041401863,0.6426559686660767,0.4611048698425293,0.034140583127737,0.6276455521583557,0.4312640726566314,0.0184147283434867,0.6110955476760864,0.4239718019962311,0.0087658427655696,0.665648341178894,0.5361741781234741,0.0330824293196201,0.6805918216705322,0.4523185789585113,0.0200968664139509,0.6561074256896973,0.4219949841499328,0.0024342446122318,0.6237550377845764,0.4233368039131164,-0.0065186056308448,0.6924927830696106,0.552020251750946,0.0155988233163952,0.7196028232574463,0.4571492969989776,-0.0002916632511187,0.6894592642784119,0.4255655407905578,-0.0120652811601758,0.6535063982009888,0.4281499683856964,-0.0155945364385843,0.7127299904823303,0.574917197227478,-0.0026918677613139,0.7057132720947266,0.4945898354053497,-0.0190044995397329,0.6740237474441528,0.4598017334938049,-0.0271823145449161,0.6419386267662048,0.4496809542179107,-0.0291507467627525
2023-08-01 16:25:05.643676,9,506,0.9900929927825928,-0.0960605591535568,0.0094253113493323,-0.1019779294729232,-0.080078125,0.91796875,0.3212890625,0.6171069741249084,0.7541875839233398,-3.178662382197217e-07,0.5804684162139893,0.6749644875526428,0.001898081973195,0.5664657950401306,0.5727638006210327,0.0055165686644613,0.5587700009346008,0.4961215555667877,0.0019747263286262,0.5656845569610596,0.4334431886672973,-0.0005110763595439,0.6334254145622253,0.5256991982460022,0.0448189117014408,0.640390157699585,0.4548057615756988,0.0324285253882408,0.6266872882843018,0.4223836660385132,0.0157307833433151,0.6109384298324585,0.4130495190620422,0.0055724028497934,0.6638666987419128,0.5312419533729553,0.0320079997181892,0.6809476017951965,0.4458162784576416,0.0166388843208551,0.6550856232643127,0.415254682302475,-0.0023338461760431,0.6208566427230835,0.4181689023971557,-0.0115110464394092,0.6921083331108093,0.547135591506958,0.0141418911516666,0.7202708721160889,0.4513847827911377,-0.0028437220025807,0.6889187097549438,0.4180681705474853,-0.0150820594280958,0.65190190076828,0.420509934425354,-0.0185330659151077,0.714068591594696,0.5696073174476624,-0.0045314482413232,0.7073931097984314,0.4871611893177032,-0.0204523261636495,0.6761674880981445,0.4499211609363556,-0.0282071735709905,0.6447641253471375,0.4381345212459564,-0.029805302619934
2023-08-01 16:25:05.721223,10,507,0.9869757890701294,-0.108939915895462,0.0078747570514678,-0.1181054562330246,-0.08740234375,0.88818359375,0.376953125,0.6167755722999573,0.7500483989715576,-3.180702208283037e-07,0.579592227935791,0.6726120710372925,0.0012885244796052,0.5640944242477417,0.5657365322113037,0.0054333312436938,0.5558696985244751,0.4862962365150451,0.002390269190073,0.5680634379386902,0.4240579307079315,0.0008707417291589,0.6343948245048523,0.5152368545532227,0.0472982451319694,0.6425840854644775,0.4458005428314209,0.0351717956364154,0.6263967752456665,0.4135339856147766,0.0187033265829086,0.6074215769767761,0.4034465253353119,0.008958083577454,0.6640790700912476,0.5202922821044922,0.0350430868566036,0.6817225217819214,0.4350655674934387,0.0209076050668954,0.6558561325073242,0.4039776027202606,0.0029497172217816,0.6215792298316956,0.405087798833847,-0.005393476691097,0.6922585964202881,0.535652756690979,0.0173209235072135,0.7195079326629639,0.4414152801036834,0.0009575842414051,0.6888299584388733,0.40873783826828,-0.0107112983241677,0.6525139808654785,0.41093510389328,-0.0134279420599341,0.7147244215011597,0.5581287741661072,-0.001354003092274,0.7103049159049988,0.475351333618164,-0.0161811709403991,0.6794368028640747,0.4385793209075928,-0.0230761207640171,0.6475315690040588,0.4275957345962524,-0.0239746551960706
2023-08-01 16:25:05.797378,11,508,0.9836829304695128,-0.1196244433522224,0.0097996685653924,-0.1340218484401703,-0.14990234375,0.896484375,0.357421875,0.6169461011886597,0.7286580204963684,-2.527257265683147e-07,0.5759121179580688,0.6485775709152222,0.0001431631390005,0.5606834292411804,0.5343908667564392,0.0054701333865523,0.5540559887886047,0.4470550417900085,0.0036235698498785,0.5654598474502563,0.3787793815135956,0.0036933226510882,0.6342283487319946,0.4876296520233154,0.0524021536111831,0.647182822227478,0.4113376140594482,0.0427293293178081,0.6319316029548645,0.3763408064842224,0.0263438634574413,0.6101789474487305,0.3653917908668518,0.015850568190217,0.6670696139335632,0.4926896095275879,0.041061483323574,0.6821775436401367,0.4022881388664245,0.0279832668602466,0.6574721932411194,0.3630367517471313,0.0072338026948273,0.6207200884819031,0.3594899773597717,-0.0038744080811738,0.6968315839767456,0.5082656145095825,0.0238230004906654,0.7240258455276489,0.4074110090732574,0.007332906126976,0.6953959465026855,0.3710746467113495,-0.0084620956331491,0.6565301418304443,0.3724260330200195,-0.0143098523840308,0.7224327325820923,0.5296609997749329,0.0055759148672223,0.7227013111114502,0.4427244961261749,-0.0118127595633268,0.6926988959312439,0.3983317017555237,-0.0232069715857505,0.6570619940757751,0.3826028108596802,-0.0274795088917017
2023-08-01 16:25:05.867273,12,509,0.9797134399414062,-0.1309712529182434,0.0105334185063838,-0.1513183861970901,-0.17822265625,0.88623046875,0.3349609375,0.6183686256408691,0.7297737002372742,-2.935498173428641e-07,0.5760766863822937,0.6488403677940369,-0.0028044970240443,0.5613572597503662,0.528559148311615,0.0003550764522515,0.5539725422859192,0.4389146864414215,-0.0030315483454614,0.5677711367607117,0.3701083660125732,-0.0043464233167469,0.6372913718223572,0.4745038449764251,0.0478705987334251,0.6465050578117371,0.3976131677627563,0.035144567489624,0.6325895190238953,0.3615368604660034,0.0169555973261594,0.613667368888855,0.3508919477462768,0.0059522315859794,0.6716859936714172,0.481209248304367,0.0367446541786193,0.6919293999671936,0.39174485206604,0.0214629136025905,0.6669994592666626,0.3549273014068603,0.0004951474256813,0.6285538673400879,0.3563828468322754,-0.0096591049805283,0.7031520009040833,0.4995689988136291,0.019653970375657,0.7359800338745117,0.4009153246879577,0.0024047088809311,0.7076231837272644,0.360434889793396,-0.0110067697241902,0.6683149337768555,0.3606704473495483,-0.0146139888092875,0.7279306054115295,0.5262376070022583,0.001189096015878,0.7277511358261108,0.4379951953887939,-0.0160108879208564,0.6986705660820007,0.3913101553916931,-0.0247143544256687,0.6645775437355042,0.3738665282726288,-0.0262923631817102
2023-08-01 16:25:05.932998,13,510,0.9747427701950072,-0.1424940973520279,0.0136090070009231,-0.1714258193969726,-0.31201171875,0.818359375,0.4345703125,0.626848042011261,0.7138868570327759,-1.7488225978468108e-07,0.5811759233474731,0.630959153175354,-0.0114284278824925,0.5660956501960754,0.5034951567649841,-0.0127160707488656,0.5599910020828247,0.403349757194519,-0.0190677531063556,0.5772068500518799,0.3261550068855285,-0.0229415465146303,0.6435086727142334,0.4454632699489593,0.0395892411470413,0.6583861708641052,0.3595471382141113,0.0216752905398607,0.6449256539344788,0.3196541666984558,0.0007189362659119,0.6273308396339417,0.3099997043609619,-0.0115880463272333,0.6839179992675781,0.4513795375823974,0.0310130901634693,0.7118789553642273,0.3492219448089599,0.0096466690301895,0.6855272054672241,0.3025299906730652,-0.0142384627833962,0.6434009671211243,0.3013439178466797,-0.024895129725337,0.7199203968048096,0.4717495441436767,0.0155460145324468,0.7571914196014404,0.3606530427932739,-0.0076787914149463,0.7244411110877991,0.3149532675743103,-0.0255647934973239,0.6798149943351746,0.312967300415039,-0.0307665895670652,0.7491186857223511,0.5029042959213257,-0.0016401906032115,0.7488723993301392,0.4073576033115387,-0.0247861687093973,0.7175567746162415,0.3578605055809021,-0.038045734167099,0.6797432899475098,0.3398737907409668,-0.0418712422251701
2023-08-01 16:25:05.989176,14,511,0.970845639705658,-0.1528870910406112,0.0094531578943133,-0.1843769997358322,-0.3369140625,0.822265625,0.45166015625,0.6312940716743469,0.7241548299789429,-2.852107456874365e-07,0.5854871273040771,0.6344778537750244,-0.0093988748267292,0.5686793923377991,0.5013421773910522,-0.0103702871128916,0.5603122115135193,0.3990210890769958,-0.0177535098046064,0.582012414932251,0.3216029405593872,-0.0224613565951585,0.6527888774871826,0.4387682378292084,0.0453073717653751,0.6661600470542908,0.353167176246643,0.0253205001354217,0.6504940390586853,0.3090545535087585,0.0018315975321456,0.6289209723472595,0.2933489084243774,-0.0121293803676962,0.6918821930885315,0.442679226398468,0.0348601229488849,0.7190648317337036,0.3381452560424804,0.0125507144257426,0.6900174021720886,0.294189453125,-0.0113528668880462,0.6451183557510376,0.2933564782142639,-0.0216497145593166,0.7273386716842651,0.4614134430885315,0.0172000881284475,0.7650795578956604,0.3485621809959411,-0.0047269370406866,0.7319830656051636,0.3018631935119629,-0.0184808336198329,0.6863231062889099,0.2995525300502777,-0.0206313300877809,0.7554081082344055,0.4930345118045807,-0.002755326218903,0.7603941559791565,0.3947649598121643,-0.0221666432917118,0.7310072779655457,0.3419728875160217,-0.0311061199754476,0.6939310431480408,0.3217586278915405,-0.0318044573068618
2023-08-01 16:25:06.060060,15,512,0.9657845497131348,-0.1649772524833679,0.0082465140148997,-0.1999368667602539,-0.31787109375,0.79541015625,0.49951171875,0.6361855268478394,0.7358756065368652,-2.637687259721133e-07,0.588063657283783,0.6396071910858154,-0.0083499737083911,0.5726686716079712,0.49918994307518,-0.0080850049853324,0.5645771026611328,0.3934501409530639,-0.0149817848578095,0.5844625234603882,0.3122096657752991,-0.0189909301698207,0.6567036509513855,0.4336128830909729,0.0500416196882724,0.6737528443336487,0.3427768051624298,0.029288588091731,0.659049391746521,0.2967650294303894,0.0052210269495844,0.6382014751434326,0.283531129360199,-0.0087457066401839,0.697843611240387,0.4396844208240509,0.0380743779242038,0.7308262586593628,0.3281728029251098,0.0131080029532313,0.7026843428611755,0.2816653847694397,-0.0127102471888065,0.6574222445487976,0.2867303192615509,-0.0232478361576795,0.7341616749763489,0.4610834121704101,0.0184810906648635,0.7765607833862305,0.3420281708240509,-0.0047287447378039,0.7438008189201355,0.2918104827404022,-0.0199068374931812,0.6973248720169067,0.2933108508586883,-0.0224500782787799,0.7629337310791016,0.4941572248935699,-0.0035158831160515,0.7692650556564331,0.391982227563858,-0.0243833307176828,0.7411721348762512,0.3344264030456543,-0.035188790410757,0.7048124074935913,0.3135813474655151,-0.0368317328393459
2023-08-01 16:25:06.114082,16,513,0.9632813334465028,-0.1701151579618454,0.010807610116899,-0.2074441015720367,-0.341796875,0.8212890625,0.48583984375,0.6491184234619141,0.7352654933929443,-1.727259473227605e-07,0.5965916514396667,0.6306867599487305,-0.0131968529894948,0.5793535709381104,0.485375702381134,-0.0148898204788565,0.572486162185669,0.3699119687080383,-0.0231671463698148,0.5892343521118164,0.2785126566886902,-0.0289529561996459,0.6675729751586914,0.4080844521522522,0.0493542924523353,0.686556339263916,0.3122420907020569,0.0290182530879974,0.6760973930358887,0.2620804905891418,0.002121772384271,0.6548236012458801,0.2378434985876083,-0.0159860271960496,0.7153583765029907,0.4143424034118652,0.0379385203123092,0.7485726475715637,0.2984343767166137,0.0111089069396257,0.7253557443618774,0.2435868382453918,-0.0222670659422874,0.6780572533607483,0.2333664149045944,-0.0402413047850132,0.756523072719574,0.4387470185756683,0.0185262914746999,0.8051798343658447,0.3138795495033264,-0.0087097585201263,0.7767446041107178,0.2615271210670471,-0.0340513251721859,0.7252627015113831,0.2567474842071533,-0.04489266872406,0.7900682091712952,0.4783169329166412,-0.0032981415279209,0.8004380464553833,0.3728373646736145,-0.0301342848688364,0.7715550661087036,0.3092684149742126,-0.0489554218947887,0.7270010709762573,0.2803480625152588,-0.0575204193592071
2023-08-01 16:25:06.175359,17,514,0.9598209261894226,-0.1794125437736511,0.0092923063784837,-0.2155656218528747,-0.34326171875,0.783203125,0.50390625,0.6551247239112854,0.7479998469352722,-2.167580674949932e-07,0.5987484455108643,0.6419851779937744,-0.0133117316290736,0.5791521668434143,0.4824448525905609,-0.014901683665812,0.570522129535675,0.359954297542572,-0.0235839206725358,0.5976990461349487,0.2715908586978912,-0.029002720490098,0.6758221983909607,0.399242490530014,0.0529955998063087,0.6949092745780945,0.3029972910881042,0.0289531033486127,0.6836695075035095,0.2508887350559234,-0.0001924661337397,0.6615661382675171,0.2304625958204269,-0.0182159673422575,0.7247670292854309,0.404848575592041,0.0410405248403549,0.7615857124328613,0.2837239801883697,0.0121898744255304,0.737271785736084,0.2279700189828872,-0.0195535067468881,0.6880053281784058,0.2262634038925171,-0.0339141152799129,0.7671785354614258,0.4301620125770569,0.0203675292432308,0.813066840171814,0.3020537495613098,-0.007002186961472,0.7831457257270813,0.2478499561548233,-0.0271814875304698,0.7324759364128113,0.2470641881227493,-0.032253585755825,0.8011212348937988,0.4718667268753052,-0.0031946573872119,0.8102759122848511,0.3615450859069824,-0.0280388295650482,0.7810012102127075,0.2961510121822357,-0.0423684231936931,0.7390439510345459,0.2681932747364044,-0.045800395309925
2023-08-01 16:25:06.244615,18,515,0.9571359753608704,-0.1850764751434326,0.0107171321287751,-0.2225366830825805,-0.3935546875,0.74365234375,0.513671875,0.6485550999641418,0.7649716138839722,-2.758669097602251e-07,0.5967119336128235,0.6444277763366699,-0.0108679682016372,0.5799320340156555,0.48305743932724,-0.0119635527953505,0.5742197036743164,0.357501208782196,-0.0214093904942274,0.5977064371109009,0.2608793675899505,-0.0280067101120948,0.6735758185386658,0.4046255350112915,0.0616000555455684,0.6943082213401794,0.3031288385391235,0.0371635481715202,0.6817525625228882,0.2495168596506118,0.0057898014783859,0.6571036577224731,0.2261247932910919,-0.0141948703676462,0.7233566641807556,0.4126648306846618,0.0478376373648643,0.7584350109100342,0.2875776886940002,0.0162177253514528,0.7344158291816711,0.2321324497461319,-0.0216910969465971,0.6835837364196777,0.2278201580047607,-0.0407258197665214,0.7681397199630737,0.4389064311981201,0.02523042447865,0.8149951100349426,0.3044017255306244,-0.0051781428046524,0.7858295440673828,0.2462010532617569,-0.031144019216299,0.7317387461662292,0.2421005368232727,-0.0403727106750011,0.806037187576294,0.4812028110027313,0.0001802061888156,0.8135635852813721,0.3658843636512756,-0.0267252102494239,0.7858134508132935,0.2978607416152954,-0.0442373156547546,0.7431515455245972,0.2669417858123779,-0.0504631884396076
2023-08-01 16:25:06.304637,19,516,0.9562470316886902,-0.1882074624300003,0.0120903067290782,-0.2236591428518295,-0.4140625,0.76171875,0.517578125,0.6556626558303833,0.7714161276817322,-2.0290222835228638e-07,0.6004658341407776,0.6487138867378235,-0.0128127178177237,0.5801175832748413,0.4816914200782776,-0.0151169290766119,0.5713931918144226,0.3509690463542938,-0.0261244382709264,0.5987680554389954,0.2557964622974396,-0.0335788019001483,0.6761777997016907,0.398948073387146,0.0643016993999481,0.6952557563781738,0.2990295886993408,0.0392657369375228,0.6868773102760315,0.2456158548593521,0.0068160751834511,0.6660972237586975,0.225080519914627,-0.0136026935651898,0.7278640270233154,0.4057464599609375,0.0514260381460189,0.7618897557258606,0.2797976732254028,0.0193333886563777,0.7382957339286804,0.2239543199539184,-0.0184934977442026,0.6875991225242615,0.2290201336145401,-0.0365065410733222,0.772940993309021,0.4322904348373413,0.0292505342513322,0.8188263177871704,0.2970738410949707,0.0013441158225759,0.7918270826339722,0.2400895655155182,-0.02065852843225,0.7408239841461182,0.2438587248325348,-0.0266577694565057,0.8103755712509155,0.4769409298896789,0.0038835993036627,0.8208863139152527,0.3614085912704468,-0.0200958531349897,0.796201229095459,0.2912333011627197,-0.0346718020737171,0.7566545009613037,0.2627378106117248,-0.0381013751029968
2023-08-01 16:25:06.370058,20,517,0.955989956855774,-0.1892839819192886,0.0127127217128872,-0.2238147407770156,-0.38427734375,0.77099609375,0.521484375,0.6574921607971191,0.7885995507240295,-2.3664014747737386e-07,0.602476179599762,0.672633945941925,-0.0166737381368875,0.5838561058044434,0.4935851693153381,-0.0186018478125333,0.5789749026298523,0.3554940819740295,-0.0278443880379199,0.6018543243408203,0.2506755590438843,-0.0334353968501091,0.6831857562065125,0.3989278078079223,0.0560111552476882,0.7048261761665344,0.2990017235279083,0.0310014057904481,0.6988076567649841,0.2449647188186645,-0.0008582925074733,0.6798814535140991,0.2191507220268249,-0.0222156271338462,0.7388980388641357,0.4071189761161804,0.0438241511583328,0.7759688496589661,0.2781602740287781,0.0105508277192711,0.7535614967346191,0.2209592014551162,-0.027337472885847,0.7009228467941284,0.2221763879060745,-0.0463074781000614,0.7859476208686829,0.4364853203296661,0.0222717728465795,0.838921308517456,0.2973494529724121,-0.0094255153089761,0.8106174468994141,0.2364412993192672,-0.0336593724787235,0.753600537776947,0.2344064116477966,-0.0416449792683124,0.8241152167320251,0.4850707948207855,-0.0025572073645889,0.8387473225593567,0.367588460445404,-0.0325695276260376,0.8126856684684753,0.2932901978492737,-0.0516427047550678,0.7669239044189453,0.2595772743225097,-0.0585080459713935
2023-08-01 16:25:06.431858,21,518,0.956247866153717,-0.1894622892141342,0.0121012637391686,-0.2225928902626037,-0.3291015625,0.79150390625,0.5,0.6582745909690857,0.7996116876602173,-2.2770699104057715e-07,0.6006284952163696,0.670613169670105,-0.0156509559601545,0.5800336599349976,0.4938875436782837,-0.0197305791079998,0.5732203125953674,0.3557411134243011,-0.0321312583982944,0.6049586534500122,0.2560929656028747,-0.041149690747261,0.6785602569580078,0.4021936655044555,0.0597861409187316,0.7026883363723755,0.2968657314777374,0.0309815052896738,0.6968096494674683,0.2406206876039505,-0.00410823430866,0.6780446171760559,0.2198498696088791,-0.0261536240577697,0.7360122799873352,0.4137972593307495,0.0461674630641937,0.7778816819190979,0.2802299261093139,0.0093590356409549,0.7537792325019836,0.2217228561639785,-0.0321101918816566,0.6999431252479553,0.2255945354700088,-0.0523234345018863,0.7850484848022461,0.4450975954532623,0.0229891389608383,0.8430584669113159,0.3004623651504516,-0.0107113188132643,0.8129663467407227,0.2384588718414306,-0.0371530875563621,0.7560281157493591,0.239525631070137,-0.0456448085606098,0.8244606256484985,0.493572473526001,-0.0031720800325274,0.8348647952079773,0.3698011040687561,-0.0330321639776229,0.8044607639312744,0.2969618439674377,-0.0512827113270759,0.7581184506416321,0.266915887594223,-0.0568984448909759
2023-08-01 16:25:06.492319,22,519,0.9562855362892152,-0.1896708011627197,0.0122799314558506,-0.2222435921430587,-0.34423828125,0.79443359375,0.50439453125,0.6543766856193542,0.8043148517608643,-2.3847601937632135e-07,0.5985544323921204,0.6715527772903442,-0.0178824644535779,0.5773165225982666,0.4962608516216278,-0.0240384098142385,0.5725474953651428,0.3565318882465362,-0.0383007563650608,0.6031630635261536,0.2468588799238205,-0.0489131957292556,0.6773257255554199,0.402892529964447,0.0591227300465106,0.7033515572547913,0.2963340282440185,0.0286918599158525,0.6934937238693237,0.2422024607658386,-0.0073439395055174,0.6711122989654541,0.2226955145597458,-0.0297025330364704,0.7345897555351257,0.4143885374069214,0.0460114851593971,0.7774378657341003,0.2782225012779236,0.0093252519145607,0.7496808767318726,0.2225560396909713,-0.0314490757882595,0.6943584680557251,0.2278106212615966,-0.0515021756291389,0.7830438017845154,0.4451426863670349,0.0227457210421562,0.8434532284736633,0.2973293960094452,-0.0117596788331866,0.8102812767028809,0.236659288406372,-0.0382930897176265,0.7518347501754761,0.2398974001407623,-0.0468958169221878,0.8223261833190918,0.493938684463501,-0.0037234146147966,0.8349505662918091,0.3690101206302643,-0.0340704843401908,0.8026803731918335,0.2970622777938843,-0.0525425337255001,0.7540559768676758,0.2693267464637756,-0.0584155991673469
2023-08-01 16:25:06.556914,23,520,0.9562294483184814,-0.1893095970153808,0.0126070259138941,-0.2227735966444015,-0.37548828125,0.7919921875,0.51513671875,0.652334988117218,0.8115277290344238,-2.2595472159991917e-07,0.5967852473258972,0.6763745546340942,-0.0177144780755043,0.5760723948478699,0.4995635151863098,-0.0236001033335924,0.5703703761100769,0.3588508665561676,-0.0379589088261127,0.5988643169403076,0.2486410290002823,-0.0484624430537223,0.6750978827476501,0.4033674001693725,0.0594752207398414,0.6995663046836853,0.2947666049003601,0.0281110554933547,0.6926693320274353,0.2390626072883606,-0.0088609540835022,0.6732462644577026,0.2205219566822052,-0.0316837728023529,0.7334184646606445,0.4161505699157715,0.0460350848734378,0.7739098072052002,0.2784604132175445,0.0067485701292753,0.7482685446739197,0.2231687754392624,-0.0368527509272098,0.6947264075279236,0.2327223569154739,-0.0583980344235897,0.7824205160140991,0.4478259682655334,0.0225990917533636,0.8398434519767761,0.3007074296474457,-0.0119752325117588,0.8076894283294678,0.2416146099567413,-0.0388978980481624,0.7501931190490723,0.2480440139770507,-0.0477649420499801,0.821986734867096,0.4974034428596496,-0.0042115850374102,0.8338834643363953,0.3734815120697021,-0.0329975187778472,0.8046652674674988,0.2996865510940552,-0.0512111224234104,0.7589630484580994,0.2707639336585998,-0.057078517973423
2023-08-01 16:25:06.620948,24,521,0.9567523002624512,-0.1887359470129013,0.0111829107627272,-0.2210854440927505,-0.33349609375,0.8017578125,0.501953125,0.6501911282539368,0.808220386505127,-1.728155325508851e-07,0.595808744430542,0.6747557520866394,-0.0185215547680854,0.5736116766929626,0.4990363717079162,-0.0240522008389234,0.5668836236000061,0.3599149286746979,-0.0377732291817665,0.5981457233428955,0.2544786036014557,-0.0476070381700992,0.6700770854949951,0.4002211689949035,0.0581824220716953,0.6920895576477051,0.2949393689632416,0.0290522146970033,0.6888460516929626,0.2391941398382187,-0.0056701702997088,0.6753705739974976,0.2168163359165191,-0.0275593660771846,0.7289159297943115,0.409701943397522,0.0459311567246913,0.7667545676231384,0.2722432017326355,0.0097618866711854,0.7445530891418457,0.2169773280620575,-0.029996121302247,0.6970005035400391,0.2245072424411773,-0.0494069680571556,0.7780750393867493,0.440308004617691,0.0236909948289394,0.8345240354537964,0.2935604453086853,-0.0100237354636192,0.8028674125671387,0.2387430071830749,-0.0343600995838642,0.7474507093429565,0.2487521767616272,-0.0413044355809688,0.8172115087509155,0.4899888038635254,-0.0020263944752514,0.8310142755508423,0.3676960468292236,-0.0306306071579456,0.8005979061126709,0.2972332239151001,-0.0474027283489704,0.754004716873169,0.2720573544502258,-0.051958218216896
2023-08-01 16:25:06.678791,25,522,0.9581030607223512,-0.1860412508249282,0.0103854332119226,-0.2175298929214477,-0.3876953125,0.814453125,0.517578125,0.6478257775306702,0.8116210103034973,-2.900893321111653e-07,0.5934797525405884,0.6787903904914856,-0.015297750942409,0.5745617151260376,0.5022873878479004,-0.0199631433933973,0.5684451460838318,0.3674164116382599,-0.0329447612166404,0.5951378345489502,0.2629688382148742,-0.042531818151474,0.6751819252967834,0.4052408337593078,0.0551253445446491,0.7005595564842224,0.2951617240905761,0.0235538985580205,0.69220370054245,0.2399684935808181,-0.0131830563768744,0.6705142259597778,0.2225753217935562,-0.0356636568903923,0.7330029010772705,0.4201264083385467,0.0401075109839439,0.779416024684906,0.2822102308273315,-0.0002852063043974,0.752100944519043,0.2307752221822738,-0.0429648086428642,0.6957881450653076,0.244023710489273,-0.0632068067789077,0.7814233899116516,0.4533353745937347,0.0157499611377716,0.8416433334350586,0.3049204349517822,-0.0190565343946218,0.8072675466537476,0.2447916567325592,-0.0454152785241603,0.7482028007507324,0.2495345324277877,-0.054094199091196,0.8191367387771606,0.5039715766906738,-0.0116506684571504,0.8296521902084351,0.380132794380188,-0.0406167060136795,0.7973970770835876,0.3086901307106018,-0.0581190064549446,0.7508724331855774,0.2801482081413269,-0.0636632665991783
2023-08-01 16:25:06.739034,26,523,0.9599425792694092,-0.1823569685220718,0.0087395580485463,-0.2125554531812667,-0.3369140625,0.7890625,0.5126953125,0.6491344571113586,0.8154298663139343,-2.831928611612966e-07,0.5956307649612427,0.6823428869247437,-0.0140940239652991,0.5765918493270874,0.5072851777076721,-0.0182087216526269,0.5693917274475098,0.3728628158569336,-0.0310447104275226,0.5986157059669495,0.2738651633262634,-0.0404166206717491,0.6746406555175781,0.409314215183258,0.0553969405591487,0.6992969512939453,0.3005995452404022,0.0244662091135978,0.6916636824607849,0.2457629144191742,-0.0110476873815059,0.672616183757782,0.2276078164577484,-0.0325245186686515,0.7308268547058105,0.4216806292533874,0.0406032763421535,0.775115966796875,0.2825381755828857,0.0011786631075665,0.7474632263183594,0.2312839478254318,-0.0392269156873226,0.6939329504966736,0.243754431605339,-0.0576117187738418,0.7786682844161987,0.4533669948577881,0.0166524052619934,0.8384170532226562,0.3053014278411865,-0.0168719310313463,0.8030374646186829,0.2515379786491394,-0.0411964990198612,0.7456233501434326,0.2611629366874695,-0.0481041818857193,0.815976619720459,0.5029621720314026,-0.0103763071820139,0.8279298543930054,0.3798940777778625,-0.036843616515398,0.7953152656555176,0.3107266426086426,-0.0524829551577568,0.7492053508758545,0.2843875885009765,-0.0567045509815216
2023-08-01 16:25:06.798043,27,524,0.9620383381843568,-0.1777042150497436,0.0064414595253765,-0.2070313096046447,-0.3330078125,0.8017578125,0.47216796875,0.6474788784980774,0.8197437524795532,-2.856205583157134e-07,0.5956550240516663,0.6879942417144775,-0.0126650454476475,0.5771289467811584,0.513420581817627,-0.0153703447431325,0.5710004568099976,0.3798522651195526,-0.026692297309637,0.5975345969200134,0.2793766260147095,-0.0349946543574333,0.6739112734794617,0.415011465549469,0.0551762580871582,0.6961357593536377,0.3121438324451446,0.0286569576710462,0.691363513469696,0.256350040435791,-0.0035443122033029,0.6763376593589783,0.2308142781257629,-0.0241735689342021,0.7302389740943909,0.428519606590271,0.0401085242629051,0.77165287733078,0.2935956716537475,0.0034550579730421,0.7455271482467651,0.2438949644565582,-0.0349862053990364,0.6951912641525269,0.253904789686203,-0.0530367940664291,0.7774932384490967,0.4600223898887634,0.0164483971893787,0.8375288844108582,0.3126365542411804,-0.0163872651755809,0.8018251657485962,0.2603696286678314,-0.0396104305982589,0.7452694773674011,0.270139992237091,-0.0462892204523086,0.8140239715576172,0.5085855722427368,-0.0100095113739371,0.8271571397781372,0.3844404816627502,-0.0362660512328147,0.7944662570953369,0.3163012266159057,-0.0510003492236137,0.7485692501068115,0.2918011546134949,-0.0549547784030437
2023-08-01 16:25:06.882363,28,525,0.965821087360382,-0.1676387190818786,0.0039158556610345,-0.1976652890443802,-0.35986328125,0.81298828125,0.4423828125,0.6479759812355042,0.8123704195022583,-2.457615551065828e-07,0.5956711769104004,0.6822323203086853,-0.0137106841430068,0.5777099132537842,0.5101137757301331,-0.0173088405281305,0.5705026388168335,0.3795340657234192,-0.0293449331074953,0.5997443795204163,0.2828095555305481,-0.0382428579032421,0.6735174655914307,0.4133772850036621,0.052360575646162,0.6955823302268982,0.3121662139892578,0.0233515501022338,0.6895627379417419,0.2579529881477356,-0.0093564018607139,0.6741420030593872,0.2350347340106964,-0.0291854701936244,0.7294763326644897,0.4237459003925323,0.0380374118685722,0.7717584371566772,0.2878251671791076,0.0027764295227825,0.7463892102241516,0.2353253066539764,-0.0322015471756458,0.6974896192550659,0.2434271574020385,-0.0474876202642917,0.7762743234634399,0.4549990892410278,0.0147162918001413,0.8357018828392029,0.3094469308853149,-0.0173100344836711,0.8006974458694458,0.2546732425689697,-0.0372275970876216,0.7452443838119507,0.2619220614433288,-0.0410761907696723,0.810989260673523,0.5046023726463318,-0.0116306468844413,0.8249702453613281,0.3822037577629089,-0.0373025424778461,0.7929600477218628,0.3139361143112182,-0.0500120967626571,0.7480095028877258,0.2888496518135071,-0.0518037676811218
2023-08-01 16:25:06.960904,29,526,0.9700599908828736,-0.1565727889537811,0.0025345659814774,-0.185639813542366,-0.3359375,0.796875,0.45703125,0.6488511562347412,0.8194191455841064,-2.66214243538343e-07,0.5941741466522217,0.6893876791000366,-0.0115127377212047,0.5780396461486816,0.5147805213928223,-0.0122253857553005,0.571388304233551,0.38428595662117,-0.021674308925867,0.596261739730835,0.2925989031791687,-0.0279866363853216,0.6710987687110901,0.4216562211513519,0.0562683306634426,0.6947367787361145,0.3216902017593384,0.0290090721100568,0.690446138381958,0.2661757171154022,-0.0033035948872566,0.6752725839614868,0.2460210472345352,-0.0230987165123224,0.7268646359443665,0.4337570071220398,0.0414054132997989,0.7712661027908325,0.3023430109024048,0.0049407444894313,0.7473074197769165,0.2497389614582061,-0.0326503105461597,0.6973610520362854,0.2636644244194031,-0.0493703484535217,0.7733224034309387,0.4637273848056793,0.01789241284132,0.8333964347839355,0.3230264782905578,-0.0122651932761073,0.8016420006752014,0.2639131546020508,-0.0341368429362773,0.747613251209259,0.2708086371421814,-0.0400248281657695,0.8087273240089417,0.5101132392883301,-0.0086575923487544,0.8229957222938538,0.3922747373580932,-0.0320422239601612,0.7954120635986328,0.3222631812095642,-0.0458179078996181,0.7538818120956421,0.2963674962520599,-0.0491309389472007
2023-08-01 16:25:07.031086,30,527,0.9743388295173644,-0.1461014598608017,-0.0023429854772984,-0.1712094694375991,-0.267578125,0.82177734375,0.46435546875,0.6505309343338013,0.8157210946083069,-3.202861194040452e-07,0.60006183385849,0.6843248605728149,-0.0092285415157675,0.5814977884292603,0.522071897983551,-0.0080972295254468,0.5769238471984863,0.3967732787132263,-0.0161343030631542,0.6055206060409546,0.3072237968444824,-0.0211533531546592,0.6691290736198425,0.4356341361999511,0.0667300149798393,0.6927450895309448,0.3435360193252563,0.0448848791420459,0.6878656148910522,0.2965842485427856,0.01511144451797,0.6730446219444275,0.2777436077594757,-0.0032933014445006,0.7192457914352417,0.4434762597084045,0.053507026284933,0.7593787908554077,0.3216804265975952,0.0232419371604919,0.7377896308898926,0.2825443148612976,-0.0109163951128721,0.6930148601531982,0.2987029552459717,-0.0258630830794572,0.7629842758178711,0.4665638208389282,0.0313514843583107,0.8135109543800354,0.3402035534381866,0.0057950220070779,0.7862212061882019,0.2908918261528015,-0.015446781180799,0.7387380599975586,0.2996657788753509,-0.0216344874352216,0.79770827293396,0.5064132213592529,0.0062604923732578,0.8140164017677307,0.3973335325717926,-0.0103160087019205,0.7886345386505127,0.3381281793117523,-0.0204140190035104,0.7502003908157349,0.3203479945659637,-0.022422133013606
2023-08-01 16:25:07.097805,31,528,0.9785805940628052,-0.133657306432724,-0.0041632377542555,-0.1565197259187698,-0.208984375,0.83349609375,0.4306640625,0.6474810242652893,0.7984004020690918,-2.297867212064375e-07,0.6001927852630615,0.6741812229156494,-0.010914746671915,0.5830227136611938,0.5191056132316589,-0.011707697995007,0.5778837203979492,0.401383638381958,-0.02099902741611,0.5962722301483154,0.3125758171081543,-0.0273675844073295,0.6692416071891785,0.4364907145500183,0.0574812367558479,0.6913203001022339,0.3474710881710052,0.0334464199841022,0.6851803064346313,0.3014111816883087,0.0039944555610418,0.6710302829742432,0.2846347391605377,-0.0137559818103909,0.7180466651916504,0.4429631233215332,0.0445656515657901,0.7583035826683044,0.3217028379440307,0.0112481983378529,0.7353577613830566,0.285002052783966,-0.0232623163610696,0.6934462189674377,0.3079048991203308,-0.037786990404129,0.7591903209686279,0.4653079509735107,0.0232873018831014,0.8103253841400146,0.3392543196678161,-0.0042350986041128,0.7800045013427734,0.2944363057613373,-0.0246678870171308,0.733799934387207,0.3100169897079468,-0.0295387804508209,0.7912864089012146,0.5049184560775757,-0.0008684250060468,0.8089618682861328,0.3982511758804321,-0.018474968150258,0.7865133285522461,0.3369404673576355,-0.0289191305637359,0.7527447938919067,0.3178822100162506,-0.0308112148195505
2023-08-01 16:25:07.160540,32,529,0.9817716479301452,-0.1219139099121093,-0.0061913216486573,-0.145681232213974,-0.14990234375,0.8955078125,0.341796875,0.6464458107948303,0.790787935256958,-2.5369834588673257e-07,0.5984375476837158,0.6687766909599304,-0.0107847759500145,0.5823780298233032,0.5195469856262207,-0.0118632512167096,0.5782978534698486,0.4051888585090637,-0.0210454408079385,0.5978330969810486,0.3180016279220581,-0.0273941475898027,0.663705050945282,0.4381293654441833,0.0529634431004524,0.6846522688865662,0.3484730422496795,0.0279197990894317,0.6781623959541321,0.3027271032333374,-0.0016107035335153,0.6645614504814148,0.2860158085823059,-0.019227372482419,0.7121623754501343,0.4443243741989136,0.0403852239251136,0.7496657371520996,0.3246548771858215,0.0084994165226817,0.7268798351287842,0.284969687461853,-0.0245900321751832,0.6854773163795471,0.3004922270774841,-0.0391699448227882,0.7538138628005981,0.4659074544906616,0.0196564737707376,0.8035508394241333,0.3419367671012878,-0.0077731218189001,0.7738004922866821,0.2957679033279419,-0.0281891711056232,0.7278947830200195,0.3068386614322662,-0.0335851199924945,0.7867807149887085,0.5044220685958862,-0.0038104082923382,0.8042253851890564,0.3986054956912994,-0.022273126989603,0.7807593941688538,0.3379904329776764,-0.0329930409789085,0.7449108362197876,0.3179214000701904,-0.0352295115590095
2023-08-01 16:25:07.217081,33,530,0.984398365020752,-0.1115784719586372,-0.0092750247567892,-0.1357353627681732,-0.22265625,0.9443359375,0.3310546875,0.6396279335021973,0.7934255003929138,-2.947055861568515e-07,0.5943255424499512,0.6704850196838379,-0.0063316449522972,0.5775777697563171,0.5279669165611267,-0.0054690684191882,0.5712947845458984,0.4193220734596252,-0.013528099283576,0.5928800106048584,0.3431189060211181,-0.018704256042838,0.6575217247009277,0.4543924331665039,0.0609101951122283,0.6771561503410339,0.3621488809585571,0.0374373756349086,0.6680716276168823,0.3196634650230407,0.0080052530393004,0.6510254144668579,0.3136078715324402,-0.0085367141291499,0.700303316116333,0.4608399569988251,0.0478746592998504,0.7332153916358948,0.3461029529571533,0.0190683789551258,0.7120882272720337,0.3058012127876282,-0.013046147301793,0.6719443202018738,0.3229280114173889,-0.0272813942283391,0.7394548654556274,0.4801453649997711,0.0265318173915147,0.7781342267990112,0.3654611706733703,0.0037270754110068,0.7522008419036865,0.3201861679553985,-0.0159355010837316,0.7104550004005432,0.3332590758800506,-0.0216491725295782,0.773352324962616,0.5138576626777649,0.0024533080868422,0.7903895378112793,0.4130768477916717,-0.0102603370323777,0.7698807716369629,0.3555506765842438,-0.0185189731419086,0.7355886101722717,0.3395767211914062,-0.0198817960917949
2023-08-01 16:25:07.285352,34,531,0.988391935825348,-0.0970774888992309,-0.0136183891445398,-0.1160682216286659,-0.185546875,0.91748046875,0.33056640625,0.6377266645431519,0.7856613397598267,-2.645774088705366e-07,0.5937677621841431,0.6720330715179443,-0.0047769388183951,0.5783379077911377,0.5325606465339661,-0.0020547674503177,0.5738787651062012,0.4288292527198791,-0.0076425089500844,0.585119366645813,0.3484548926353454,-0.0109032075852155,0.6532582640647888,0.4578779935836792,0.0557431206107139,0.6692754626274109,0.3708678483963012,0.0369722172617912,0.6608377695083618,0.3281797468662262,0.0124731184914708,0.645092785358429,0.3123839795589447,-0.002404250903055,0.6954732537269592,0.4629231989383697,0.042467962950468,0.7263408899307251,0.3522440195083618,0.0177678223699331,0.7058741450309753,0.3132258653640747,-0.0105032576248049,0.6672903895378113,0.3237605094909668,-0.0233336202800273,0.7325063943862915,0.4829437136650085,0.0219384431838989,0.7764779925346375,0.3685359358787536,0.0004000067128799,0.7494975924491882,0.3241373300552368,-0.0170575380325317,0.7061998844146729,0.3302559852600097,-0.0222496576607227,0.7635557651519775,0.5178915858268738,-0.0008851529564708,0.7782835960388184,0.4227189421653747,-0.01612039655447,0.7553741931915283,0.3666790127754211,-0.0254033282399177,0.7206692695617676,0.3450811505317688,-0.0276526603847742
2023-08-01 16:25:07.343717,35,532,0.9904768466949464,-0.0887923911213874,-0.0163809433579444,-0.1039380356669426,-0.06201171875,0.93115234375,0.26953125,0.6373014450073242,0.7833118438720703,-2.72732819439625e-07,0.5945909023284912,0.6688697934150696,-0.0022472101263701,0.5798423290252686,0.5341576337814331,0.0004825164796784,0.5746767520904541,0.4340655207633972,-0.0058938660658895,0.5887665748596191,0.3579729199409485,-0.0102665834128856,0.6569169759750366,0.4667591750621795,0.0588586963713169,0.6747446656227112,0.3839496672153473,0.0400639660656452,0.6660562753677368,0.3412434458732605,0.0148574197664856,0.6498388648033142,0.3274153470993042,-0.000560448213946,0.6972497701644897,0.4727542102336883,0.0439067035913467,0.7303153872489929,0.3647996783256531,0.0184202510863542,0.7079370021820068,0.3266063928604126,-0.0108164967969059,0.6674284934997559,0.3403896689414978,-0.0240479465574026,0.7325111627578735,0.4923860132694244,0.0217680856585502,0.7766550779342651,0.3782365918159485,0.0001637681998545,0.7482421398162842,0.3333499729633331,-0.0179160553961992,0.7048179507255554,0.3422999083995819,-0.0234493631869554,0.7611910700798035,0.5251964330673218,-0.0025079844053834,0.7755661010742188,0.4294627010822296,-0.0179394055157899,0.7508856654167175,0.3746864795684814,-0.0275286696851253,0.7152696251869202,0.3572663366794586,-0.0299565382301807
2023-08-01 16:25:07.405070,36,533,0.9929361343383788,-0.0762829929590225,-0.019632052630186,-0.0887325182557106,-0.11572265625,0.91796875,0.29150390625,0.6301531791687012,0.7918369770050049,-4.1820990759333654e-07,0.5866764783859253,0.6743314266204834,0.0058669447898864,0.5737792253494263,0.5521211624145508,0.0142179140821099,0.5703351497650146,0.4587389528751373,0.0116746528074145,0.5866637825965881,0.3908220529556274,0.0112742716446518,0.6490507125854492,0.4940162897109985,0.0758453011512756,0.6626815795898438,0.4115974605083465,0.0627544149756431,0.6471171975135803,0.3789656460285187,0.04022703692317,0.6261579990386963,0.3735692203044891,0.0270856004208326,0.680752158164978,0.495808482170105,0.060727085918188,0.701076090335846,0.3967969119548797,0.0428146757185459,0.6775320172309875,0.3680629134178161,0.0158933643251657,0.6415920257568359,0.3808209300041199,0.0030692855361849,0.7123861908912659,0.5059844255447388,0.0384632460772991,0.737662136554718,0.4074837863445282,0.024342218413949,0.710053026676178,0.3768810629844665,0.0081379236653447,0.6719128489494324,0.3897615671157837,0.0028164242394268,0.7428244948387146,0.5263486504554749,0.0143606457859277,0.752246081829071,0.441365897655487,0.0100001981481909,0.7303170561790466,0.3980478644371032,0.0061744865961372,0.6982336044311523,0.3885038495063782,0.0061988532543182
2023-08-01 16:25:07.474099,37,534,0.9950203895568848,-0.0639891549944877,-0.020822549238801,-0.0735268145799636,-0.05224609375,0.919921875,0.20703125,0.6263172030448914,0.7783362865447998,-2.940204524293222e-07,0.5855647921562195,0.671673059463501,0.0015069841174408,0.5707278847694397,0.5567600131034851,0.0056243077851831,0.5678101181983948,0.4689350724220276,0.0008437927463091,0.5867350697517395,0.407097578048706,-0.0021675208117812,0.6435121893882751,0.4988390505313873,0.060115523636341,0.659239649772644,0.4252713024616241,0.045272372663021,0.6489607095718384,0.3901797533035278,0.0231160763651132,0.6314524412155151,0.3770705163478851,0.0095182610675692,0.6774154901504517,0.5034774541854858,0.0471684858202934,0.7022854685783386,0.4117623567581177,0.026592843234539,0.6844142079353333,0.382880687713623,0.0004516708140727,0.6519402265548706,0.3935115933418274,-0.0119520910084247,0.7081040143966675,0.5169469118118286,0.0278953164815902,0.7378861904144287,0.4245710968971252,0.0117924362421035,0.7148312330245972,0.3881169259548187,-0.0041919411160051,0.6786129474639893,0.3929107189178467,-0.0096814213320612,0.7347312569618225,0.5411630272865295,0.0068550687283277,0.7452577352523804,0.4607983231544494,-0.0013290557544678,0.7255704998970032,0.4128041565418243,-0.0077482205815613,0.6952264904975891,0.3933981955051422,-0.0094420062378048
2023-08-01 16:25:07.530783,38,535,0.9959633946418762,-0.0573977977037429,-0.0234114900231361,-0.0649172142148017,0.05908203125,0.97412109375,0.18603515625,0.6234919428825378,0.7650359869003296,-2.80943339703299e-07,0.5835749506950378,0.6708546876907349,7.469097181456164e-05,0.5694607496261597,0.559961199760437,0.0035613398067653,0.5661987662315369,0.4756601452827453,-0.0011623363243415,0.5804362893104553,0.4122933745384216,-0.0039729177951812,0.6431018114089966,0.5044397115707397,0.0527215413749218,0.6569516062736511,0.4314432144165039,0.0370226800441741,0.6442667245864868,0.3960700035095215,0.0159981492906808,0.6259939074516296,0.3836134076118469,0.0034144814126193,0.674748957157135,0.5065721869468689,0.039991732686758,0.699305534362793,0.4128243327140808,0.0195276141166687,0.677170991897583,0.3814609050750732,-0.0039263060316443,0.6422258615493774,0.3908184170722961,-0.0144331958144903,0.7034532427787781,0.5184077024459839,0.0211249124258756,0.7322710156440735,0.4238678812980652,0.0047175176441669,0.7057671546936035,0.3887063860893249,-0.0089089944958686,0.6685543060302734,0.3947171568870544,-0.0126343658193945,0.7293289303779602,0.5411628484725952,0.0003183456137776,0.7419924139976501,0.4602267742156982,-0.0094351796433329,0.7211319208145142,0.4158501029014587,-0.0154272485524415,0.6898087859153748,0.4011199176311493,-0.0164744388312101
2023-08-01 16:25:07.594159,39,536,0.9968885183334352,-0.0512624382972717,-0.0247551761567592,-0.0545220002532005,0.01025390625,0.9765625,0.21923828125,0.6158141493797302,0.7843658328056335,-3.638821510776325e-07,0.5776458382606506,0.685947060585022,0.0014766387175768,0.5662327408790588,0.5823805928230286,0.0066975215449929,0.5640116930007935,0.5002877712249756,0.0037720645777881,0.5744176506996155,0.4361856579780578,0.0026304565835744,0.6310781836509705,0.5366629958152771,0.0572569295763969,0.6401485204696655,0.4656148552894592,0.0452819541096687,0.6286527514457703,0.4345762729644775,0.0256974343210458,0.6117725968360901,0.4242939352989197,0.0137839252129197,0.6595126986503601,0.5366268157958984,0.0463065318763256,0.6743991374969482,0.4516249895095825,0.0308031700551509,0.6544350981712341,0.42432901263237,0.0077000930905342,0.6234096884727478,0.4292124211788177,-0.0041538216173648,0.687079906463623,0.5453372597694397,0.029495608061552,0.7085590958595276,0.4586921632289886,0.0164690408855676,0.6840624809265137,0.4312419593334198,0.0030141631141304,0.6495528221130371,0.4394285678863525,-0.0014639931032434,0.7130349278450012,0.5646916031837463,0.0110213104635477,0.723570704460144,0.4907562136650085,0.0052114557474851,0.7053660750389099,0.4497146010398865,0.0010076682083308,0.6761419773101807,0.4368823170661926,0.0004912517033517
2023-08-01 16:25:07.663179,40,537,0.997652530670166,-0.0441544465720653,-0.0242573954164981,-0.0463840253651142,0.02490234375,0.98388671875,0.181640625,0.6141783595085144,0.774005651473999,-2.66670411974701e-07,0.5770529508590698,0.6884399652481079,-0.0009698852663859,0.5632612109184265,0.588132381439209,0.0021121352910995,0.5602639317512512,0.5100310444831848,-0.0018658681074157,0.5759032368659973,0.4508857131004333,-0.0041421153582632,0.6267410516738892,0.539778470993042,0.0487407259643077,0.6366223692893982,0.4718014895915985,0.0350460484623909,0.6251716613769531,0.4413865804672241,0.0165275949984788,0.6091097593307495,0.4336034655570984,0.006094051990658,0.6565098762512207,0.5419729351997375,0.0389890521764755,0.673602283000946,0.4596562683582306,0.0216492377221584,0.6546448469161987,0.4325139820575714,-0.0002262420312035,0.6244007349014282,0.4397739768028259,-0.0103793982416391,0.6845031380653381,0.5523445010185242,0.0236543249338865,0.7076560854911804,0.4723343849182129,0.0083673801273107,0.6854367852210999,0.4411580562591553,-0.0053854919970035,0.6526802778244019,0.4436914622783661,-0.0094139724969863,0.7090122103691101,0.5712262392044067,0.0069147087633609,0.7150641679763794,0.4994507431983948,-0.001658626133576,0.6982822418212891,0.4586020112037658,-0.0071264402940869,0.6726174354553223,0.4414942264556885,-0.007921477779746
2023-08-01 16:25:07.723418,41,538,0.9979313611984252,-0.0400986112654209,-0.0285261459648609,-0.0413682982325553,0.07177734375,0.99609375,0.20166015625,0.6111240386962891,0.7684056162834167,-2.554581328695349e-07,0.5759574174880981,0.6867576837539673,0.0005735330050811,0.5622640252113342,0.5906733274459839,0.0044904113747179,0.5579500198364258,0.5145029425621033,0.0011745555093511,0.5739172101020813,0.4573086500167846,-0.0007355592097155,0.6252511143684387,0.5474509000778198,0.0507379285991191,0.635273814201355,0.4838501214981079,0.0399434268474578,0.6245176792144775,0.4533375799655914,0.02319947630167,0.6096605062484741,0.4421440660953522,0.0129697900265455,0.653982400894165,0.5499740839004517,0.0402402877807617,0.6732852458953857,0.4699080884456634,0.0245444551110267,0.6549108028411865,0.4426532387733459,0.0032601992134004,0.6251450777053833,0.448880136013031,-0.0067969197407364,0.6813825368881226,0.5605027079582214,0.0244778636842966,0.7062102556228638,0.4785817265510559,0.0096499007195234,0.6843917369842529,0.4477859735488891,-0.0040815458633005,0.6520483493804932,0.4507404565811157,-0.0081499284133315,0.7056295871734619,0.5785980820655823,0.0075419605709612,0.7100640535354614,0.5062269568443298,-0.0027693845331668,0.6906449198722839,0.4669688642024994,-0.0093232849612832,0.6632245182991028,0.4519638121128082,-0.0106806587427854
2023-08-01 16:25:07.793259,42,539,0.9984199404716492,-0.0343716517090797,-0.0284933913499116,-0.0341213755309581,0.07861328125,0.9619140625,0.12451171875,0.6115368604660034,0.7706688642501831,-2.46452486862836e-07,0.5752971172332764,0.6953989863395691,-0.0005087074823677,0.5607849359512329,0.5965792536735535,0.0034248165320605,0.5562761425971985,0.5189840197563171,0.0006565756048075,0.5751544237136841,0.4648595750331878,-0.0007799565210007,0.6228645443916321,0.5537920594215393,0.0472721680998802,0.6329507827758789,0.4920288324356079,0.0376116894185543,0.6253247261047363,0.4621408879756927,0.0226239897310733,0.6146215796470642,0.4506569802761078,0.0133579215034842,0.6522346138954163,0.557180643081665,0.0374620147049427,0.6719999313354492,0.4782678484916687,0.0220936629921197,0.6554118990898132,0.4523746371269226,0.0023667567875236,0.6280609369277954,0.459426611661911,-0.0061985971406102,0.6800340414047241,0.5680674910545349,0.022635381668806,0.7041338682174683,0.4856242537498474,0.0075139766559004,0.6823952794075012,0.4552850723266601,-0.0054039484821259,0.6515395641326904,0.4585879147052765,-0.0084896851330995,0.7038538455963135,0.5862083435058594,0.0067171729169785,0.7063619494438171,0.5124421715736389,-0.0043637924827635,0.6870140433311462,0.4734497666358948,-0.0108074434101581,0.6616396903991699,0.4593513011932373,-0.0117291333153843
2023-08-01 16:25:07.860525,43,540,0.9984896779060364,-0.0332842767238616,-0.0295613370835781,-0.0321954190731048,0.04443359375,0.9814453125,0.14892578125,0.6081973910331726,0.7822177410125732,-2.8331518819868506e-07,0.5743537545204163,0.7038156986236572,0.0004477145266719,0.5626161694526672,0.610689640045166,0.0052649062126874,0.5576359629631042,0.5370007753372192,0.0034135514870285,0.5725813508033752,0.4857595860958099,0.0028898674063384,0.6233701109886169,0.5727336406707764,0.048799380660057,0.6320667862892151,0.5125443935394287,0.0399285741150379,0.6231548190116882,0.4824740290641784,0.0249038282781839,0.6101135015487671,0.4706588685512543,0.0155888274312019,0.6504340767860413,0.5765386819839478,0.0394263304769992,0.6654239892959595,0.5025970339775085,0.0248866621404886,0.6485880613327026,0.4737311601638794,0.0043903165496885,0.6199275255203247,0.4745276272296905,-0.0054161231964826,0.676633358001709,0.5869207382202148,0.025124030187726,0.698799192905426,0.5124704837799072,0.0110837770625948,0.6799748539924622,0.482114315032959,-0.0030505831819027,0.6494131684303284,0.4830148220062256,-0.0075703370384871,0.6991356015205383,0.6036249995231628,0.0097762113437056,0.7018228769302368,0.5383957624435425,-1.2108001101296397e-05,0.6845133900642395,0.5005907416343689,-0.0070250304415822,0.6589395403862,0.4851131439208984,-0.0088356528431177
2023-08-01 16:25:07.934118,44,541,0.998491108417511,-0.0328795053064823,-0.0321295596659183,-0.0300368312746286,0.029296875,0.98974609375,0.18994140625,0.6095052361488342,0.7770580053329468,-2.102573972706523e-07,0.57541823387146,0.7055007815361023,-0.0010652090422809,0.5623288154602051,0.6149659156799316,0.0021323731634765,0.5567766427993774,0.5441030263900757,-0.0007922105141915,0.57284015417099,0.4926945567131042,-0.0021976626012474,0.6227564811706543,0.5755152106285095,0.04363813996315,0.6310393214225769,0.5188084840774536,0.0337259843945503,0.6228084564208984,0.4890095889568329,0.0187539253383874,0.6107383966445923,0.4760454297065735,0.0096819009631872,0.6490789651870728,0.5771756172180176,0.0350086390972137,0.6660891771316528,0.5051140785217285,0.021867262199521,0.65006023645401,0.4765234291553497,0.0039628255181014,0.6234711408615112,0.4784411489963531,-0.0043960609473288,0.6742522716522217,0.5870460867881775,0.0215204041451215,0.6963532567024231,0.5124655961990356,0.008891724050045,0.676693320274353,0.4811887443065643,-0.0022256800439208,0.6478955149650574,0.4821026623249054,-0.0049011460505425,0.6960633397102356,0.6040662527084351,0.006741237360984,0.7024684548377991,0.5362547039985657,-0.0021924742031842,0.6860488057136536,0.4983052909374237,-0.0071777459233999,0.6621186137199402,0.4849948287010193,-0.0074672275222837
2023-08-01 16:25:08.020691,45,542,0.9985402822494508,-0.0322331748902797,-0.0324506312608718,-0.0287295933812856,0.12841796875,1.0029296875,0.13037109375,0.6119679808616638,0.7859475016593933,-2.355737933612545e-07,0.578227698802948,0.7185002565383911,-0.001348425168544,0.5641306638717651,0.6279629468917847,0.0025534159503877,0.5588071942329407,0.554609477519989,0.0003409227356314,0.5758142471313477,0.5045214295387268,-0.0006814647931605,0.6223862767219543,0.5919605493545532,0.0445883832871913,0.6305195093154907,0.5344433784484863,0.0362532995641231,0.6228804588317871,0.5035001635551453,0.022282226011157,0.6115036010742188,0.4891208410263061,0.0133286770433187,0.6489742994308472,0.5946131348609924,0.0361599400639534,0.6657551527023315,0.5242510437965393,0.0218147840350866,0.6495249271392822,0.4948421418666839,0.002161098178476,0.6220945119857788,0.4946040511131286,-0.0071681109257042,0.6750648021697998,0.6038753986358643,0.0229579396545887,0.695633053779602,0.5305065512657166,0.0078838719055056,0.6742547750473022,0.5014987587928772,-0.006496837362647,0.6438525319099426,0.5031672120094299,-0.0109070315957069,0.6982940435409546,0.6186371445655823,0.0088217137381434,0.6991993188858032,0.5530382990837097,-0.0027137193828821,0.6797484159469604,0.5179460048675537,-0.0104938652366399,0.6544387340545654,0.5063483715057373,-0.0126869874075055
2023-08-01 16:25:08.089296,46,543,0.998403787612915,-0.0341176800429821,-0.0319841206073761,-0.0316679589450359,0.01904296875,0.98095703125,0.17724609375,0.6113997101783752,0.7785087823867798,-1.8214375074876446e-07,0.577695369720459,0.7122389078140259,-0.0033667606767266,0.5635829567909241,0.6255015730857849,-0.0023035807535052,0.5592840313911438,0.5561107397079468,-0.0065313507802784,0.5768716931343079,0.504841685295105,-0.0089801494032144,0.6236473917961121,0.5864619016647339,0.0380276814103126,0.6319363713264465,0.5310418009757996,0.0271420869976282,0.622855007648468,0.5040353536605835,0.0121637927368283,0.6108216643333435,0.4947672188282013,0.0031569704879075,0.6491198539733887,0.5877009630203247,0.0304669383913278,0.6655422449111938,0.5163367390632629,0.0174898374825716,0.6486940383911133,0.4896055459976196,0.0009352844208478,0.622578501701355,0.493631899356842,-0.0067727309651672,0.6730728149414062,0.5980124473571777,0.0180578455328941,0.6947000622749329,0.5228318572044373,0.0051646903157234,0.6734310984611511,0.4947845339775085,-0.0046932753175497,0.6446333527565002,0.4988660812377929,-0.0066732908599078,0.6941665410995483,0.6166511178016663,0.0042396006174385,0.701265811920166,0.5496429800987244,-0.0060593499802052,0.6831265687942505,0.5144035816192627,-0.0112594543024897,0.6580644249916077,0.5042510032653809,-0.0115765333175659
2023-08-01 16:25:08.162379,47,544,0.9983459711074828,-0.0347673520445823,-0.0312437377870082,-0.0334703959524631,0.03564453125,0.97265625,0.181640625,0.6160569190979004,0.7848539352416992,-2.223712129989508e-07,0.5807561874389648,0.7194517254829407,-0.0020274245180189,0.5673348307609558,0.6318033933639526,0.0005077337846159,0.5613266229629517,0.5627500414848328,-0.0025221826508641,0.5767815709114075,0.512761116027832,-0.0043293754570186,0.6246263384819031,0.5947598814964294,0.0379392504692077,0.6337782144546509,0.5375247001647949,0.0269980300217866,0.6262519955635071,0.5087733268737793,0.0122932707890868,0.6153284311294556,0.4992677569389343,0.0034546735696494,0.6515520215034485,0.5978037118911743,0.0294640101492404,0.6704362630844116,0.5260218977928162,0.0151781337335705,0.6546521186828613,0.4974665641784668,-0.0021731005981564,0.6272850632667542,0.5003309845924377,-0.0100268647074699,0.6775162220001221,0.6087175011634827,0.0163467321544885,0.7017368674278259,0.532204806804657,0.001725063775666,0.6807026863098145,0.5029967427253723,-0.0098227094858884,0.650791347026825,0.5055967569351196,-0.0127868074923753,0.699603259563446,0.6259207725524902,0.0021249563433229,0.6989562511444092,0.561556339263916,-0.010698483325541,0.6766935586929321,0.5287442207336426,-0.017892125993967,0.649714469909668,0.518934428691864,-0.0194094367325305
2023-08-01 16:25:08.218226,48,545,0.9983766078948976,-0.0349068939685821,-0.0293511301279068,-0.0341177247464656,0.03564453125,0.9736328125,0.19091796875,0.6155925393104553,0.7839911580085754,-2.07523200401738e-07,0.5812754034996033,0.7198505997657776,-0.003529762616381,0.5672639608383179,0.6306518912315369,-0.0025096298195421,0.5621983408927917,0.5606457591056824,-0.0065358374267816,0.5801898241043091,0.5120614171028137,-0.0092041948810219,0.6255869269371033,0.5920624732971191,0.0346739776432514,0.6349794268608093,0.5379570126533508,0.0239480286836624,0.6263556480407715,0.5103836059570312,0.0093817869201302,0.6148340702056885,0.4984948635101318,-3.83020487788599e-05,0.6515748500823975,0.5941212177276611,0.0269420053809881,0.6687293648719788,0.5223854184150696,0.0127846458926796,0.6518747210502625,0.4966840147972107,-0.0044735735282301,0.6255769729614258,0.4991462528705597,-0.0128400214016437,0.6764175295829773,0.6051716804504395,0.0147830266505479,0.6998538374900818,0.5273652076721191,0.0002990966604556,0.6783623695373535,0.5003262758255005,-0.0113422181457281,0.6489467024803162,0.5031846761703491,-0.0147554632276296,0.6979207396507263,0.6243561506271362,0.0015033457893878,0.7009546756744385,0.5569260120391846,-0.0109214186668396,0.6811886429786682,0.5240124464035034,-0.0179473161697387,0.656139612197876,0.5144888162612915,-0.0197309143841266
2023-08-01 16:25:08.276213,49,546,0.9983430504798888,-0.035547636449337,-0.0286414809525012,-0.0350309237837791,0.041015625,0.97705078125,0.185546875,0.6173065304756165,0.7872844934463501,-1.8275848390203467e-07,0.5814703702926636,0.723286509513855,-0.003380004549399,0.5680446624755859,0.6349115371704102,-0.0016756008844822,0.5628052949905396,0.5648742914199829,-0.0052978447638452,0.5795174837112427,0.515454113483429,-0.0077745541930198,0.6244196891784668,0.5947832465171814,0.0362249389290809,0.633324921131134,0.5380015969276428,0.0253234673291444,0.6271815299987793,0.5087264776229858,0.0108585394918918,0.6183940172195435,0.4988496899604797,0.0020425037946552,0.6517705321311951,0.5977741479873657,0.0279994793236255,0.6710423827171326,0.5243016481399536,0.0123631935566663,0.6557279825210571,0.4959682822227478,-0.0057465839199721,0.6300031542778015,0.5018454194068909,-0.0136721087619662,0.6773645281791687,0.6091680526733398,0.0151679906994104,0.7012975215911865,0.5320151448249817,-0.0006949682720005,0.68084317445755,0.5024380087852478,-0.0134992180392146,0.652509331703186,0.5068321824073792,-0.0168601889163255,0.6992862224578857,0.6272855401039124,0.0012489056680351,0.7012650966644287,0.5605196952819824,-0.0124988909810781,0.680985689163208,0.5249421000480652,-0.0206038430333137,0.6556462645530701,0.514617919921875,-0.0225820001214742
2023-08-01 16:25:08.342497,50,547,0.9983158111572266,-0.0361708551645278,-0.0275350231677293,-0.0360431037843227,-0.01416015625,0.978515625,0.19287109375,0.6160423159599304,0.7862188816070557,-1.8713643612500166e-07,0.5808523893356323,0.7239830493927002,-0.0033011338673532,0.567872166633606,0.6330006718635559,-0.0014391869772225,0.5631759762763977,0.563241720199585,-0.0045838267542421,0.580659031867981,0.5150692462921143,-0.0062175281345844,0.6259450316429138,0.5942289233207703,0.0342963561415672,0.6348859667778015,0.5384450554847717,0.0230881832540035,0.6275808811187744,0.5092008709907532,0.0087494319304823,0.6172080039978027,0.4992465376853943,0.0003142106870654,0.6523706316947937,0.5962255001068115,0.0266853552311658,0.670592725276947,0.5234038233757019,0.0120797427371144,0.6551839709281921,0.4954899549484253,-0.0043588341213762,0.6296167969703674,0.5012531876564026,-0.0112164672464132,0.6775707602500916,0.6066839694976807,0.0146082732826471,0.6997010111808777,0.5307535529136658,0.000541602668818,0.6793102622032166,0.501404345035553,-0.0100185927003622,0.651013195514679,0.5051071643829346,-0.0120459627360105,0.699451744556427,0.6246445775032043,0.0013094047317281,0.7034729719161987,0.5582924485206604,-0.0101297535002231,0.6854720711708069,0.5220748782157898,-0.0162999518215656,0.6616566181182861,0.5104874968528748,-0.0170359909534454
2023-08-01 16:25:08.407846,51,548,0.9983738660812378,-0.0361326560378074,-0.0260405577719211,-0.0355794355273246,0.037109375,0.97314453125,0.19091796875,0.6154294610023499,0.7892430424690247,-1.995230434204132e-07,0.5801663994789124,0.7249844670295715,-0.0028174433391541,0.5671885013580322,0.6335640549659729,-0.001716518192552,0.5619497299194336,0.5626310110092163,-0.00584108941257,0.5805003046989441,0.5135681629180908,-0.0089018596336245,0.6253885626792908,0.5941594243049622,0.0350393131375312,0.6356090307235718,0.5377514362335205,0.023830521851778,0.6281554698944092,0.5092153549194336,0.0091034108772873,0.6173505187034607,0.4988647103309631,-0.0001442822103854,0.6528483629226685,0.5983300805091858,0.026605162769556,0.6716026663780212,0.524529755115509,0.0111639592796564,0.6556335091590881,0.4974658191204071,-0.0070182136259973,0.6288385987281799,0.5016771554946899,-0.0153814433142542,0.6784408688545227,0.6112917065620422,0.0137955136597156,0.70298171043396,0.5317819118499756,-0.0017797743203118,0.6814044713973999,0.5041566491127014,-0.0147166606038808,0.6514073014259338,0.5078063011169434,-0.0186689179390668,0.6997007131576538,0.6314505338668823,6.144576764199883e-05,0.6991080641746521,0.5651714205741882,-0.0138009404763579,0.6774869561195374,0.5316600799560547,-0.0223829690366983,0.6517460346221924,0.5206159353256226,-0.024984274059534
2023-08-01 16:25:08.468040,52,549,0.9984022974967957,-0.0361255183815956,-0.024931589141488,-0.0355834998190403,0.0244140625,0.962890625,0.19384765625,0.614773690700531,0.7894717454910278,-2.077584753124029e-07,0.579933762550354,0.7235256433486938,-0.0027967486530542,0.566987931728363,0.6330865621566772,-0.0017789014382287,0.562014102935791,0.5636754035949707,-0.0060050142928957,0.5794306397438049,0.5153341293334961,-0.0090001104399561,0.6254571676254272,0.5928784012794495,0.0348631665110588,0.6351032257080078,0.5359630584716797,0.0231101792305707,0.6271600723266602,0.5088037848472595,0.007914955727756,0.6158299446105957,0.5016176104545593,-0.0013203109847381,0.6524290442466736,0.5970345139503479,0.0265010986477136,0.6709573864936829,0.5242851376533508,0.0110952202230691,0.6545368432998657,0.4982451796531677,-0.0071628964506089,0.6275609731674194,0.5038425326347351,-0.015639679506421,0.6775431036949158,0.610368013381958,0.0137464897707104,0.7033491730690002,0.5324741005897522,-0.0017624789616093,0.6820169687271118,0.504241406917572,-0.0144159393385052,0.6520796418190002,0.507781445980072,-0.0181854479014873,0.6981257796287537,0.6308948993682861,4.406770312925801e-05,0.700079619884491,0.5646390914916992,-0.013530371710658,0.6796835064888,0.5303363800048828,-0.0215429794043302,0.6544206738471985,0.5191807150840759,-0.0236689951270818
