Timestamp,Index,Frame ID,w,x,y,z,ax,ay,az,x_0,y_0,z_0,x_1,y_1,z_1,x_2,y_2,z_2,x_3,y_3,z_3,x_4,y_4,z_4,x_5,y_5,z_5,x_6,y_6,z_6,x_7,y_7,z_7,x_8,y_8,z_8,x_9,y_9,z_9,x_10,y_10,z_10,x_11,y_11,z_11,x_12,y_12,z_12,x_13,y_13,z_13,x_14,y_14,z_14,x_15,y_15,z_15,x_16,y_16,z_16,x_17,y_17,z_17,x_18,y_18,z_18,x_19,y_19,z_19,x_20,y_20,z_20
2023-08-01 16:24:55.450353,0,353,0.9981975555419922,0.0167995542287826,-0.0497918538749218,0.0289830435067415,0.1494140625,0.98193359375,0.01806640625,0.613757312297821,0.7534305453300476,-1.827897619932628e-07,0.5818989276885986,0.6905431747436523,-0.0001472729200031,0.5698673725128174,0.6072573661804199,0.0024652373977005,0.5604813694953918,0.5433811545372009,-0.000501949689351,0.5750210285186768,0.4997701644897461,-0.0024315523914992,0.6198159456253052,0.5725684762001038,0.0379160903394222,0.6261550784111023,0.5182710886001587,0.0284199640154838,0.6175635457038879,0.4916029274463653,0.0153740430250763,0.6085084676742554,0.4846334457397461,0.0075913164764642,0.6441221833229065,0.5743086934089661,0.0294966120272874,0.6593773365020752,0.5049700736999512,0.0175000578165054,0.642702043056488,0.4799726009368896,0.0020671596284955,0.6186637282371521,0.485082745552063,-0.0049496805295348,0.6677767634391785,0.584080159664154,0.0168079193681478,0.6892895102500916,0.5103277564048767,0.0046212365850806,0.6677850484848022,0.4831551909446716,-0.0060284845530986,0.6406263113021851,0.4867545664310455,-0.0089992918074131,0.6872442960739136,0.5994007587432861,0.0032402060460299,0.6861211657524109,0.5369006395339966,-0.0069413832388818,0.665777862071991,0.50471031665802,-0.0133096240460872,0.6431761384010315,0.494094580411911,-0.0148537224158644
2023-08-01 16:24:55.505584,1,354,0.9984633922576904,0.0128171183168888,-0.0485368929803371,0.0234683118760585,0.17529296875,0.9736328125,0.0625,0.6143772006034851,0.7532151937484741,-1.793492145907294e-07,0.5819287896156311,0.6924934983253479,-0.0007149351295083,0.569560170173645,0.6088513731956482,0.0019878600724041,0.561581552028656,0.5445482730865479,-0.0007123298128135,0.5752173066139221,0.4986176490783691,-0.0022058133035898,0.6203254461288452,0.5707114338874817,0.0372511260211467,0.6261013150215149,0.5164459943771362,0.0277018193155527,0.6173111796379089,0.4893231391906738,0.014515483751893,0.6071131825447083,0.481989711523056,0.0065974164754152,0.6445716619491577,0.5717419981956482,0.0289808195084333,0.6602349877357483,0.5025789141654968,0.0168908927589654,0.6440577507019043,0.4769591093063354,0.0015565904323011,0.619361937046051,0.4827933609485626,-0.0054014166817069,0.66771000623703,0.5818658471107483,0.0163899362087249,0.689068078994751,0.5099033117294312,0.0045707463286817,0.6680747866630554,0.4825089871883392,-0.0057466430589556,0.6404811143875122,0.4861604869365692,-0.0087301926687359,0.6870566606521606,0.5984348654747009,0.0027555115520954,0.6875193119049072,0.5386365652084351,-0.0073534767143428,0.667728066444397,0.5061339139938354,-0.0137510672211647,0.644607424736023,0.4952661097049713,-0.0153894200921058
2023-08-01 16:24:55.564339,2,355,0.9988893866539,0.007810384966433,-0.0437234826385974,0.0157234985381364,0.08837890625,0.97509765625,0.07177734375,0.6128873825073242,0.7456567883491516,-1.746667948054892e-07,0.5818618535995483,0.6827728152275085,5.457913357531652e-05,0.5698888897895813,0.5993975400924683,0.0029257128480821,0.5627995729446411,0.5352458953857422,0.0002629156224429,0.5748643279075623,0.4864920079708099,-0.0012611851561814,0.6231935024261475,0.5620700716972351,0.0377518832683563,0.6293042302131653,0.5086219906806946,0.0294566117227077,0.6206009984016418,0.4816593825817108,0.0169016495347023,0.6099068522453308,0.4708532094955444,0.008871772326529,0.646610677242279,0.5640174746513367,0.0288957264274358,0.66109299659729,0.495113730430603,0.0172251928597688,0.6436949968338013,0.4693052768707275,0.0012138031888753,0.6182312965393066,0.4715079069137573,-0.006636634003371,0.6688644886016846,0.5741857886314392,0.0159600116312503,0.6899979114532471,0.5007847547531128,0.0037708333693444,0.6675368547439575,0.474956750869751,-0.0072377291508018,0.6386780738830566,0.4779656529426574,-0.0107145281508564,0.6873652935028076,0.5912684202194214,0.0021642595529556,0.6889296770095825,0.5286517143249512,-0.0082827340811491,0.6688868999481201,0.4956237375736236,-0.0147783365100622,0.6448671817779541,0.4839246273040771,-0.0165950879454612
2023-08-01 16:24:55.629985,3,356,0.9991933703422546,0.0028247747104614,-0.0390016846358776,0.0091366712003946,0.11083984375,0.9853515625,0.08447265625,0.6141259670257568,0.7463083267211914,-1.8205241758550986e-07,0.5819900631904602,0.6828319430351257,-0.001020781463012,0.570306122303009,0.5959482192993164,0.0014815060421824,0.5616947412490845,0.5312129855155945,-0.0013211175100877,0.5729267597198486,0.4836472272872925,-0.0029464077670127,0.6232545971870422,0.5597772598266602,0.0362690761685371,0.6287803649902344,0.5047858357429504,0.0263909120112657,0.6204656362533569,0.4769575595855713,0.0129097308963537,0.6107995510101318,0.4678464829921722,0.004814407788217,0.6481133103370667,0.5629898309707642,0.0279081501066684,0.6633158922195435,0.493830531835556,0.0157070718705654,0.647152841091156,0.4665279984474182,0.0001771276001818,0.6226297616958618,0.4684401154518127,-0.0071027148514986,0.6716941595077515,0.5745565891265869,0.0151880998164415,0.6923850774765015,0.5010986328125,0.0025002616457641,0.6697296500205994,0.4722017049789428,-0.0080119082704186,0.6408336758613586,0.4733613431453705,-0.0108957020565867,0.6904408931732178,0.5918458104133606,0.0015053712995722,0.6890754103660583,0.528415858745575,-0.0092360563576221,0.6678948402404785,0.4946379959583282,-0.0154861193150281,0.6438637971878052,0.4822056591510772,-0.0169039368629455
2023-08-01 16:24:55.691109,4,357,0.999415159225464,-0.0026756841689348,-0.034058429300785,0.001463028602302,0.12939453125,0.9619140625,0.08154296875,0.6122283935546875,0.7414945363998413,-1.88156732860989e-07,0.5805337429046631,0.6781272888183594,0.0007906817481853,0.5694029927253723,0.592169463634491,0.004890227690339,0.5618597269058228,0.5288313627243042,0.0032303910702466,0.571710467338562,0.4794342815876007,0.0028788303025066,0.6241358518600464,0.5557676553726196,0.0397683531045913,0.6302855014801025,0.5012203454971313,0.0315065644681453,0.6214776635169983,0.47542604804039,0.0189606919884681,0.6112095713615417,0.4676684141159057,0.011417182162404,0.6474733948707581,0.5573698282241821,0.0308139510452747,0.6620667576789856,0.4882055222988128,0.0204078815877437,0.6454263925552368,0.4639600217342376,0.0055187735706567,0.621611475944519,0.4687241613864898,-0.0015751186292618,0.6698014736175537,0.5674242973327637,0.0175410341471433,0.6899300217628479,0.4940768182277679,0.0069329435937106,0.6672659516334534,0.4671361446380615,-0.0026240614242851,0.6395307183265686,0.4704236686229706,-0.0052790301851928,0.6889024972915649,0.5840750932693481,0.0032440621871501,0.6932602524757385,0.5195086002349854,-0.0053532668389379,0.6736081838607788,0.4861288964748382,-0.0103223109617829,0.6500216126441956,0.4758762121200561,-0.0111961755901575
2023-08-01 16:24:55.754208,5,358,0.9994704127311708,-0.0093310512602329,-0.0302825104445219,-0.0073957708664238,0.11474609375,0.9697265625,0.09716796875,0.6057817339897156,0.7272836565971375,-2.2017559331288797e-07,0.5747401118278503,0.6634502410888672,-0.0012029486242681,0.5636420249938965,0.5744388699531555,0.0013791132951155,0.556294858455658,0.5093188881874084,-0.0009389193728566,0.565986692905426,0.459055483341217,-0.0016312461812049,0.6222485899925232,0.5400828123092651,0.0347698517143726,0.6286584138870239,0.4820302724838257,0.0253205634653568,0.6170206665992737,0.4577661156654358,0.0124854119494557,0.6033909320831299,0.4526848793029785,0.0049890684895217,0.6467049717903137,0.5434978604316711,0.0270037166774272,0.6599349975585938,0.4751833975315094,0.0168443899601697,0.642482578754425,0.4516112208366394,0.0030992813408374,0.6175033450126648,0.4555018842220306,-0.0034319369588047,0.6698064208030701,0.5557895302772522,0.0148946791887283,0.692115306854248,0.4809348583221435,0.0035418225452303,0.6710569262504578,0.4531017541885376,-0.0049577224999666,0.6432026028633118,0.4540831744670868,-0.0069475467316806,0.6880975961685181,0.5747604370117188,0.0017928284360095,0.6880970597267151,0.5106841921806335,-0.009298033080995,0.6672096252441406,0.4757322669029236,-0.0150944096967577,0.6430110335350037,0.4613257050514221,-0.0160310715436935
2023-08-01 16:24:55.816096,6,359,0.9990847110748292,-0.0218188092112541,-0.0290832892060279,-0.02253626473248,0.1455078125,0.955078125,0.18017578125,0.6055279970169067,0.7229089140892029,-2.296332439755133e-07,0.5732318162918091,0.6587560176849365,-0.0025532378349453,0.5625388622283936,0.5705117583274841,-0.0013685110025107,0.5551990270614624,0.5053983926773071,-0.0050977189093828,0.5650261044502258,0.4540446400642395,-0.0071843010373413,0.620557427406311,0.5312303304672241,0.0324337556958198,0.6290508508682251,0.4717606604099273,0.020149078220129,0.6163614988327026,0.4464864730834961,0.0058411071076989,0.6014569997787476,0.4429824352264404,-0.0019776364788413,0.6454817056655884,0.5356353521347046,0.0244712084531784,0.660906195640564,0.4644675254821777,0.0123509438708424,0.6418384313583374,0.4378196895122528,-0.0019229574827477,0.6148493885993958,0.4406132400035858,-0.0083778295665979,0.669269323348999,0.5494655966758728,0.0119148194789886,0.6926253437995911,0.4721939861774444,-0.0012470307992771,0.6692503690719604,0.444001168012619,-0.0097610102966427,0.6398357152938843,0.4462284445762634,-0.0112078031525015,0.6883889436721802,0.5696212649345398,-0.0017620379803702,0.6873889565467834,0.5031971335411072,-0.014127142727375,0.6644662618637085,0.4692201018333435,-0.0197892915457487,0.6389526128768921,0.4571005702018738,-0.0201875492930412
2023-08-01 16:24:55.878177,7,360,0.9981625080108644,-0.0369970649480819,-0.0214406941086053,-0.0429314039647579,0.0361328125,0.98388671875,0.0908203125,0.6028925180435181,0.7194348573684692,-2.367618350263001e-07,0.5719457864761353,0.6555069088935852,-0.0012428240152075,0.5620760321617126,0.5662030577659607,0.0008920521941035,0.5550784468650818,0.5003249645233154,-0.0023289627861231,0.5637656450271606,0.448533296585083,-0.0040910956449806,0.6208335757255554,0.5244133472442627,0.0334690660238266,0.6300682425498962,0.4612585008144378,0.0205306932330131,0.616081953048706,0.4343397319316864,0.0058034416288137,0.6001812219619751,0.4300350546836853,-0.0021682844962924,0.6462592482566833,0.5294699668884277,0.0245551597326993,0.6620604991912842,0.4536155760288238,0.0109036536887288,0.6424936056137085,0.4249968528747558,-0.0045265555381774,0.6154635548591614,0.4270891547203064,-0.0113973170518875,0.6704025864601135,0.5437604188919067,0.0110793393105268,0.6936773657798767,0.4644559621810913,-0.0033538336865603,0.6694371104240417,0.4355348944664001,-0.0134080937132239,0.6388819813728333,0.4376092553138733,-0.0155659979209303,0.6902223825454712,0.5643231272697449,-0.0033511565998196,0.6911972761154175,0.4954395890235901,-0.0162897873669862,0.6684166193008423,0.4611825942993164,-0.0227224566042423,0.6418739557266235,0.4495880603790283,-0.0236857626587152
2023-08-01 16:24:55.942545,8,361,0.9966609477996826,-0.0526498407125473,-0.0153109431266784,-0.0605031549930572,-0.11328125,0.966796875,0.20947265625,0.6048728823661804,0.7169575691223145,-2.553887838985247e-07,0.5722707509994507,0.6504393815994263,-0.0028090267442166,0.5612274408340454,0.5601857304573059,-0.0020351957064121,0.5539119243621826,0.493445873260498,-0.0064545688219368,0.563048779964447,0.4413208961486816,-0.0092519065365195,0.6212276220321655,0.5199452638626099,0.0313989967107772,0.628740131855011,0.4542280435562134,0.0160673335194587,0.6140248775482178,0.427436351776123,-0.0001639074762351,0.5978075265884399,0.4257334172725677,-0.0084372591227293,0.6473627090454102,0.5241950750350952,0.0229863170534372,0.6635840535163879,0.4475591778755188,0.0075834109447896,0.6418538689613342,0.420957088470459,-0.0078096552751958,0.6132915616035461,0.4262081384658813,-0.013857620768249,0.6723480820655823,0.5381085276603699,0.00981698743999,0.6968027949333191,0.4565598368644714,-0.0054959426634013,0.6708336472511292,0.4276049137115478,-0.0142491832375526,0.6395938992500305,0.4311094880104065,-0.0149110564962029,0.6923151016235352,0.5589433312416077,-0.004512493032962,0.6922465562820435,0.4893192648887634,-0.0176158677786588,0.6680246591567993,0.4557125568389892,-0.0228988714516162,0.6413382291793823,0.4456280469894409,-0.0224383119493722
2023-08-01 16:24:56.001534,9,362,0.9945673942565918,-0.0690246224403381,-0.0158056281507015,-0.076299138367176,-0.029296875,0.92138671875,0.294921875,0.6069467067718506,0.7010761499404907,-1.785502234952219e-07,0.5707510709762573,0.6285539865493774,-0.0020042385440319,0.5608018636703491,0.5317448377609253,-0.0005837833159603,0.5547327399253845,0.4583832919597626,-0.0046328497119247,0.5654712915420532,0.4012448787689209,-0.0074450750835239,0.6259278655052185,0.4948925375938415,0.0366082936525344,0.6367120742797852,0.4286020696163177,0.0245510227978229,0.6255536675453186,0.3966009616851806,0.0088845118880271,0.6101816296577454,0.3862238526344299,-0.0009894790127873,0.656364917755127,0.5002424120903015,0.0264554060995578,0.6746818423271179,0.4191570281982422,0.0108878668397665,0.6533241271972656,0.3838081359863281,-0.0084862690418958,0.6207131147384644,0.3810126185417175,-0.0183305852115154,0.6825907230377197,0.5163490176200867,0.0115771805867552,0.711414098739624,0.4264587163925171,-0.0059247780591249,0.684493899345398,0.3917251229286194,-0.0207293555140495,0.6493135094642639,0.3896723091602325,-0.0261007454246282,0.7020354270935059,0.539911687374115,-0.0040567116811871,0.7018018960952759,0.4662337303161621,-0.0224489439278841,0.676231324672699,0.4254697859287262,-0.0341873206198215,0.6466330289840698,0.4074549674987793,-0.0386714413762092
2023-08-01 16:24:56.077923,10,363,0.9911109209060668,-0.0894678235054016,-0.0087129119783639,-0.0980752855539321,-0.07763671875,0.90283203125,0.3203125,0.6066625714302063,0.7020729184150696,-2.876566895793076e-07,0.5717223882675171,0.6285519599914551,-0.0022385139018297,0.5614295601844788,0.5288199186325073,-0.0014311108971014,0.5540058612823486,0.4549114406108856,-0.0064704520627856,0.562977135181427,0.3976103365421295,-0.010051873512566,0.6297726631164551,0.4821814298629761,0.0354968532919883,0.6408590078353882,0.4102025330066681,0.0182387195527553,0.6238133907318115,0.3795149326324463,-0.0008213213877752,0.6040734052658081,0.3778972029685974,-0.0112132728099823,0.6595637202262878,0.4883114397525787,0.024951672181487,0.6798834204673767,0.4027328789234161,0.007014269940555,0.6539030075073242,0.3700608313083648,-0.0126463333144783,0.6194010376930237,0.3739752769470215,-0.021660216152668,0.6864367723464966,0.5062705278396606,0.00928052701056,0.7166386842727661,0.4140235483646393,-0.0084130726754665,0.6867085695266724,0.3780871033668518,-0.0211653336882591,0.650261640548706,0.3785430192947387,-0.0245945584028959,0.70567387342453,0.5327528119087219,-0.0074419188313186,0.705062985420227,0.4538034200668335,-0.023612068966031,0.6786940097808838,0.4131054282188415,-0.0319955088198185,0.6495038866996765,0.3979592025279999,-0.0336925834417343
2023-08-01 16:24:56.147345,11,364,0.9868729710578918,-0.1109178662300109,-0.0074718235991895,-0.1171452552080154,-0.05322265625,0.86767578125,0.3642578125,0.6070184111595154,0.7065262198448181,-2.9918595600975095e-07,0.5716471076011658,0.6274073123931885,-0.0018788442248478,0.5598272085189819,0.5244079828262329,-0.0010934899328276,0.5519265532493591,0.4458197355270386,-0.0067530064843595,0.5652129650115967,0.3869576156139374,-0.0107442466542124,0.6304758787155151,0.4776489436626434,0.0403152592480182,0.6394632458686829,0.4035825729370117,0.023778473958373,0.623273491859436,0.371514230966568,0.0045142187736928,0.6042145490646362,0.3681190013885498,-0.0065989135764539,0.662300169467926,0.4832662642002105,0.0289312880486249,0.6815798282623291,0.3963153958320617,0.0110938567668199,0.6562536954879761,0.3624967932701111,-0.0092154201120138,0.6208280920982361,0.3665702641010284,-0.0190278925001621,0.6905516386032104,0.501115620136261,0.012015726417303,0.7209827899932861,0.4062876999378204,-0.0066435988992452,0.6914858222007751,0.3687193989753723,-0.0202306825667619,0.653965950012207,0.3693268895149231,-0.0243445001542568,0.7107665538787842,0.52726811170578,-0.0060085956938564,0.7086801528930664,0.4477730989456177,-0.0237178727984428,0.6807647943496704,0.4064980149269104,-0.0333427712321281,0.6498305797576904,0.3912596106529236,-0.0359389148652553
2023-08-01 16:24:56.202380,12,365,0.9824431538581848,-0.1300815045833587,-0.0006680765654891,-0.1337305009365081,-0.337890625,0.84521484375,0.40869140625,0.6092177033424377,0.7017439007759094,-2.518930273254228e-07,0.5671707987785339,0.6168145537376404,-0.0018312926404178,0.5530989170074463,0.5010889172554016,8.331931894645095e-05,0.5466907620429993,0.4155771732330322,-0.0047118170186877,0.5599505305290222,0.346417486667633,-0.0077289533801376,0.6321505904197693,0.4536413252353668,0.0461681745946407,0.6440141201019287,0.3778109848499298,0.0331957936286926,0.6306891441345215,0.3419374227523803,0.0144476890563964,0.6116150617599487,0.3309109807014465,0.0025528841651976,0.6667847037315369,0.4622853994369507,0.0338111892342567,0.6872091889381409,0.3712784349918365,0.017012245953083,0.6605014204978943,0.3347831666469574,-0.0058606164529919,0.621944785118103,0.3340031504631042,-0.0177316162735223,0.6969655156135559,0.482804924249649,0.0159012656658887,0.7314360737800598,0.381186693906784,-0.0026095178909599,0.7000215649604797,0.344361811876297,-0.0176932644098997,0.6597120761871338,0.3449471592903137,-0.0226839948445558,0.7190284132957458,0.5123797655105591,-0.0031132299918681,0.7212397456169128,0.4227801561355591,-0.021822664886713,0.6923121213912964,0.3754445314407348,-0.0322371758520603,0.6587399244308472,0.3563396334648132,-0.0352974496781826
2023-08-01 16:24:56.271234,13,366,0.978474259376526,-0.1461337208747863,-0.0014728489331901,-0.1457083076238632,-0.31494140625,0.8291015625,0.47607421875,0.6068804860115051,0.703633725643158,-3.4534804171926226e-07,0.5654230117797852,0.6173219084739685,-0.0048883073031902,0.5534533262252808,0.4985088109970093,-0.0052713570185005,0.5460900068283081,0.4104967713356018,-0.0118469577282667,0.557242214679718,0.338650643825531,-0.0163765791803598,0.6328637599945068,0.4422039091587066,0.0381796471774578,0.6448748111724854,0.3574551939964294,0.0182017236948013,0.6255053877830505,0.3227586150169372,-0.0038063251413404,0.6016873121261597,0.3175508677959442,-0.0163558181375265,0.6691439151763916,0.4502232074737549,0.0262907762080431,0.69013512134552,0.3493003249168396,0.0051498268730938,0.6582924723625183,0.3142561316490173,-0.0174305289983749,0.6165933012962341,0.3184343874454498,-0.0280688293278217,0.7012096643447876,0.4726632833480835,0.0084271589294075,0.7371310591697693,0.3637638986110687,-0.0126548698171973,0.7019742131233215,0.3270079791545868,-0.0261632967740297,0.6589908003807068,0.3305974006652832,-0.0295346211642026,0.7256275415420532,0.5064095258712769,-0.0108630172908306,0.7264633178710938,0.4143807590007782,-0.0304699651896953,0.6945527791976929,0.3693641424179077,-0.0396038182079792,0.6587955355644226,0.3533660769462585,-0.0411943867802619
2023-08-01 16:24:56.326200,14,367,0.9750279784202576,-0.1573842465877533,-0.0025034274440258,-0.1566667258739471,-0.22900390625,0.833984375,0.50146484375,0.6093227863311768,0.7174205780029297,-3.277249334132648e-07,0.5669888854026794,0.6200724244117737,-0.0043515297584235,0.5543344616889954,0.4959349632263183,-0.004251530393958,0.5455362200737,0.4035139679908752,-0.0113470125943422,0.5587919354438782,0.3302091360092163,-0.0163016710430383,0.634183406829834,0.4429736137390136,0.0458341613411903,0.6436653733253479,0.3542786836624145,0.0258159507066011,0.628175675868988,0.3158485889434814,0.0023134006187319,0.6079988479614258,0.3067306876182556,-0.0117374658584594,0.6724239587783813,0.4507271647453308,0.032697319984436,0.6952610015869141,0.3458760380744934,0.0100707355886697,0.6670303344726562,0.3062663674354553,-0.0153240337967872,0.6253230571746826,0.3072103261947632,-0.0277899242937564,0.7070608735084534,0.473033994436264,0.0129949273541569,0.7466888427734375,0.358597993850708,-0.009843579493463,0.7140660285949707,0.3148523271083832,-0.0259616374969482,0.6698055267333984,0.3144464194774627,-0.0308005157858133,0.7337528467178345,0.5061692595481873,-0.0082540232688188,0.7339373826980591,0.4115001857280731,-0.0294191855937242,0.7011078596115112,0.3630163669586181,-0.0405759662389755,0.6635671854019165,0.3449816405773163,-0.0435346737504005
2023-08-01 16:24:56.388052,15,368,0.9722083210945128,-0.1634942591190338,0.0039285467937588,-0.1675268113613128,-0.2861328125,0.85791015625,0.45361328125,0.6197952032089233,0.7391843199729919,-2.530845506498736e-07,0.570287823677063,0.6425651907920837,-0.0096419844776391,0.5553058981895447,0.5057986378669739,-0.0116354683414101,0.5454232692718506,0.3996828496456146,-0.0210446510463953,0.5613067746162415,0.3163579106330871,-0.0277534089982509,0.6393492817878723,0.4381962418556213,0.0515697859227657,0.6544541120529175,0.3461226224899292,0.0288158133625984,0.636014461517334,0.3028108775615692,0.0019419500604271,0.6116359233856201,0.2953531146049499,-0.0138845397159457,0.6820049285888672,0.4451694786548614,0.0388256981968879,0.7116470336914062,0.3329104781150818,0.0134715763852,0.6805763244628906,0.285405546426773,-0.0156425405293703,0.6345119476318359,0.2893996238708496,-0.0297125671058893,0.7195239067077637,0.4694859981536865,0.017927935346961,0.7644147276878357,0.3461568355560303,-0.0078992210328578,0.728539764881134,0.2963864803314209,-0.0273914709687232,0.6810914278030396,0.298643946647644,-0.0333726517856121,0.7497844696044922,0.5065087080001831,-0.0051019671373069,0.7550563216209412,0.3989000022411346,-0.0299316979944705,0.719964861869812,0.3476949334144592,-0.0434795282781124,0.6790568232536316,0.3357816338539123,-0.0471509955823421
2023-08-01 16:24:56.466001,16,369,0.9689635038375854,-0.1715082228183746,0.0086388075724244,-0.177820399403572,-0.31787109375,0.80419921875,0.5,0.6199437975883484,0.7599053382873535,-3.043382150735852e-07,0.5707720518112183,0.6568011045455933,-0.0105923442170023,0.5561444163322449,0.5117822885513306,-0.0131515823304653,0.5478237271308899,0.4023861289024353,-0.0222742147743701,0.5628135800361633,0.3139547705650329,-0.0290650073438882,0.6386393904685974,0.4411451518535614,0.0416061840951442,0.6529605984687805,0.3466384708881378,0.0168976970016956,0.6409656405448914,0.3029565215110779,-0.009834156371653,0.6246916055679321,0.2902395725250244,-0.0261501111090183,0.6861017346382141,0.4510407447814941,0.0283239278942346,0.718067467212677,0.3322052359580993,-0.0014941608533263,0.6900078058242798,0.2895967960357666,-0.0312156695872545,0.6454436182975769,0.2966638207435608,-0.0449942201375961,0.7264955043792725,0.4776088297367096,0.0076508079655468,0.7735568284988403,0.3473698496818542,-0.021914754062891,0.7354045510292053,0.298551857471466,-0.0418210066854953,0.684558093547821,0.2999321818351745,-0.0477728396654129,0.7573991417884827,0.5166244506835938,-0.0149314198642969,0.7566713094711304,0.4095051288604736,-0.0420921593904495,0.7189181447029114,0.3535634875297546,-0.057047002017498,0.6761865019798279,0.3322992324829101,-0.0617515631020069
2023-08-01 16:24:56.548644,17,370,0.96624755859375,-0.1743508428335189,0.0151590462774038,-0.1890440434217453,-0.287109375,0.82666015625,0.51611328125,0.6198753118515015,0.7756762504577637,-3.738944940323563e-07,0.5721462368965149,0.6650427579879761,-0.0045330412685871,0.5559585690498352,0.5175777077674866,-0.0043066162616014,0.5473511219024658,0.4083196818828583,-0.0122235734015703,0.5621311664581299,0.3204078674316406,-0.0181576553732156,0.6422773003578186,0.4431875944137573,0.0500751584768295,0.6554431319236755,0.3457002639770508,0.0269947536289691,0.6420097351074219,0.3027754426002502,4.48586797574535e-05,0.622458279132843,0.290173590183258,-0.0163882188498973,0.6888414621353149,0.4544549584388733,0.0339715927839279,0.7152398824691772,0.332484483718872,0.0059152636677026,0.6875013709068298,0.2902076244354248,-0.0248678866773843,0.6423340439796448,0.2951638400554657,-0.0399578064680099,0.7292813062667847,0.4825029969215393,0.0106304343789815,0.7766981720924377,0.3483727574348449,-0.0185878574848175,0.7400796413421631,0.3002287149429321,-0.0405411608517169,0.6874629259109497,0.302600085735321,-0.0482340157032012,0.7604663372039795,0.5226510167121887,-0.0140821952372789,0.7615516185760498,0.4124284982681274,-0.0416517108678817,0.7232511043548584,0.3567467331886291,-0.0574969053268432,0.6775144934654236,0.3360956907272339,-0.0630560144782066
2023-08-01 16:24:56.623026,18,371,0.96451997756958,-0.1756953597068786,0.01706357114017,-0.1963188797235489,-0.3544921875,0.8388671875,0.4814453125,0.6248454451560974,0.7893247008323669,-2.82937662632321e-07,0.5743598937988281,0.6806511878967285,-0.0146469585597515,0.5602831840515137,0.5263502597808838,-0.0195281021296978,0.5519068241119385,0.4090017974376678,-0.0311654470860958,0.5678581595420837,0.3148825168609619,-0.0400570183992385,0.6487869620323181,0.4411387741565704,0.0420991145074367,0.6654742956161499,0.3374825716018677,0.0122128119692206,0.6511371731758118,0.2905039489269256,-0.0191633105278015,0.6312523484230042,0.2802882194519043,-0.0379101149737834,0.6998584270477295,0.4524482786655426,0.0290311705321073,0.7366753220558167,0.3239380121231079,-0.0053883451037108,0.7076318264007568,0.277428388595581,-0.0389002673327922,0.6604081392288208,0.2871666848659515,-0.0546215288341045,0.7430703639984131,0.4839984774589538,0.0074110934510827,0.7961829900741577,0.3446301221847534,-0.0259784571826457,0.7558597326278687,0.2948900461196899,-0.049016535282135,0.7013460397720337,0.3011374473571777,-0.0564306303858757,0.7765447497367859,0.5301801562309265,-0.0165898595005273,0.7785078883171082,0.4175452291965484,-0.0476948954164981,0.7372698187828064,0.3635706007480621,-0.0656660124659538,0.6894341111183167,0.3488509058952331,-0.0719030350446701
2023-08-01 16:24:56.687016,19,372,0.963878571987152,-0.1767486780881881,0.0168859474360942,-0.1985265612602234,-0.36279296875,0.8212890625,0.498046875,0.6282280683517456,0.8099799156188965,-3.2941684935394733e-07,0.5778006911277771,0.6915711760520935,-0.0098991766571998,0.5638713836669922,0.5317080020904541,-0.012399423867464,0.5563358664512634,0.4119715690612793,-0.0230889488011598,0.569922924041748,0.3137741684913635,-0.0313124023377895,0.6546396613121033,0.4462895691394806,0.0508952438831329,0.6704747676849365,0.3408839702606201,0.0229766629636287,0.6581960320472717,0.2938131392002105,-0.0089055802673101,0.6387088894844055,0.2811381816864013,-0.0283920466899871,0.7052767872810364,0.4598138928413391,0.0348211005330085,0.7407959699630737,0.3274223804473877,0.0002919168036896,0.710729718208313,0.2801553606986999,-0.0356462076306343,0.6602925658226013,0.2888872623443603,-0.0529083907604217,0.7479785084724426,0.4924162924289703,0.0103800827637314,0.8017459511756897,0.3492950201034546,-0.022110590711236,0.7621109485626221,0.2965679466724396,-0.0465488843619823,0.7056666016578674,0.300092875957489,-0.0551870241761207,0.7813327312469482,0.5394262075424194,-0.0162347555160522,0.7864627242088318,0.4212810695171356,-0.0448415651917457,0.7480553984642029,0.3621745407581329,-0.0617761276662349,0.70130854845047,0.342424213886261,-0.0678376778960228
2023-08-01 16:24:56.742416,20,373,0.9638473391532898,-0.1770714819431305,0.0156805403530597,-0.1984896063804626,-0.33251953125,0.7978515625,0.49853515625,0.6303687691688538,0.8203232884407043,-3.196524289705849e-07,0.5818162560462952,0.694026529788971,-0.0058384733274579,0.5667968988418579,0.5343492031097412,-0.0069866008125245,0.557715654373169,0.4147066473960876,-0.0176982823759317,0.5735541582107544,0.3201934695243835,-0.0263717211782932,0.6571003794670105,0.4483210146427154,0.0573888756334781,0.6736278533935547,0.3478584885597229,0.0316361859440803,0.664378821849823,0.3002744019031524,0.0001976310450118,0.6460961103439331,0.2832997739315033,-0.0195408184081316,0.7087423205375671,0.4616543650627136,0.0390206091105937,0.746271014213562,0.3323006927967071,0.0052396105602383,0.7193433046340942,0.288294106721878,-0.0311424899846315,0.6701738834381104,0.298495203256607,-0.0485364571213722,0.7523102760314941,0.494302362203598,0.0125954672694206,0.8085110187530518,0.352554976940155,-0.0189458131790161,0.7699077129364014,0.3025752902030945,-0.0427523478865623,0.7131780385971069,0.308719128370285,-0.0508750341832637,0.7854829430580139,0.5424573421478271,-0.015790868550539,0.7926232814788818,0.4249053001403808,-0.042652528733015,0.7526283860206604,0.365417867898941,-0.0579059310257434,0.7036975622177124,0.3452634513378143,-0.062846153974533
2023-08-01 16:24:56.811077,21,374,0.9641364812850952,-0.1767348796129226,0.015156228095293,-0.1974234730005264,-0.31689453125,0.80224609375,0.46875,0.6334885358810425,0.8294553756713867,-3.174510823100718e-07,0.5833985209465027,0.7057425379753113,-0.0103016020730137,0.5710934400558472,0.5418514013290405,-0.0125377355143427,0.5652976036071777,0.4203417599201202,-0.0229324959218502,0.5816932916641235,0.3245231807231903,-0.0307181235402822,0.66341233253479,0.4521510303020477,0.0490159168839454,0.68415766954422,0.3487457633018493,0.0207872912287712,0.6733960509300232,0.2986649870872497,-0.0108964098617434,0.6540337800979614,0.2821260094642639,-0.0302159246057271,0.7167016267776489,0.4659537076950073,0.0326711945235729,0.7599331140518188,0.3339011967182159,-0.002031207550317,0.7317127585411072,0.2868231832981109,-0.0362176112830638,0.6809247732162476,0.298520028591156,-0.0516834072768688,0.7612359523773193,0.5002091526985168,0.0080298734828829,0.821280837059021,0.3575108051300049,-0.0245318282395601,0.7807559370994568,0.3049098253250122,-0.046343345195055,0.723048746585846,0.3119087815284729,-0.0526752099394798,0.794849693775177,0.5501729249954224,-0.0189896170049905,0.8039077520370483,0.4313797950744629,-0.0478907190263271,0.7642164826393127,0.3734946250915527,-0.0630785897374153,0.715910017490387,0.3578987121582031,-0.0671838372945785
2023-08-01 16:24:56.868033,22,375,0.9645158052444458,-0.1757140904664993,0.0147193623706698,-0.1965125054121017,-0.30322265625,0.81884765625,0.501953125,0.6342397928237915,0.8314132690429688,-2.955103752810828e-07,0.5864092111587524,0.7044620513916016,-0.0107648260891437,0.5716657638549805,0.5459361672401428,-0.0150604676455259,0.5634802579879761,0.4239459931850433,-0.0280305948108434,0.5833106637001038,0.3263452053070068,-0.0387626439332962,0.6627546548843384,0.4518364071846008,0.0533427745103836,0.681410551071167,0.3514766097068786,0.0241096653044223,0.6730127930641174,0.3043417632579803,-0.0099997157230973,0.6564276814460754,0.2884401679039001,-0.0309383012354373,0.7169507741928101,0.464382141828537,0.0373535081744194,0.7576217651367188,0.3347298502922058,0.0022153870668262,0.7314523458480835,0.2914017140865326,-0.0346024148166179,0.6820209622383118,0.3024998903274536,-0.0522073470056057,0.7622905969619751,0.4967123866081238,0.0126640973612666,0.8219500184059143,0.3568599224090576,-0.0200842060148715,0.7841307520866394,0.3068591356277466,-0.044227235019207,0.7267762422561646,0.313933253288269,-0.0523848682641983,0.7961623668670654,0.5457381010055542,-0.0144215989857912,0.8063884973526001,0.4295888841152191,-0.0417526960372924,0.7687172293663025,0.3715385198593139,-0.0571398138999938,0.7206031680107117,0.3525607585906982,-0.0619625300168991
2023-08-01 16:24:56.933084,23,376,0.9651391506195068,-0.174680694937706,0.0129611622542142,-0.194486603140831,-0.34326171875,0.81494140625,0.52294921875,0.635111391544342,0.8346355557441711,-3.150102259041887e-07,0.5868209600448608,0.7060856223106384,-0.0098897637799382,0.571833610534668,0.546116054058075,-0.0132960826158523,0.5639256238937378,0.4232436716556549,-0.0255490466952323,0.5834947824478149,0.3266405165195465,-0.0356078520417213,0.660955548286438,0.4547300934791565,0.0544742606580257,0.6804049611091614,0.354928195476532,0.0268282648175954,0.6731634736061096,0.3067472577095032,-0.0065529122948646,0.657690167427063,0.2887694835662842,-0.0275032352656126,0.7144813537597656,0.4680375754833221,0.0383401028811931,0.7551292777061462,0.3381645381450653,0.0032084442209452,0.7264783382415771,0.2964623272418976,-0.0341453552246093,0.6752644181251526,0.3082402348518371,-0.0521516352891922,0.7599987387657166,0.4998706579208374,0.0138121955096721,0.8200082778930664,0.358918696641922,-0.017999842762947,0.7811805009841919,0.3097278475761413,-0.0424991659820079,0.7241134643554688,0.318044900894165,-0.0511777773499488,0.7940449118614197,0.54830402135849,-0.0130537617951631,0.8067440986633301,0.4298984408378601,-0.0385130308568477,0.7691324353218079,0.3718269467353821,-0.0530768260359764,0.7214970588684082,0.3546486496925354,-0.0578248836100101
2023-08-01 16:24:57.003267,24,377,0.9667764902114868,-0.1696117967367172,0.0134307267144322,-0.1907735466957092,-0.29345703125,0.80517578125,0.48681640625,0.6332148909568787,0.8285164833068848,-3.2321230492016184e-07,0.5871482491493225,0.7008891701698303,-0.0113929761573672,0.5723854303359985,0.5420796871185303,-0.0152534460648894,0.5641059279441833,0.4233508706092834,-0.0274147633463144,0.5798107981681824,0.3287426829338074,-0.0368430949747562,0.6580986380577087,0.4501940310001373,0.048993095755577,0.6783854365348816,0.3483138084411621,0.0175330676138401,0.6683840751647949,0.3009344041347503,-0.0168281607329845,0.6499334573745728,0.288751482963562,-0.0366596058011055,0.7111282348632812,0.4608555734157562,0.0341613888740539,0.7505483627319336,0.3313046991825104,-0.00229306332767,0.7204070091247559,0.290333092212677,-0.0372265018522739,0.6691901683807373,0.3052061200141907,-0.0524170845746994,0.7565974593162537,0.4906473755836487,0.0106932381168007,0.8152984976768494,0.3526494204998016,-0.0218278355896472,0.7766605615615845,0.3047274947166443,-0.0433704033493995,0.7203881740570068,0.3156889677047729,-0.0488579645752906,0.7907434701919556,0.5378280878067017,-0.0153753012418746,0.8042929172515869,0.423058807849884,-0.0406479761004447,0.7681662440299988,0.3629199266433716,-0.0535229742527008,0.7210856080055237,0.3435262441635132,-0.0560179650783538
2023-08-01 16:24:57.077090,25,378,0.968358278274536,-0.1648546308279037,0.0131220193579792,-0.1869039982557296,-0.27099609375,0.830078125,0.46826171875,0.6312925815582275,0.8285033702850342,-3.373908441517415e-07,0.5850219130516052,0.6992143392562866,-0.0090651707723736,0.5717115998268127,0.5414891839027405,-0.0123214339837431,0.565735936164856,0.4221541881561279,-0.0242453683167696,0.5807512402534485,0.3239202499389648,-0.034041441977024,0.6618719100952148,0.4525955319404602,0.052224114537239,0.6817129254341125,0.3523255586624145,0.0234207417815923,0.6718373894691467,0.304847776889801,-0.0106214936822652,0.6524225473403931,0.2877303957939148,-0.0316523015499115,0.7139279246330261,0.4657774567604065,0.0357106290757656,0.7545691728591919,0.3359141647815704,0.000264496076852,0.7239128351211548,0.2935900390148163,-0.0369392223656177,0.6708568334579468,0.3031519055366516,-0.0550155416131019,0.7573927640914917,0.4974553287029266,0.010995328426361,0.8181299567222595,0.3577835857868194,-0.0209221839904785,0.7785172462463379,0.3074737191200256,-0.0452843904495239,0.7204251289367676,0.3131034672260284,-0.0540859960019588,0.7889472842216492,0.5461007952690125,-0.0159743744879961,0.80333012342453,0.4312673807144165,-0.0412360019981861,0.7663135528564453,0.3721277117729187,-0.0557586178183555,0.7181766033172607,0.3519038558006286,-0.0607064254581928
2023-08-01 16:24:57.135379,26,379,0.9699591398239136,-0.159987673163414,0.0097268605604767,-0.1829990595579147,-0.36279296875,0.82470703125,0.5078125,0.6334467530250549,0.8292944431304932,-3.426367243264395e-07,0.5860733389854431,0.7026901245117188,-0.0092252530157566,0.5723261833190918,0.541716456413269,-0.0108086382970213,0.5648176074028015,0.4211881756782532,-0.0210486631840467,0.5804018974304199,0.3268267512321472,-0.0289635993540287,0.6608192920684814,0.4523125290870666,0.0547940805554389,0.6788504719734192,0.3546423017978668,0.027995154261589,0.6693259477615356,0.3077371120452881,-0.0044170073233544,0.6511717438697815,0.2890281081199646,-0.0244794432073831,0.7125542163848877,0.4637870788574219,0.0394647903740406,0.7498029470443726,0.3361759781837463,0.0065883425995707,0.7210689187049866,0.2936530411243438,-0.0284439027309417,0.6705093383789062,0.3013129830360412,-0.0451467670500278,0.7567832469940186,0.4946134686470032,0.0157372485846281,0.8140482306480408,0.3578121662139892,-0.014302834868431,0.7767568826675415,0.3090844750404358,-0.0371220000088214,0.7206851243972778,0.3148666024208069,-0.044842354953289,0.7898380756378174,0.542586624622345,-0.0104068741202354,0.8036547899246216,0.4283614754676819,-0.033966489136219,0.7688736915588379,0.3702559471130371,-0.0472522489726543,0.7228649854660034,0.3506138324737549,-0.0512303449213504
2023-08-01 16:24:57.205022,27,380,0.9737011194229126,-0.1455757468938827,0.0049741463735699,-0.1751827597618103,-0.36376953125,0.84130859375,0.474609375,0.6375439763069153,0.8278383016586304,-3.914825299489167e-07,0.5929821729660034,0.6975370049476624,-0.0034322205465286,0.5795137286186218,0.542595624923706,-0.0026301653124392,0.5724937319755554,0.4281481802463531,-0.0119352135807275,0.5841730833053589,0.3373936414718628,-0.0194862466305494,0.6671076416969299,0.4583502113819122,0.059593990445137,0.6838154792785645,0.3619522452354431,0.0356738232076168,0.6743193864822388,0.3155865371227264,0.0050013000145554,0.6561208963394165,0.2938917279243469,-0.0146989608183503,0.7154929637908936,0.4690170884132385,0.0412135235965251,0.7510255575180054,0.3421009182929992,0.0082367351278662,0.7197700142860413,0.3025001287460327,-0.0274211466312408,0.6680914759635925,0.3102656304836273,-0.0445157624781131,0.7567691206932068,0.4967660903930664,0.0151853803545236,0.8127477169036865,0.3620254397392273,-0.0138955246657133,0.7736682891845703,0.3178372681140899,-0.0367031544446945,0.7178587317466736,0.3251840770244598,-0.0445867776870727,0.7876889109611511,0.5415712594985962,-0.0129268253222107,0.8041278123855591,0.4295949041843414,-0.0342558249831199,0.7688257098197937,0.3717861175537109,-0.0467179752886295,0.7221154570579529,0.3514004647731781,-0.050830528140068
2023-08-01 16:24:57.280990,28,381,0.9785080552101136,-0.1303981840610504,-0.0013817106373608,-0.1597386300563812,-0.33447265625,0.83740234375,0.45458984375,0.6441473960876465,0.8247851133346558,-3.398000387733191e-07,0.59563809633255,0.7010034918785095,-0.0050271274521946,0.5826340317726135,0.5461806654930115,-0.004865379538387,0.5753134489059448,0.433038592338562,-0.014064859598875,0.5868510603904724,0.344290554523468,-0.0213669370859861,0.6693230867385864,0.4586929082870483,0.0531894192099571,0.6860869526863098,0.361956775188446,0.0281726326793432,0.6776449084281921,0.3163140416145324,-0.0016653079073876,0.6613661646842957,0.2997110784053802,-0.0199761483818292,0.7181878685951233,0.4691069424152374,0.0355745889246463,0.7567816972732544,0.3413705825805664,0.0026199759449809,0.7278341054916382,0.3015225231647491,-0.0306700356304645,0.6790863275527954,0.3150360584259033,-0.0455533526837825,0.759183943271637,0.4983582198619842,0.0104560516774654,0.8155363202095032,0.3643047213554382,-0.0179705545306205,0.7763330936431885,0.3217188119888305,-0.0383891984820365,0.7222689986228943,0.3327711522579193,-0.0444993525743484,0.7896889448165894,0.5447589755058289,-0.0168720539659261,0.8051481246948242,0.4328962564468384,-0.0377858877182006,0.7695179581642151,0.3768468797206878,-0.0489682964980602,0.724448561668396,0.3589380979537964,-0.051849115639925
2023-08-01 16:24:57.345117,29,382,0.982229471206665,-0.1180040836334228,-0.0061673955060541,-0.145815908908844,-0.25439453125,0.923828125,0.38720703125,0.6445790529251099,0.8245795965194702,-3.367725867065019e-07,0.5997003316879272,0.6998332142829895,-0.0066333007998764,0.5874100923538208,0.549096405506134,-0.0075793834403157,0.5818920731544495,0.4379923343658447,-0.0176043901592493,0.5937320590019226,0.3498276472091675,-0.025547681376338,0.6698831915855408,0.4649151861667633,0.05247513204813,0.6878104209899902,0.3693524897098541,0.0251738149672746,0.6811888813972473,0.3234186768531799,-0.0068758516572415,0.6657593846321106,0.3096380233764648,-0.0260355249047279,0.7173157930374146,0.4754786789417267,0.036410242319107,0.7520021200180054,0.3514752984046936,0.0011277003213763,0.726816713809967,0.3142876029014587,-0.0348834358155727,0.681336522102356,0.3314692974090576,-0.0511395744979381,0.7578520774841309,0.501976728439331,0.0127361034974455,0.80879145860672,0.3730111718177795,-0.0160771701484918,0.7765288352966309,0.3288455307483673,-0.0381827652454376,0.7269110083580017,0.3405748903751373,-0.0451115295290946,0.7891194224357605,0.5456548929214478,-0.0133195361122488,0.8057901859283447,0.4372062683105469,-0.0334685258567333,0.7781611680984497,0.3774229884147644,-0.0453842245042324,0.7380084991455078,0.3568963408470154,-0.048667874187231
2023-08-01 16:24:57.408052,30,383,0.985944926738739,-0.1035244911909103,-0.0105511397123336,-0.1307057738304138,-0.17822265625,0.91455078125,0.3095703125,0.6523420214653015,0.82823646068573,-3.8207238617360417e-07,0.6121079921722412,0.7026387453079224,-0.0027150337118655,0.5998588800430298,0.5610226392745972,0.0005387273267842,0.5962257385253906,0.4545318782329559,-0.0059314277023077,0.6078968048095703,0.3699790835380554,-0.0098547078669071,0.6749856472015381,0.4864672124385834,0.064158871769905,0.6924008131027222,0.3949374258518219,0.0437371879816055,0.6807020902633667,0.3522661924362182,0.01677848957479,0.6622559428215027,0.3375006914138794,0.0008935147779993,0.7154775857925415,0.4915565550327301,0.0498965606093406,0.7415838241577148,0.377134621143341,0.0240926966071128,0.7178491353988647,0.3433735370635986,-0.0054559265263378,0.6789700984954834,0.3565442562103271,-0.0188374537974596,0.7528994679450989,0.5101024508476257,0.0277874711900949,0.7925530076026917,0.3914112448692322,0.006286934018135,0.7662668824195862,0.3536816537380218,-0.0101973237469792,0.7257372736930847,0.367519736289978,-0.0143775958567857,0.7849367260932922,0.5428681373596191,0.0032357396557927,0.8018214702606201,0.4418080747127533,-0.0082278968766331,0.7812494039535522,0.3869543671607971,-0.0141248060390353,0.7487431168556213,0.3690317273139953,-0.0143082784488797
2023-08-01 16:24:57.473698,31,384,0.9890725016593932,-0.0893219634890556,-0.0132412463426589,-0.1165410727262497,-0.15771484375,0.91015625,0.2578125,0.6475504040718079,0.8137713670730591,-3.211762873434054e-07,0.6108235120773315,0.6976991295814514,-0.0024949577637016,0.6015612483024597,0.5589758157730103,0.001322396332398,0.5975553393363953,0.4581124782562256,-0.0035619405098259,0.6060506701469421,0.3772940635681152,-0.0063429102301597,0.6756558418273926,0.4873672127723694,0.0569793917238712,0.6919605731964111,0.4043705463409424,0.038684993982315,0.6815910339355469,0.3642503321170807,0.0147711830213665,0.6652114987373352,0.3466864228248596,0.0001166963629657,0.7163676023483276,0.4905480742454529,0.0431297235190868,0.7462359070777893,0.3811470866203308,0.019957473501563,0.7229874730110168,0.3482004106044769,-0.0057665021158754,0.6841284036636353,0.3603938519954681,-0.0169189907610416,0.7522359490394592,0.5096670985221863,0.0222297348082065,0.7969127893447876,0.3950130939483642,0.0029709052760154,0.7692225575447083,0.3538247048854828,-0.0105799073353409,0.7267740368843079,0.3601423501968384,-0.0134837795048952,0.7809346318244934,0.5454564690589905,-0.0010440198238939,0.7965379357337952,0.451352596282959,-0.0128281246870756,0.7751951813697815,0.3978937268257141,-0.0185783691704273,0.7425994873046875,0.3766517043113708,-0.0186126343905925
2023-08-01 16:24:57.537195,32,385,0.992086946964264,-0.0760526433587074,-0.0174095779657363,-0.0983688682317733,-0.09814453125,0.892578125,0.27392578125,0.6525456309318542,0.8193678855895996,-3.4222392741867225e-07,0.6115906834602356,0.7047447562217712,0.0013379689771682,0.6016244292259216,0.5667195916175842,0.0079412357881665,0.5991897583007812,0.4660026133060455,0.0048530674539506,0.6057596802711487,0.3847396373748779,0.0038553359918296,0.672946572303772,0.4957559108734131,0.0653953030705452,0.6886038184165955,0.4113158583641052,0.0490588136017322,0.6796692609786987,0.3720071017742157,0.0254556760191917,0.6640269756317139,0.3585256934165954,0.0115167573094367,0.7107808589935303,0.4998961091041565,0.0504222251474857,0.7376607060432434,0.3935941457748413,0.02859459631145,0.7174210548400879,0.3615652024745941,0.0020091745536774,0.6807347536087036,0.3740887939929962,-0.0095749180763959,0.74546217918396,0.5171661376953125,0.0282581895589828,0.7811533212661743,0.4094440937042236,0.0109300855547189,0.7555955052375793,0.3731198012828827,-0.0041437274776399,0.7160770893096924,0.38270103931427,-0.0081471437588334,0.7765028476715088,0.5482802391052246,0.0038945705164223,0.7937353849411011,0.453908771276474,-0.004443347454071,0.7742346525192261,0.4020034670829773,-0.0093360310420393,0.7425157427787781,0.3832124769687652,-0.0094355437904596
2023-08-01 16:24:57.596896,33,386,0.994213879108429,-0.0657775849103927,-0.0207386203110218,-0.0823524296283721,-0.09423828125,0.93310546875,0.27880859375,0.6427878737449646,0.8132950067520142,-3.419376355395798e-07,0.6057573556900024,0.6935538053512573,0.0060256398282945,0.5980395078659058,0.5679677724838257,0.0154495257884264,0.5954370498657227,0.4743302762508392,0.0145255411043763,0.6083340644836426,0.4017221629619598,0.0155733432620763,0.6663024425506592,0.5157127380371094,0.076248712837696,0.6819252371788025,0.4349195659160614,0.0643487721681594,0.6685190796852112,0.3966509103775024,0.0429245345294475,0.6472401022911072,0.3833767771720886,0.0301826149225235,0.6990917325019836,0.5189338326454163,0.0617803558707237,0.7234240770339966,0.4222294390201568,0.0465114973485469,0.7028884291648865,0.387944221496582,0.0215826630592346,0.6676113605499268,0.3919759392738342,0.0089993281289935,0.7301422357559204,0.5328023433685303,0.0400228425860405,0.7599470019340515,0.433961808681488,0.0275645200163126,0.7355049252510071,0.3944375514984131,0.012482120655477,0.6980464458465576,0.3960255682468414,0.006874140817672,0.7575001120567322,0.5560823678970337,0.016421964392066,0.7693986296653748,0.4706478714942932,0.0125978207215666,0.7512261867523193,0.4216746389865875,0.0083602797240018,0.7219195365905762,0.4017765820026397,0.007407549303025
2023-08-01 16:24:57.658527,34,387,0.995829701423645,-0.0560435354709625,-0.0192653108388185,-0.0693620592355728,-0.1064453125,0.95458984375,0.1845703125,0.6430277824401855,0.7931842803955078,-3.204580423243897e-07,0.6065565943717957,0.6866319179534912,0.0016315552638843,0.5967910885810852,0.5678519606590271,0.0079884212464094,0.5922978520393372,0.4785696864128113,0.0056607355363667,0.5983823537826538,0.4079696238040924,0.0055007301270961,0.6655371785163879,0.5151534676551819,0.0627599135041236,0.6750413775444031,0.4390971660614013,0.0503507852554321,0.6604428887367249,0.4033218622207641,0.0302132684737443,0.6401219367980957,0.3876135945320129,0.0179115943610668,0.6965101361274719,0.514661431312561,0.0510090999305248,0.7133445739746094,0.4205141365528106,0.0354254245758056,0.6910146474838257,0.389830619096756,0.011992615647614,0.6563195586204529,0.3945378959178924,0.000422362005338,0.7253913283348083,0.527024507522583,0.0329379513859748,0.7536343336105347,0.4298678636550903,0.0199883542954921,0.7297868728637695,0.3956551551818847,0.0071802148595452,0.6936081051826477,0.4005045294761657,0.0033784790430217,0.7509426474571228,0.5514090061187744,0.0129517065361142,0.7637580633163452,0.4682450294494629,0.0065004299394786,0.7456059455871582,0.4204665422439575,0.0022716363891959,0.7157774567604065,0.4017871618270874,0.0022537435870617
2023-08-01 16:24:57.717291,35,388,0.9968234300613404,-0.0489981286227703,-0.0270996559411287,-0.0566375032067298,0.12841796875,0.97998046875,0.21435546875,0.6387028694152832,0.7854089736938477,-2.9534390932894894e-07,0.60133296251297,0.6822978258132935,0.0031881793402135,0.593002200126648,0.5659502744674683,0.0101446909829974,0.5902310609817505,0.4794895648956299,0.0080830175429582,0.6015933752059937,0.4151064753532409,0.0079013472422957,0.6615556478500366,0.5180947184562683,0.0634792894124984,0.6736379265785217,0.4439666271209717,0.0510152392089366,0.6616911292076111,0.4098324775695801,0.0313220173120498,0.6447411775588989,0.4003334045410156,0.0199333857744932,0.6936636567115784,0.5204294919967651,0.0506578646600246,0.7159504890441895,0.428652822971344,0.0331857502460479,0.6951538920402527,0.3991003632545471,0.0094671426340937,0.661747395992279,0.4101079106330871,-0.0009804458823055,0.7228233814239502,0.5332545638084412,0.0315685383975505,0.7511847019195557,0.442113310098648,0.0180353596806526,0.7250685691833496,0.4078693985939026,0.0039612525142729,0.6888371706008911,0.4143851995468139,-3.8909402064746246e-05,0.7477092146873474,0.5560891032218933,0.0107796033844351,0.7584134340286255,0.4765065908432007,0.0050374548882246,0.7386531829833984,0.4310232400894165,0.0005179804284125,0.7095844745635986,0.4149854779243469,0.000324090156937
2023-08-01 16:24:57.781978,36,389,0.9979869723320008,-0.0394698642194271,-0.0268031284213066,-0.04177962616086,-0.068359375,0.9609375,0.1904296875,0.6355714797973633,0.781197190284729,-2.881195655390912e-07,0.6003280282020569,0.6797003149986267,0.0038469049613922,0.5906612277030945,0.5683423280715942,0.010190418921411,0.587263286113739,0.4852127134799957,0.0074695511721074,0.5991489291191101,0.4222563505172729,0.006315114442259,0.6590248942375183,0.5271186232566833,0.0627798214554786,0.670554518699646,0.4559878706932068,0.0501286312937736,0.6592872142791748,0.4213749170303345,0.0299985017627477,0.6414167284965515,0.4100456535816192,0.0181375201791524,0.690540075302124,0.530441403388977,0.0493160784244537,0.7141091227531433,0.4428864419460296,0.0317707024514675,0.6944579482078552,0.4105214476585388,0.0076750828884541,0.6593442559242249,0.4166164994239807,-0.0034835087135434,0.718856692314148,0.5436026453971863,0.0296381544321775,0.747613787651062,0.4557399451732635,0.0154641596600413,0.7227861881256104,0.417237639427185,0.0006422878359444,0.6850978136062622,0.4171633720397949,-0.0040661869570612,0.7423207759857178,0.5656230449676514,0.0084194475784897,0.7518690824508667,0.4879834651947021,0.0011181066511198,0.732968270778656,0.4405694603919983,-0.0046479180455207,0.7037834525108337,0.4200799465179443,-0.0058216908946633
2023-08-01 16:24:57.850169,37,390,0.9987249374389648,-0.0301686469465494,-0.0304764844477176,-0.0266361255198717,0.01416015625,0.94140625,0.1552734375,0.6272608637809753,0.7935512065887451,-3.6195302755004377e-07,0.5932077765464783,0.695820689201355,0.0025752717629075,0.58384108543396,0.5910587906837463,0.0084810983389616,0.5780699849128723,0.5102052688598633,0.0060875210911035,0.5871296525001526,0.4488320052623749,0.0051489034667611,0.6444260478019714,0.5530523657798767,0.057763572782278,0.6497204899787903,0.4829474985599518,0.0459927208721637,0.6355148553848267,0.4515231251716614,0.0271309930831193,0.6174226999282837,0.4389386773109436,0.0156963318586349,0.6722166538238525,0.5546949505805969,0.046064306050539,0.6841636896133423,0.4717275202274322,0.0311822444200515,0.6622342467308044,0.4432443380355835,0.0088186105713248,0.6308817863464355,0.4437982738018036,-0.0028341959696263,0.6993177533149719,0.5649741291999817,0.0285830534994602,0.7225816249847412,0.4798323810100555,0.0146637456491589,0.6984848380088806,0.4512137174606323,0.0013107389677315,0.6649460792541504,0.4550859332084656,-0.0030291287694126,0.722584068775177,0.5841659307479858,0.0097120385617017,0.7289726734161377,0.5102380514144897,0.002681435784325,0.711764931678772,0.4690774381160736,-0.0016504540108144,0.6864781379699707,0.4519293308258056,-0.0022090664133429
2023-08-01 16:24:57.909459,38,391,0.999036431312561,-0.0248004756867885,-0.0322652868926525,-0.016431950032711,0.123046875,0.95068359375,0.14990234375,0.6247775554656982,0.7859451770782471,-2.9607835472234e-07,0.5926867127418518,0.6971443891525269,0.0025139723438769,0.5829276442527771,0.5958139896392822,0.0077985650859773,0.5779622793197632,0.5196337699890137,0.0052480264566838,0.5862776637077332,0.4592979848384857,0.0040250434540212,0.6404570937156677,0.5539509654045105,0.0532605573534965,0.6490431427955627,0.4910185039043426,0.0421388521790504,0.6370970606803894,0.4619808495044708,0.0249396283179521,0.6207804679870605,0.4485951066017151,0.0142971882596611,0.6685457229614258,0.5558034777641296,0.0415548495948314,0.6845315098762512,0.4777892827987671,0.0265990495681762,0.6642289757728577,0.4545272588729858,0.0064852177165448,0.6337611079216003,0.4591519236564636,-0.0032472955062985,0.6943318843841553,0.5666775703430176,0.0243967063724994,0.7184433937072754,0.4852866530418396,0.0110910879448056,0.6951637268066406,0.4571176469326019,-0.000618532532826,0.6627686023712158,0.4589017629623413,-0.004132617264986,0.7159778475761414,0.5858180522918701,0.0058681624941527,0.7220555543899536,0.5148763060569763,-0.0015335850184783,0.7020933628082275,0.4766044914722442,-0.0060186833143234,0.6747196316719055,0.4602565169334411,-0.006771127693355
2023-08-01 16:24:57.968164,39,392,0.9991615414619446,-0.0203859061002731,-0.0348041951656341,-0.0070185787044465,0.09033203125,0.97265625,0.15234375,0.6235703825950623,0.7885871529579163,-2.395869387328276e-07,0.5885022878646851,0.7034927010536194,0.0033207500819116,0.5778286457061768,0.6077558398246765,0.0101132644340395,0.5715208649635315,0.5337812900543213,0.0090471478179097,0.5846450924873352,0.4823673963546753,0.0092682568356394,0.6328573822975159,0.5697433948516846,0.0579542629420757,0.6393989324569702,0.5096818804740906,0.0501071363687515,0.6308900713920593,0.4803030490875244,0.0348113477230072,0.6198915839195251,0.4699026644229889,0.0256429817527532,0.6594882607460022,0.569398045539856,0.0473410487174987,0.6742478609085083,0.4974419176578522,0.0361498594284057,0.6583356857299805,0.4700965285301208,0.0171105433255434,0.6326870918273926,0.4739055335521698,0.0078561184927821,0.6851896643638611,0.5765016078948975,0.0312345698475837,0.7039578557014465,0.5037265419960022,0.0210496224462986,0.6839960217475891,0.4747590124607086,0.0093794548884034,0.6553875207901001,0.478718638420105,0.0058595654554665,0.7075187563896179,0.5900182127952576,0.0137833571061491,0.714897096157074,0.5215966701507568,0.0099404389038681,0.699656069278717,0.4843408763408661,0.0071444930508732,0.6766695380210876,0.4719322919845581,0.0074568651616573
2023-08-01 16:24:58.054108,40,393,0.9992304444313048,-0.0128912096843123,-0.0366420745849609,0.005446933209896,0.076171875,0.98828125,0.1376953125,0.617013156414032,0.7775228023529053,-2.1564297014720069e-07,0.5862502455711365,0.69919353723526,0.002977032912895,0.5758559703826904,0.6065963506698608,0.0084174992516636,0.5690488815307617,0.5387213826179504,0.0068453513085842,0.5779157280921936,0.4851649701595306,0.0063865333795547,0.6330636143684387,0.5701216459274292,0.0486235804855823,0.640649676322937,0.5122766494750977,0.0397578403353691,0.6304383277893066,0.4831922650337219,0.0254237502813339,0.6161891222000122,0.4728567898273468,0.0170082487165927,0.6598863005638123,0.5722421407699585,0.0377540588378906,0.6791559457778931,0.5007675290107727,0.0261229462921619,0.661132276058197,0.4741093516349792,0.0094084562733769,0.6327902674674988,0.4779240190982818,0.0017060410464182,0.6842625141143799,0.5829579830169678,0.0219289772212505,0.7080109715461731,0.5094761848449707,0.0105499448254704,0.684526264667511,0.4773907363414764,-0.0001649732002988,0.6528589129447937,0.4767166376113891,-0.003104300936684,0.7023982405662537,0.6000475883483887,0.0050752935931086,0.705224335193634,0.5336787104606628,-0.0025696118827909,0.6843374967575073,0.4971877932548523,-0.0070399097166955,0.6581947207450867,0.4828323125839233,-0.0074500059708952
2023-08-01 16:24:58.128125,41,394,0.9992261528968812,-0.005638095550239,-0.0352769009768962,0.0164569318294525,0.20556640625,0.9619140625,0.05712890625,0.6181445717811584,0.7769722938537598,-2.2111264286195365e-07,0.5866155624389648,0.7030061483383179,0.0023303646594285,0.5754454731941223,0.6107316017150879,0.008129708468914,0.5683544278144836,0.5401236414909363,0.006946952547878,0.5808123350143433,0.4889355897903442,0.0067808246240019,0.6299310326576233,0.5754073858261108,0.0499268434941768,0.6369839906692505,0.5176541805267334,0.0425074733793735,0.628535807132721,0.4874539971351623,0.0289720613509416,0.6169363856315613,0.4755894541740417,0.0205217245966196,0.6565126180648804,0.5779417157173157,0.0395904928445816,0.6752768158912659,0.5066603422164917,0.0281844418495893,0.6586884260177612,0.4794535636901855,0.0109337912872433,0.6315612196922302,0.481939285993576,0.0028703068383038,0.6811536550521851,0.5887730121612549,0.0243062172085046,0.7045068144798279,0.5143246054649353,0.0125362910330295,0.6823906302452087,0.4831950068473816,0.0007757754647172,0.6522253155708313,0.4826326966285705,-0.0028238822706043,0.6999751329421997,0.6047228574752808,0.0080163590610027,0.6991336941719055,0.5388326644897461,-0.0009958958253264,0.677259624004364,0.5036970376968384,-0.0069967922754585,0.6515698432922363,0.4903512895107269,-0.008423464372754
2023-08-01 16:24:58.204166,42,395,0.999170422554016,-0.0045119561254978,-0.0362972430884838,0.0179000124335289,0.0830078125,0.9560546875,0.09814453125,0.615584135055542,0.7726473212242126,-2.258621236705949e-07,0.5850580334663391,0.7016583681106567,0.001415197039023,0.5742697715759277,0.612038791179657,0.0059533580206334,0.5675429105758667,0.5449823141098022,0.0040173581801354,0.5793877243995667,0.4930535554885864,0.0033081893343478,0.6296733021736145,0.5754645466804504,0.0453882366418838,0.6368623971939087,0.5179126262664795,0.0357385948300361,0.6259990930557251,0.4895884394645691,0.0213160440325737,0.6116671562194824,0.4816534519195556,0.0130392834544181,0.6551821231842041,0.5769180059432983,0.0356977023184299,0.6715614199638367,0.5061504244804382,0.0243206899613142,0.6531222462654114,0.4777242541313171,0.0079608876258134,0.6246529817581177,0.4796648621559143,0.0003578766772989,0.6791521310806274,0.5872622728347778,0.0211151894181966,0.7016146183013916,0.5139984488487244,0.009611495770514,0.6800202131271362,0.4831523597240448,-0.0006068532238714,0.6502609848976135,0.4830076694488525,-0.0032388709951192,0.6981214880943298,0.6038544774055481,0.0054458114318549,0.6990747451782227,0.5400462746620178,-0.0035375468432903,0.678532063961029,0.5056284070014954,-0.008540847338736,0.6532995104789734,0.4927253425121307,-0.0090316403657197
2023-08-01 16:24:58.269037,43,396,0.9990968108177184,-0.0046909740194678,-0.037844467908144,0.0187490489333868,0.10009765625,0.96435546875,0.142578125,0.6124682426452637,0.7799646854400635,-2.423519731564739e-07,0.5795071125030518,0.7078379392623901,0.0015257120830938,0.5680800080299377,0.6216225028038025,0.0078052757307887,0.5617071986198425,0.5537539124488831,0.0077160662040114,0.5729498267173767,0.5058989524841309,0.0089513305574655,0.620938241481781,0.5941430330276489,0.0501468107104301,0.6255478858947754,0.5359519720077515,0.0443905182182788,0.6166569590568542,0.5069482922554016,0.0317173674702644,0.6048396229743958,0.4957422912120819,0.0239087156951427,0.6435458064079285,0.5930816531181335,0.0425342097878456,0.6525062322616577,0.5253653526306152,0.0342769846320152,0.6372200846672058,0.4971559345722198,0.0173512306064367,0.6133710145950317,0.4957050085067749,0.0082004060968756,0.6666545867919922,0.5982639789581299,0.0301086939871311,0.6813614368438721,0.529216468334198,0.0211885925382375,0.6628962159156799,0.5015338659286499,0.0092518264427781,0.6361555457115173,0.5020699501037598,0.0046269763261079,0.6883144974708557,0.6085596084594727,0.0166525561362504,0.6934700012207031,0.5464567542076111,0.011590682901442,0.6774579882621765,0.513777494430542,0.007175538688898,0.6540971398353577,0.5031899213790894,0.0059690615162253
2023-08-01 16:24:58.332001,44,397,0.9991322159767152,-0.004393280018121,-0.0369086265563964,0.0187899619340896,0.15673828125,0.974609375,0.1171875,0.6090202331542969,0.7714220285415649,-1.8984775351782448e-07,0.5785185694694519,0.7051307559013367,-2.03441122721415e-05,0.5683861374855042,0.6229591965675354,0.0036098747514188,0.5629876255989075,0.5589747428894043,0.0014945237198844,0.5722109079360962,0.5073920488357544,0.0007766343769617,0.6213317513465881,0.5881329774856567,0.0422541908919811,0.6265479326248169,0.5339114665985107,0.0340384915471077,0.6151574850082397,0.5064494013786316,0.0203832350671291,0.6012037992477417,0.4945044815540313,0.0117649491876363,0.6438916325569153,0.5884622931480408,0.0339891910552978,0.6559019684791565,0.5207338333129883,0.0232719201594591,0.6361562609672546,0.4937546551227569,0.0065514827147126,0.608948826789856,0.4934270083904266,-0.0021761911921203,0.6659815311431885,0.59637051820755,0.0212743729352951,0.6839740872383118,0.5256012082099915,0.0105734821408987,0.6622150540351868,0.4978183507919311,0.0002184705954277,0.6340946555137634,0.4994431138038635,-0.003093258710578,0.6857815980911255,0.6110163927078247,0.0073977038264274,0.6914926767349243,0.5492234230041504,-0.000506144715473,0.674100399017334,0.5140005350112915,-0.0053894310258328,0.6505856513977051,0.5014388561248779,-0.0063906917348504
2023-08-01 16:24:58.398646,45,398,0.9991508722305298,-0.0048475135117769,-0.0371137671172618,0.0172231774777174,0.1220703125,0.97607421875,0.095703125,0.6109440922737122,0.7711934447288513,-2.088233372887771e-07,0.579903781414032,0.7100434899330139,-0.0024518265854567,0.5686607360839844,0.6234090328216553,-0.000250608602073,0.5617780089378357,0.5577014684677124,-0.0032157464884221,0.5747680068016052,0.508915364742279,-0.0048611261881887,0.6207300424575806,0.5896123647689819,0.0353647917509079,0.6275424957275391,0.5328320860862732,0.0243810415267944,0.6170085668563843,0.5043331384658813,0.0103741632774472,0.6037301421165466,0.4953827857971191,0.0023966177832335,0.6450368165969849,0.5908713936805725,0.0277913734316825,0.6601424217224121,0.5217137932777405,0.0151304174214601,0.6410121321678162,0.4923403263092041,-0.0003847680636681,0.6134285926818848,0.4920580685138702,-0.0074838208965957,0.6685864925384521,0.600567102432251,0.0156541690230369,0.6889743208885193,0.5284708738327026,0.0026647015474736,0.6671290397644043,0.499169647693634,-0.0071053029969334,0.6387596130371094,0.4993956983089447,-0.0092146852985024,0.6879143118858337,0.6157458424568176,0.002359491540119,0.689864993095398,0.5519741773605347,-0.0082582822069525,0.6705886721611023,0.5172237157821655,-0.0136616742238402,0.6470542550086975,0.5046828985214233,-0.0142860142514109
2023-08-01 16:24:58.472619,46,399,0.9991862773895264,-0.0057645738124847,-0.036830861121416,0.015392511151731,0.09765625,0.9697265625,0.10791015625,0.6113825440406799,0.7740637063980103,-2.0165715852726865e-07,0.5798208713531494,0.7124419808387756,-0.0018010557396337,0.5687106847763062,0.6248117685317993,0.0005695164436474,0.5612821578979492,0.5587241649627686,-0.0023693745024502,0.5758049488067627,0.5112942457199097,-0.0038779890164732,0.6207349896430969,0.5909016728401184,0.0364644527435302,0.6272227764129639,0.5343591570854187,0.026178166270256,0.6173774003982544,0.5062796473503113,0.0127378525212407,0.6054621934890747,0.4973428249359131,0.0048965401947498,0.6449955105781555,0.5924240946769714,0.0286317821592092,0.6598364114761353,0.5223272442817688,0.0161724910140037,0.6420242786407471,0.4943382740020752,0.0011871827300637,0.6158156991004944,0.4965612888336181,-0.0053304894827306,0.6686340570449829,0.602383017539978,0.0162901282310485,0.6888083219528198,0.5289169549942017,0.0038361009210348,0.6674512028694153,0.500735878944397,-0.0054935850203037,0.6396622061729431,0.5029123425483704,-0.0072749615646898,0.6888778805732727,0.6181750893592834,0.0027925665490329,0.6901196241378784,0.5545133948326111,-0.0074429614469408,0.6708031892776489,0.5204389095306396,-0.0128728784620761,0.6476202607154846,0.508732259273529,-0.0134935770183801
2023-08-01 16:24:58.530087,47,400,0.9992006421089172,-0.0066302809864282,-0.0367600619792938,0.0142395291477441,0.05859375,0.9716796875,0.15869140625,0.6110948324203491,0.7724882364273071,-1.9711188770088486e-07,0.5803053975105286,0.7091497182846069,-0.0028534259181469,0.5691483616828918,0.6241235136985779,-0.0014801656361669,0.5625653862953186,0.5586418509483337,-0.0053440956398844,0.5762958526611328,0.5091369152069092,-0.0077964928932487,0.6213540434837341,0.589913010597229,0.0350797548890113,0.6282321810722351,0.5315912961959839,0.0231678131967782,0.6173977255821228,0.5037246346473694,0.0084019042551517,0.6041797995567322,0.4956454932689667,-0.00016801104357,0.6454777717590332,0.5916109681129456,0.0273669697344303,0.661089301109314,0.5208010077476501,0.0134060159325599,0.6417502760887146,0.4929947555065155,-0.0028671408072113,0.6139483451843262,0.4948435425758362,-0.0103309014812111,0.6687692999839783,0.601836621761322,0.0150143764913082,0.6899027228355408,0.5278632640838623,0.001301247975789,0.6673668622970581,0.5005047917366028,-0.0088057555258274,0.6383920907974243,0.5031071901321411,-0.0111069940030574,0.6885321140289307,0.6183114051818848,0.0014422020176425,0.6910499930381775,0.555442214012146,-0.0095417881384491,0.671301543712616,0.5225585103034973,-0.0153221301734447,0.6471097469329834,0.5119165778160095,-0.0162450056523084
2023-08-01 16:24:58.593477,48,401,0.9992300868034364,-0.0061264000833034,-0.0361060947179794,0.0140711879357695,0.14208984375,0.9912109375,0.10498046875,0.6112754940986633,0.774264395236969,-2.0249756005341626e-07,0.5803974866867065,0.7090204954147339,-0.0023064957931637,0.5696905255317688,0.6230080127716064,-0.0005703989882022,0.5627835988998413,0.556704044342041,-0.0041897045448422,0.5773073434829712,0.5090933442115784,-0.0065986928530037,0.6208205819129944,0.5912964344024658,0.0365545973181724,0.6278831362724304,0.5343531370162964,0.025398725643754,0.6179190278053284,0.5061250329017639,0.0109006948769092,0.6060722470283508,0.4963546395301819,0.002099335193634,0.6452042460441589,0.5933194160461426,0.0287774372845888,0.660747230052948,0.5229131579399109,0.0148073136806488,0.6420252323150635,0.4957964420318603,-0.0021420351695269,0.6155183911323547,0.4964599311351776,-0.0101933823898434,0.6690948009490967,0.603551983833313,0.0164632722735404,0.6913679242134094,0.5288486480712891,0.0024006231687963,0.6689127087593079,0.5018405318260193,-0.0086994003504514,0.6404698491096497,0.5038315653800964,-0.0117030376568436,0.6893099546432495,0.6197989583015442,0.0030992305837571,0.6900370121002197,0.5567302703857422,-0.0080281123518943,0.6693292856216431,0.5243580937385559,-0.0144235771149396,0.6454975008964539,0.5132416486740112,-0.015926556661725
2023-08-01 16:24:58.650454,49,402,0.9992653131484984,-0.0066470266319811,-0.0354676619172096,0.0129137327894568,0.13134765625,0.9931640625,0.068359375,0.6111952662467957,0.7704730033874512,-1.9523595540249522e-07,0.5805860161781311,0.708195149898529,-0.002999220509082,0.5692713856697083,0.6230178475379944,-0.002229125238955,0.5632482171058655,0.5569528341293335,-0.0065919100306928,0.5778811573982239,0.5060994625091553,-0.0095530739054083,0.6232196092605591,0.5875216126441956,0.0334837287664413,0.6307879090309143,0.5289419293403625,0.0210164822638034,0.6197957992553711,0.5011537075042725,0.0062057478353381,0.6067717671394348,0.4944123029708862,-0.0021494319662451,0.647507905960083,0.5896990895271301,0.0256387237459421,0.6642576456069946,0.5182687640190125,0.0117640467360615,0.6454133987426758,0.490580677986145,-0.0038205669261515,0.618403971195221,0.4936941266059875,-0.0107774632051587,0.6706045866012573,0.6004599332809448,0.0131511706858873,0.69287109375,0.5257686972618103,-0.0005576302646659,0.6699753403663635,0.4980745911598205,-0.0100014749914407,0.6411048173904419,0.5008465647697449,-0.0119056282564997,0.6897010803222656,0.6175168752670288,-0.0005396801279857,0.691489577293396,0.5539742112159729,-0.0117329265922307,0.6705867052078247,0.520896852016449,-0.0172346383333206,0.6459445357322693,0.5101437568664551,-0.017915615811944
2023-08-01 16:24:58.711993,50,403,0.9992915391921996,-0.0095412349328398,-0.0350804850459098,0.0097371116280555,0.14892578125,0.962890625,0.11181640625,0.6107471585273743,0.7742446660995483,-2.0183685478514238e-07,0.5793787837028503,0.7099348306655884,-0.0025557284243404,0.5693511366844177,0.6227861642837524,-0.000912811490707,0.5627222061157227,0.5556105375289917,-0.0044865803793072,0.5777696967124939,0.5073360204696655,-0.0068616103380918,0.6206926107406616,0.5884793400764465,0.0356398411095142,0.6284871697425842,0.5328230857849121,0.0249408315867185,0.6201774477958679,0.5045442581176758,0.0110219428315758,0.6100564002990723,0.4948798716068268,0.0025132000446319,0.6459940075874329,0.5906535983085632,0.0280147548764944,0.6616710424423218,0.520576536655426,0.0144245801493525,0.6444229483604431,0.4943034946918487,-0.0019688268657773,0.6186549663543701,0.4971349239349365,-0.0095494650304317,0.6700990200042725,0.6013987064361572,0.015965374186635,0.6934080123901367,0.526123046875,0.0024565141648054,0.6720178723335266,0.4989627599716186,-0.0081231780350208,0.6437593102455139,0.5017899870872498,-0.0108809154480695,0.6899533867835999,0.6186069846153259,0.0027997845318168,0.6904126405715942,0.5555180907249451,-0.0086210640147328,0.6705944538116455,0.5224334597587585,-0.0152695477008819,0.6472107172012329,0.5110452771186829,-0.0167928896844387
