Timestamp,Index,Frame ID,w,x,y,z,ax,ay,az,x_0,y_0,z_0,x_1,y_1,z_1,x_2,y_2,z_2,x_3,y_3,z_3,x_4,y_4,z_4,x_5,y_5,z_5,x_6,y_6,z_6,x_7,y_7,z_7,x_8,y_8,z_8,x_9,y_9,z_9,x_10,y_10,z_10,x_11,y_11,z_11,x_12,y_12,z_12,x_13,y_13,z_13,x_14,y_14,z_14,x_15,y_15,z_15,x_16,y_16,z_16,x_17,y_17,z_17,x_18,y_18,z_18,x_19,y_19,z_19,x_20,y_20,z_20
2023-08-01 16:24:39.524868,0,111,0.9986194372177124,0.0100041329860687,-0.0439914837479591,0.0269051995128393,0.15966796875,0.966796875,0.08544921875,0.5737304091453552,0.7670570611953735,-2.3316636088566161e-07,0.5453254580497742,0.7046172022819519,-0.0010391110554337,0.5350809097290039,0.6202133893966675,0.0021767863072454,0.5301365852355957,0.553656280040741,-8.192882523871958e-05,0.5463702082633972,0.5042983889579773,-0.0007957132766023,0.5925623178482056,0.5888383388519287,0.0415471903979778,0.5989665985107422,0.535438060760498,0.0336670652031898,0.5879715085029602,0.5076488852500916,0.0207359176129102,0.5745040774345398,0.4958342611789703,0.0126145454123616,0.6156729459762573,0.5916681289672852,0.0341041758656501,0.6289682984352112,0.5266335606575012,0.0250192321836948,0.6113845109939575,0.4986675977706909,0.009954622015357,0.5852697491645813,0.4954102337360382,0.0020620932336896,0.638699471950531,0.6017818450927734,0.0219800751656293,0.6596082448959351,0.5319347381591797,0.0117320790886878,0.6394067406654358,0.4995156824588775,0.0023654580581933,0.6109039783477783,0.4940619170665741,-0.0002925833105109,0.6587353348731995,0.6175668239593506,0.0086811333894729,0.6633819341659546,0.5537910461425781,-0.0003877946874126,0.6461343765258789,0.5162763595581055,-0.0055980063043534,0.622864842414856,0.4991532564163208,-0.0065207756124436
2023-08-01 16:24:39.585257,1,112,0.9988268613815308,0.0072352313436567,-0.042328979820013,0.0223772544413805,0.09228515625,0.9765625,0.09912109375,0.5753238201141357,0.769015371799469,-2.555519813540741e-07,0.5454804301261902,0.7065876126289368,0.0008655913989059,0.5360927581787109,0.6207779049873352,0.0052877482958137,0.5305119156837463,0.5541673302650452,0.0038055868353694,0.5449674129486084,0.5062640905380249,0.0036141646560281,0.5935105085372925,0.5921712517738342,0.0435671471059322,0.5989997982978821,0.5370315313339233,0.0364317521452903,0.5870596170425415,0.5081336498260498,0.0237423293292522,0.5728907585144043,0.4960322976112366,0.0157436039298772,0.6164767146110535,0.5950729250907898,0.0350541807711124,0.629369854927063,0.5285458564758301,0.0261929910629987,0.610296368598938,0.4987223744392395,0.0105499709025025,0.5830108523368835,0.4940952658653259,0.0021892292425036,0.6396827101707458,0.6052877306938171,0.0220515318214893,0.6599775552749634,0.5333348512649536,0.0116147426888346,0.6382483839988708,0.4993637502193451,0.0012863230658695,0.6088418960571289,0.4929057955741882,-0.0020593730732798,0.6592519283294678,0.6201059222221375,0.0081315850839018,0.6619007587432861,0.5538806915283203,-0.0013010788243263,0.6432918310165405,0.5157986283302307,-0.006893768440932,0.6196931600570679,0.4984062612056732,-0.0081755863502621
2023-08-01 16:24:39.645170,2,113,0.9989696741104126,0.0055069695226848,-0.0405884347856044,0.0195408854633569,0.00927734375,0.97802734375,0.18115234375,0.573721706867218,0.7682881951332092,-2.510035983505077e-07,0.5449279546737671,0.7058016061782837,0.0013995342887938,0.5358983278274536,0.6209537386894226,0.0054331021383404,0.5307266116142273,0.5546571612358093,0.0035463019739836,0.5444003343582153,0.5075696110725403,0.0028428786899894,0.5924966335296631,0.5910201668739319,0.04224544018507,0.5991914868354797,0.537636399269104,0.0350238159298896,0.5882026553153992,0.5092750191688538,0.02256447263062,0.5750126838684082,0.4972658455371856,0.0145207252353429,0.6159104108810425,0.5943480730056763,0.03337162733078,0.6296728849411011,0.5287339091300964,0.0246998630464077,0.6116952896118164,0.5000829100608826,0.010018658824265,0.5852257013320923,0.4959526062011719,0.0021515837870538,0.6392334699630737,0.6053978204727173,0.0201239492744207,0.6610904932022095,0.5331617593765259,0.0096312491223216,0.6395447850227356,0.500440239906311,0.000127863313537,0.610171914100647,0.4948220551013946,-0.0028568024281412,0.6586751341819763,0.6216188669204712,0.0060105365701019,0.6608029007911682,0.5559551119804382,-0.0041224616579711,0.6412025690078735,0.5194500684738159,-0.0098221423104405,0.6170836091041565,0.5030957460403442,-0.0111646326258778
2023-08-01 16:24:39.706856,3,114,0.9990223050117492,0.0064421249553561,-0.0382352545857429,0.0212368965148925,0.146484375,0.99072265625,0.0986328125,0.572354793548584,0.7677202820777893,-2.494067246061604e-07,0.5436142683029175,0.7055073976516724,0.0010079296771436,0.5355572700500488,0.6198830604553223,0.0055826078169047,0.5305373072624207,0.5533214807510376,0.0042674727737903,0.5427613258361816,0.5033822059631348,0.0041748885996639,0.5937449932098389,0.5885397791862488,0.0434941686689853,0.601088285446167,0.5336931943893433,0.0367771796882152,0.5898210406303406,0.5059579610824585,0.0246031954884529,0.5758395791053772,0.4945245385169983,0.0169524736702442,0.6174184083938599,0.5929810404777527,0.034748125821352,0.6323089599609375,0.5265229344367981,0.0263242982327938,0.6139675378799438,0.4974363148212433,0.011228927411139,0.5868686437606812,0.4930854141712188,0.0033304134849458,0.6407901644706726,0.6049232482910156,0.0215108823031187,0.6626650094985962,0.5323846340179443,0.0109137510880827,0.640791118144989,0.4990461468696594,0.0006858384585939,0.6113009452819824,0.4926060140132904,-0.0024396327789872,0.6603302955627441,0.621118426322937,0.0074182599782943,0.6624218225479126,0.5533477067947388,-0.0028443192131817,0.6432741284370422,0.515961766242981,-0.0087528703734278,0.6199015378952026,0.4990812540054321,-0.0100141987204551
2023-08-01 16:24:39.770637,4,115,0.9990637302398682,0.0053114793263375,-0.0386225879192352,0.018754206597805,0.17041015625,0.98095703125,0.0126953125,0.5712813138961792,0.7664826512336731,-2.389948861036828e-07,0.5422206521034241,0.7069692015647888,-0.0007994776242412,0.5337790250778198,0.6204720139503479,0.0024294215254485,0.5288202166557312,0.553596556186676,8.6183752046054e-07,0.5417050719261169,0.5046265125274658,-0.0009019277058541,0.5935660600662231,0.5880392789840698,0.0397333316504955,0.5995961427688599,0.5306055545806885,0.030873779207468,0.5881264209747314,0.5017069578170776,0.0175962634384632,0.5745278000831604,0.4914278090000152,0.0096522597596049,0.6165109276771545,0.5914711952209473,0.0315411835908889,0.6320468187332153,0.5242986679077148,0.0221679154783487,0.6131906509399414,0.4941160678863525,0.0081486236304044,0.5863884687423706,0.490214854478836,0.0012650075368583,0.6391441822052002,0.6026293039321899,0.0186428576707839,0.6615185737609863,0.5300484895706177,0.0081386296078562,0.6393283605575562,0.4961963891983032,4.06050676247105e-05,0.6100737452507019,0.4908903837203979,-0.0015544410562142,0.6579714417457581,0.6186526417732239,0.0044960277155041,0.6633190512657166,0.5520956516265869,-0.0046224640682339,0.6447793245315552,0.5146571397781372,-0.0086753368377685,0.6212824583053589,0.4992733299732208,-0.0085754562169313
2023-08-01 16:24:39.832314,5,116,0.9991198182106018,-0.0041951262392103,-0.0410142093896865,0.0077380295842885,0.25634765625,0.98974609375,-0.064453125,0.5701144933700562,0.7671160101890564,-2.535836074457621e-07,0.5405744910240173,0.7045126557350159,-5.712166603188962e-05,0.5336205959320068,0.617853045463562,0.0033588479273021,0.5287312865257263,0.5517539381980896,0.0010681535350158,0.5405109524726868,0.5026106238365173,0.0002349348505958,0.5927492380142212,0.5874285101890564,0.0400995276868343,0.600603461265564,0.5297390222549438,0.0306249987334013,0.5887916088104248,0.5009590983390808,0.0171043258160352,0.5744646191596985,0.491970807313919,0.0092582907527685,0.6161961555480957,0.5914910435676575,0.0316134802997112,0.6329944729804993,0.5235989689826965,0.02178237400949,0.6135203242301941,0.4933949708938598,0.0074854153208434,0.5857712626457214,0.4895063638687134,0.0005772110307589,0.639152467250824,0.6030952334403992,0.0184910036623477,0.6628686189651489,0.5299816727638245,0.0077628483995795,0.6406285166740417,0.4957050085067749,-0.0004935694742016,0.6112041473388672,0.4894666075706482,-0.0021590585820376,0.65739905834198,0.6193142533302307,0.0042450549080967,0.6601203680038452,0.552712082862854,-0.0051432610489428,0.640824556350708,0.5152950286865234,-0.0094177462160587,0.6174079179763794,0.4984568953514099,-0.0093835452571511
2023-08-01 16:24:39.907153,6,117,0.9986642003059388,-0.0298452619463205,-0.0371258556842803,-0.020017109811306,0.1494140625,0.97119140625,0.10302734375,0.5690474510192871,0.7671691179275513,-2.602266135909304e-07,0.54083251953125,0.703438937664032,0.0004223393043503,0.5343360900878906,0.6167052388191223,0.0032210375647991,0.529401957988739,0.5501986145973206,0.0002314122248208,0.5424522161483765,0.5013135671615601,-0.0014245199272409,0.5929727554321289,0.5868180990219116,0.0385047271847724,0.6015900373458862,0.5291736721992493,0.0282663851976394,0.5897817015647888,0.5004963278770447,0.0148229682818055,0.575985848903656,0.4923841953277588,0.0071958578191697,0.6169090270996094,0.5917151570320129,0.029427345842123,0.6350942850112915,0.5224417448043823,0.0190220028162002,0.6157478094100952,0.4929167628288269,0.005183988250792,0.5883255004882812,0.4899379014968872,-0.0011926165316253,0.6403155326843262,0.6043575406074524,0.0158352386206388,0.6658390164375305,0.5288180112838745,0.0044634537771344,0.6430585384368896,0.4948039650917053,-0.0032953058835119,0.6134228110313416,0.489266037940979,-0.0044575165957212,0.6583160161972046,0.6215782165527344,0.0012477081036195,0.6588267683982849,0.5531089305877686,-0.0089011723175644,0.6385021805763245,0.5165411233901978,-0.0131685221567749,0.6154033541679382,0.5004582405090332,-0.0129438657313585
2023-08-01 16:24:39.980147,7,118,0.9968869686126708,-0.0531791858375072,-0.0332214795053005,-0.047798965126276,-0.05810546875,0.95556640625,0.27099609375,0.5677348971366882,0.7607373595237732,-2.4792677777440986e-07,0.5386281609535217,0.6954538226127625,0.0006509337690658,0.5320523381233215,0.6080858707427979,0.0046889996156096,0.5278961062431335,0.5413614511489868,0.0027042985893785,0.5377784967422485,0.4913087487220764,0.0023434706963598,0.5926737189292908,0.5751827359199524,0.0415827520191669,0.6004201173782349,0.5176583528518677,0.0333687029778957,0.5889252424240112,0.4895532131195068,0.0204578898847103,0.5751352310180664,0.479044109582901,0.0125327873975038,0.616116464138031,0.5788106918334961,0.0325739160180091,0.6323237419128418,0.5087863206863403,0.0231558363884687,0.6134667992591858,0.480564683675766,0.0089873243123292,0.5867141485214233,0.478314995765686,0.0023186649195849,0.6390815377235413,0.5908699631690979,0.0190564896911382,0.6636893153190613,0.5152300000190735,0.008566427975893,0.6408886909484863,0.483677864074707,0.0007447345997206,0.611273467540741,0.4803893566131592,-0.0003930724342353,0.6577076315879822,0.6091480255126953,0.0043477485887706,0.6628700494766235,0.5406666994094849,-0.0054070190526545,0.6422004103660583,0.5017811059951782,-0.0098261730745434,0.6170286536216736,0.485025942325592,-0.0096858795732259
2023-08-01 16:24:40.050920,8,119,0.9945324659347534,-0.069324180483818,-0.0325316675007343,-0.0710005536675453,-0.13427734375,0.94140625,0.28759765625,0.568299412727356,0.7583367824554443,-2.550551414515212e-07,0.5381342172622681,0.6908437609672546,0.0013606413267552,0.5312093496322632,0.6030004620552063,0.005218842998147,0.5270581841468811,0.5345945358276367,0.0028177856002002,0.537416398525238,0.4826450049877167,0.0017023074906319,0.5943345427513123,0.567496657371521,0.0430106408894062,0.6036251783370972,0.5089044570922852,0.0332828946411609,0.5917478799819946,0.4801529943943023,0.0189974121749401,0.5769505500793457,0.4725883603096008,0.0104836644604802,0.6194591522216797,0.5737462639808655,0.0326659567654132,0.6396716237068176,0.5026617050170898,0.0218765847384929,0.6216188669204712,0.473289430141449,0.0061832531355321,0.5931622385978699,0.4727864861488342,-0.0015208880649879,0.6428236365318298,0.588970959186554,0.0175044424831867,0.6714246273040771,0.5105504393577576,0.0045988280326128,0.6478068232536316,0.4762031137943268,-0.0058377822861075,0.6159266829490662,0.4728851318359375,-0.0086965160444378,0.6602998971939087,0.6094110608100891,0.0014502918347716,0.6621167659759521,0.5379244685173035,-0.0113251050934195,0.6393389701843262,0.4998221397399902,-0.018078975379467,0.6127920150756836,0.4840759634971618,-0.0195205863565206
2023-08-01 16:24:40.135468,9,120,0.99102121591568,-0.0878357961773872,-0.0339306034147739,-0.0949234440922737,-0.125,0.89990234375,0.3173828125,0.5733431577682495,0.7609031200408936,-1.8796974643464642e-07,0.5383192896842957,0.6882932782173157,-0.002983373356983,0.5298670530319214,0.5897151231765747,-0.0015055218245834,0.5258830189704895,0.5141339302062988,-0.0051340060308575,0.5404825806617737,0.4550445675849914,-0.0070346533320844,0.5978647470474243,0.5464612245559692,0.0385798551142215,0.6086156368255615,0.4780666530132293,0.0287700779736042,0.5979690551757812,0.4444367885589599,0.0134856402873992,0.5809293985366821,0.4286642670631408,0.0031662839464843,0.6273119449615479,0.5550976395606995,0.0291663073003292,0.6436343193054199,0.4775576889514923,0.0173334665596485,0.6268676519393921,0.4406498968601227,-0.0016535609029233,0.5959267020225525,0.4296762347221374,-0.0126852225512266,0.653339147567749,0.5744513869285583,0.0148315075784921,0.6819133162498474,0.4905341863632202,-0.0001783090556273,0.6615873575210571,0.4547649919986725,-0.0151056488975882,0.6283870935440063,0.4473532438278198,-0.0215781163424253,0.6735017895698547,0.6003768444061279,-0.0004948999849148,0.6754744052886963,0.5245128870010376,-0.0178581550717353,0.6529449224472046,0.480400949716568,-0.0294541660696268,0.6238450407981873,0.4579522609710693,-0.0343271046876907
2023-08-01 16:24:40.210402,10,121,0.9870446920394896,-0.1049831956624984,-0.0308400318026542,-0.1173465996980667,-0.28173828125,0.84375,0.43603515625,0.577313244342804,0.7681021690368652,-2.042767022203407e-07,0.5400616526603699,0.6924182772636414,-0.0037547661922872,0.5312108993530273,0.5873336791992188,-0.002756516681984,0.5276541113853455,0.5064785480499268,-0.0071786930784583,0.5418791770935059,0.4441088736057281,-0.0102858208119869,0.6011970043182373,0.5382758378982544,0.0414976477622985,0.6134740114212036,0.4703698754310608,0.0302058570086956,0.603655993938446,0.4372557997703552,0.0131570398807525,0.5880561470985413,0.4239651560783386,0.0021752167958766,0.6340271234512329,0.5469835996627808,0.0318321175873279,0.6552513837814331,0.4664369523525238,0.0180850140750408,0.6370764374732971,0.4316319823265075,-0.0026958261150866,0.6045519113540649,0.4263936281204223,-0.0135808242484927,0.6632710099220276,0.5668072700500488,0.0169868413358926,0.6955927014350891,0.4782404601573944,0.0013893507421016,0.6735556125640869,0.4397168755531311,-0.0131509471684694,0.6389822959899902,0.4330294132232666,-0.0183880217373371,0.6852615475654602,0.5943095684051514,0.0010428167879581,0.6843025088310242,0.5125104188919067,-0.0152907632291316,0.662219226360321,0.4666559994220733,-0.0251382198184728,0.6350991129875183,0.4434989094734192,-0.0281133521348238
2023-08-01 16:24:40.276211,11,122,0.9840039014816284,-0.1156040206551551,-0.0281460750848054,-0.1325892210006714,-0.21826171875,0.87548828125,0.39208984375,0.5748786330223083,0.7748926281929016,-2.631320796808723e-07,0.5400453805923462,0.6963490843772888,-0.0034502488560974,0.5326851010322571,0.5848404169082642,-0.0024969349615275,0.5284634232521057,0.4999073445796966,-0.0076614301651716,0.5424477458000183,0.4341849684715271,-0.0111052505671978,0.6064313054084778,0.5361645817756653,0.0437188185751438,0.6189042925834656,0.4625285863876343,0.0299568325281143,0.604826033115387,0.4289205968379974,0.0114458622410893,0.58528071641922,0.4179908633232116,0.000104834754893,0.6386651396751404,0.5441152453422546,0.0332765690982341,0.6615936160087585,0.4567815363407135,0.0175940655171871,0.6401800513267517,0.4211686253547668,-0.0032207868061959,0.6036575436592102,0.4190550744533539,-0.0133806364610791,0.6674135327339172,0.564521312713623,0.0172225553542375,0.7015165686607361,0.4691706597805023,0.0012362418929114,0.6768395304679871,0.4269910454750061,-0.0119165033102035,0.6383213400840759,0.4196946918964386,-0.0159178040921688,0.689184308052063,0.5939526557922363,-0.0001963536342373,0.6927501559257507,0.5082100629806519,-0.015681330114603,0.6701803803443909,0.4609443843364715,-0.024151649326086,0.6402229070663452,0.4387334287166595,-0.0260370317846536
2023-08-01 16:24:40.331586,12,123,0.9813479781150818,-0.1245127320289611,-0.0224037878215312,-0.1447436362504959,-0.208984375,0.85595703125,0.40283203125,0.5857363343238831,0.797666072845459,-2.578562998678535e-07,0.5454365015029907,0.7085477709770203,0.0004646196321118,0.5387163162231445,0.5815777778625488,0.005969151854515,0.5365104675292969,0.4855261743068695,0.0039979019202291,0.5505645275115967,0.4082950949668884,0.0029850802384316,0.614646315574646,0.5261075496673584,0.0598965398967266,0.6307669878005981,0.452068418264389,0.0547861754894256,0.620466947555542,0.4147399663925171,0.0386473499238491,0.6021258234977722,0.391506552696228,0.025634279474616,0.652546763420105,0.5374329686164856,0.0458544865250587,0.675334095954895,0.4458487033843994,0.0339449420571327,0.6536277532577515,0.4040596783161163,0.0079038683325052,0.6136764883995056,0.3901889622211456,-0.0081210071220994,0.6853153705596924,0.5619529485702515,0.026029173284769,0.726993978023529,0.4599735140800476,0.0084350695833563,0.7033432722091675,0.4127956628799438,-0.0142727643251419,0.6615696549415588,0.3993183970451355,-0.0259364265948534,0.7107076048851013,0.5939396619796753,0.0055548655800521,0.7150834202766418,0.4958239197731018,-0.015777138993144,0.6872389912605286,0.4428403079509735,-0.0320837460458278,0.6507171392440796,0.4164880514144897,-0.0405198559165
2023-08-01 16:24:40.399360,13,124,0.9782804846763612,-0.1347344070672989,-0.0179357547312974,-0.1564998030662536,-0.283203125,0.8564453125,0.4384765625,0.5853208899497986,0.8058837652206421,-2.495144144631922e-07,0.5461586117744446,0.7142751216888428,-0.007435948587954,0.5392648577690125,0.5833163261413574,-0.0071337609551846,0.536313533782959,0.4839662611484527,-0.0135656874626874,0.551982045173645,0.4049067497253418,-0.0175778344273567,0.6201432943344116,0.5247393250465393,0.048843003809452,0.6368160843849182,0.443476140499115,0.0304566361010074,0.6246724724769592,0.4031113684177398,0.0070156352594494,0.6036733984947205,0.3873724639415741,-0.0071078711189329,0.6586893796920776,0.5324482321739197,0.0378217436373233,0.6867818832397461,0.4315370321273803,0.0159050934016704,0.6627720594406128,0.3888631463050842,-0.0096399886533617,0.6189219355583191,0.3886657953262329,-0.0210984870791435,0.6922478675842285,0.5555480718612671,0.0198975224047899,0.7303072214126587,0.4486517310142517,-0.0002203532203566,0.7050762176513672,0.4027246236801147,-0.014360224828124,0.661766529083252,0.4000531733036041,-0.0170422829687595,0.7192912101745605,0.5906590223312378,-0.0002478434762451,0.7292900085449219,0.4947645664215088,-0.017478808760643,0.709776759147644,0.4361802339553833,-0.0263036414980888,0.6782659292221069,0.4082157015800476,-0.0272185746580362
2023-08-01 16:24:40.460125,14,125,0.9740641117095948,-0.148240253329277,-0.0185064822435379,-0.1699456423521042,-0.24267578125,0.83251953125,0.45654296875,0.587513267993927,0.8232237100601196,-2.931593314769998e-07,0.547305166721344,0.7232811450958252,-0.005097490735352,0.5401990413665771,0.586940348148346,-0.0027995414566248,0.5389589071273804,0.4841085076332092,-0.0079873763024806,0.5567373633384705,0.4063306450843811,-0.0108427125960588,0.6181973218917847,0.5267143845558167,0.0543873719871044,0.6354556679725647,0.4409182667732239,0.0359674878418445,0.6254276633262634,0.4006117582321167,0.0117614399641752,0.6055264472961426,0.3848761916160583,-0.0029549468308687,0.6586865782737732,0.5355845093727112,0.0422366484999656,0.6890422701835632,0.4333075284957886,0.018551206216216,0.6683155298233032,0.3908200860023498,-0.0099471425637602,0.6254901885986328,0.3879030346870422,-0.0231359302997589,0.694618821144104,0.55964195728302,0.0230632945895195,0.7357040047645569,0.4506532549858093,0.0013001693878322,0.7138152122497559,0.4006392359733581,-0.0167404245585203,0.6706585884094238,0.3923141360282898,-0.0220475774258375,0.7236083745956421,0.5946356058120728,0.002010511001572,0.7338634729385376,0.4979680776596069,-0.0157730318605899,0.716866672039032,0.4347981810569763,-0.0269048996269702,0.6872750520706177,0.3993849158287048,-0.0299289561808109
2023-08-01 16:24:40.521832,15,126,0.9710962176322936,-0.1530280858278274,-0.0082880025729537,-0.1829911470413208,-0.42919921875,0.8251953125,0.5126953125,0.5949170589447021,0.8338817358016968,-2.693615499538282e-07,0.5520294904708862,0.736899733543396,-0.0099298227578401,0.5414447784423828,0.5906288623809814,-0.0108980890363454,0.5398558378219604,0.4807961583137512,-0.0183639489114284,0.5575562119483948,0.395298421382904,-0.0232985988259315,0.625634491443634,0.521043598651886,0.0486527867615222,0.6431077718734741,0.4350776076316833,0.0302247982472181,0.6330141425132751,0.3919960260391235,0.0058850138448178,0.6125056743621826,0.3714188039302826,-0.0097775999456644,0.668818473815918,0.531987726688385,0.0373946353793144,0.69685298204422,0.4283643960952759,0.0141660748049616,0.6755993366241455,0.3850165605545044,-0.0143127730116248,0.6314885020256042,0.3821553587913513,-0.0282794833183288,0.7068333625793457,0.5587630867958069,0.0189155340194702,0.7487714886665344,0.4454210996627807,-0.0034609006252139,0.7264147400856018,0.3941398859024048,-0.0212118979543447,0.6813564896583557,0.3875462412834167,-0.0266699455678462,0.7381500005722046,0.5976589918136597,-0.0017758257454261,0.7461445331573486,0.4934496879577636,-0.022221740335226,0.7267678380012512,0.4279387593269348,-0.0340356118977069,0.6940985918045044,0.3944718241691589,-0.0371595583856105
2023-08-01 16:24:40.585076,16,127,0.9675307869911194,-0.1601433753967285,-0.0058689396828413,-0.1954579800367355,-0.44140625,0.78466796875,0.5224609375,0.5998265147209167,0.8545023202896118,-2.52840976600055e-07,0.555793046951294,0.7523503303527832,-0.0085563501343131,0.5474013090133667,0.5966172814369202,-0.0083472523838281,0.5441757440567017,0.4789080321788788,-0.0153488311916589,0.5629161596298218,0.3894563615322113,-0.0201237872242927,0.6330239176750183,0.5236796140670776,0.0561385974287986,0.6526247262954712,0.432964563369751,0.0395961329340934,0.6420254707336426,0.3865980505943298,0.0154427755624055,0.6215317249298096,0.363638699054718,-0.0007720516296103,0.6796426773071289,0.5381286144256592,0.0433280356228351,0.7135011553764343,0.4268369078636169,0.0207302812486886,0.6896280646324158,0.3784171342849731,-0.0092037115246057,0.6416264772415161,0.3728740215301513,-0.024176986888051,0.7194112539291382,0.5691035389900208,0.022929536178708,0.7683655619621277,0.4454323053359985,-0.00012806605082,0.742290198802948,0.3876373767852783,-0.0207580532878637,0.6931607127189636,0.3773961663246155,-0.0280368812382221,0.7504730820655823,0.6103790998458862,0.0005660398164764,0.7552651166915894,0.4958395361900329,-0.0223613157868385,0.7297391891479492,0.4295383095741272,-0.0367327257990837,0.6926535367965698,0.3976590037345886,-0.0415182448923587
2023-08-01 16:24:40.644951,17,128,0.9654198884963988,-0.1653281897306442,-0.0042395428754389,-0.2015265524387359,-0.322265625,0.7802734375,0.49609375,0.6012652516365051,0.8759394884109497,-2.752090040303301e-07,0.5565134286880493,0.7680823802947998,-0.0101814186200499,0.5495268702507019,0.604658305644989,-0.0109369335696101,0.5501771569252014,0.4825186133384704,-0.0191050488501787,0.5665366053581238,0.3882369995117187,-0.0242402367293834,0.636705219745636,0.5280315279960632,0.0546716302633285,0.6585536599159241,0.4316069781780243,0.0335733704268932,0.6470685601234436,0.3853042721748352,0.006466700695455,0.6240178942680359,0.3647531569004059,-0.0106352595612406,0.6832970380783081,0.5413890480995178,0.0420274212956428,0.7185121178627014,0.4247769713401794,0.0148785952478647,0.6925241947174072,0.3782047629356384,-0.0163613893091678,0.6425591707229614,0.3773365318775177,-0.0310444328933954,0.7234237790107727,0.5716588497161865,0.02136155590415,0.7725220322608948,0.4446176886558532,-0.0024004504084587,0.7457470297813416,0.386647880077362,-0.0208927318453788,0.6961947083473206,0.3775892257690429,-0.0263874158263206,0.7558403015136719,0.6150712966918945,-0.0018887205515056,0.7711993455886841,0.5002679228782654,-0.0211735609918832,0.7545892000198364,0.4264811873435974,-0.032945092767477,0.724124550819397,0.3868220746517181,-0.0363401249051094
2023-08-01 16:24:40.707108,18,129,0.9634656310081482,-0.1692488342523574,-0.0021689261775463,-0.2075665593147277,-0.36328125,0.78955078125,0.5283203125,0.6102073788642883,0.8995175361633301,-2.7337785013514804e-07,0.5612748861312866,0.7827078104019165,-0.0073303529061377,0.5541855096817017,0.6085906028747559,-0.0048379930667579,0.5555995106697083,0.4838604927062988,-0.0101579092442989,0.5709340572357178,0.3878418803215027,-0.0127721866592764,0.6419947743415833,0.5312328934669495,0.0603661425411701,0.6640064120292664,0.4379717111587524,0.0431998781859874,0.6582027673721313,0.3918386101722717,0.0175683051347732,0.640043318271637,0.3637827336788177,-9.85221704468131e-05,0.6908659338951111,0.5463501811027527,0.045766957104206,0.7269561290740967,0.4295591711997986,0.0196947995573282,0.7045982480049133,0.3830303251743316,-0.0132280327379703,0.6558952927589417,0.3784272074699402,-0.0295865181833505,0.732021689414978,0.5784931182861328,0.0234775524586439,0.7845150232315063,0.4487035274505615,-0.0005703675560653,0.7606933116912842,0.3897275328636169,-0.0206234119832515,0.7115583419799805,0.3780608773231506,-0.0274719465523958,0.7640082240104675,0.6229411363601685,-0.0010601500980556,0.7773793935775757,0.5053457021713257,-0.0216037519276142,0.7614051103591919,0.43045175075531,-0.0342190042138099,0.7320102453231812,0.3877782225608825,-0.0382958017289638
2023-08-01 16:24:40.773044,19,130,0.962455153465271,-0.1700191646814346,0.0002039089740719,-0.2115973085165023,-0.40625,0.7666015625,0.52099609375,0.610376238822937,0.9047293663024902,-2.2075020922329719e-07,0.5619774460792542,0.7894976139068604,-0.0144946668297052,0.5568817853927612,0.6122524738311768,-0.0161377005279064,0.5602701902389526,0.483245849609375,-0.0240251161158084,0.5741400718688965,0.3799392879009247,-0.0286134388297796,0.6483865976333618,0.5216777920722961,0.0476943999528884,0.6759617328643799,0.4197781980037689,0.0222603436559438,0.6735376119613647,0.3695074915885925,-0.0083377342671155,0.6526510715484619,0.3472646176815033,-0.027418753132224,0.703738808631897,0.542316198348999,0.034163448959589,0.7521090507507324,0.4204413294792175,-0.0002259647735627,0.7309322357177734,0.3686550855636596,-0.0363554954528808,0.6749741435050964,0.3718217015266418,-0.0525779910385608,0.7476556897163391,0.5799821019172668,0.0124679952859878,0.8112935423851013,0.4468010365962982,-0.0186287201941013,0.7873457670211792,0.3824674487113952,-0.0394344106316566,0.7326706051826477,0.3740254640579223,-0.0444862619042396,0.7805854082107544,0.6299615502357483,-0.0119007462635636,0.7924959659576416,0.5091907978057861,-0.0408955663442611,0.769921064376831,0.4333058595657348,-0.0559831112623214,0.7307673692703247,0.3952679932117462,-0.0590658336877822
2023-08-01 16:24:40.834158,20,131,0.9622607827186584,-0.1704160571098327,-0.0011431048624217,-0.2121588438749313,-0.43359375,0.76171875,0.49658203125,0.6090039014816284,0.9186770915985109,-2.203569664516181e-07,0.5644779801368713,0.7970936894416809,-0.0168874729424715,0.5600400567054749,0.6176336407661438,-0.0206360034644603,0.5630179643630981,0.4809155166149139,-0.0316308513283729,0.5807263851165771,0.3731291592121124,-0.0390884205698967,0.6493605375289917,0.5258220434188843,0.0541430637240409,0.6760948300361633,0.4206651449203491,0.0276787690818309,0.6709023118019104,0.3692207932472229,-0.0042686224915087,0.6512969136238098,0.3411913812160492,-0.0245346520096063,0.7043392062187195,0.5421933531761169,0.0419756919145584,0.7424765825271606,0.4151459336280823,0.0066931885667145,0.7196934819221497,0.3637809753417969,-0.0315499342978,0.6674975752830505,0.3609189987182617,-0.0493943504989147,0.7500900626182556,0.5766603350639343,0.0208603907376527,0.8067858815193176,0.4387213289737701,-0.0101587017998099,0.7837718725204468,0.3813198804855346,-0.031287994235754,0.7322133183479309,0.3752064704895019,-0.036445029079914,0.7857089638710022,0.6247208118438721,-0.0034422520548105,0.7991613149642944,0.503606915473938,-0.0290063880383968,0.7853143215179443,0.4260226786136627,-0.0434246063232421,0.7558831572532654,0.3823388218879699,-0.0466747693717479
2023-08-01 16:24:40.890445,21,132,0.9629318714141846,-0.1696055233478546,-0.0034230661112815,-0.2097247540950775,-0.38720703125,0.72998046875,0.56005859375,0.6101261973381042,0.920727014541626,-2.432955170661444e-07,0.5653455853462219,0.7966967225074768,-0.0151747241616249,0.562744677066803,0.6205757260322571,-0.0177139788866043,0.5670578479766846,0.4864096045494079,-0.027162468060851,0.5791168212890625,0.3788698613643646,-0.0335769169032573,0.6505440473556519,0.5229927897453308,0.0502475127577781,0.6768686175346375,0.4160241484642029,0.0241099391132593,0.6745381951332092,0.3632095456123352,-0.0072408616542816,0.6587965488433838,0.3362247943878174,-0.0271709095686674,0.7071799039840698,0.5405097007751465,0.0370934978127479,0.7515255808830261,0.4096009135246277,0.0027664599474519,0.7290683388710022,0.3581809997558594,-0.0336660556495189,0.6765522956848145,0.35635706782341,-0.0507032200694084,0.7532209157943726,0.5772898197174072,0.0154106486588716,0.8182159066200256,0.4375248849391937,-0.0161306802183389,0.7917807102203369,0.3773369491100311,-0.0381397120654583,0.7367361783981323,0.3701170682907104,-0.0444155633449554,0.7876943945884705,0.6291200518608093,-0.0090810796245932,0.8009680509567261,0.5084621906280518,-0.0367714874446392,0.777498185634613,0.4342787265777588,-0.052059281617403,0.7383148670196533,0.3946371674537658,-0.0560403130948543
2023-08-01 16:24:40.953799,22,133,0.964647114276886,-0.1644791662693023,-0.0033540395088493,-0.2058915048837661,-0.3701171875,0.80615234375,0.53369140625,0.6152832508087158,0.9271580576896667,-2.212427432368713e-07,0.5695586800575256,0.8069130778312683,-0.0151777453720569,0.5660191774368286,0.6280278563499451,-0.01715674623847,0.5688456892967224,0.4945931136608124,-0.0260823648422956,0.5845991373062134,0.4003390371799469,-0.0317922197282314,0.6526038646697998,0.5242721438407898,0.0451191551983356,0.6790387034416199,0.4185802638530731,0.0169299319386482,0.6804437637329102,0.3644029200077057,-0.014633934944868,0.6690517067909241,0.3387162387371063,-0.0338266231119632,0.7100188136100769,0.5406349897384644,0.0321161933243274,0.7528064250946045,0.4096613526344299,-0.0028033065609633,0.7324405312538147,0.3539187908172607,-0.0367675200104713,0.6818963289260864,0.3525782227516174,-0.0513894483447074,0.7572792768478394,0.5765547752380371,0.0108219636604189,0.820382297039032,0.4393545389175415,-0.0199195221066474,0.7952678203582764,0.3784587979316711,-0.0375845991075038,0.7420053482055664,0.3732708394527435,-0.0402181856334209,0.7923967838287354,0.6286723613739014,-0.0135970767587423,0.8103171586990356,0.5085636973381042,-0.0381364040076732,0.7923605442047119,0.4344183504581451,-0.0492049977183342,0.7581670880317688,0.3966876268386841,-0.0497469566762447
2023-08-01 16:24:41.028942,23,134,0.967658519744873,-0.1553935259580612,-0.0035673996899276,-0.1986883282661438,-0.4052734375,0.7529296875,0.525390625,0.6147295832633972,0.9261045455932616,-2.480795444625983e-07,0.5699812769889832,0.8065670132637024,-0.0152447735890746,0.5663912892341614,0.6326109766960144,-0.0180142670869827,0.5710674524307251,0.5026766061782837,-0.027417629957199,0.5857837200164795,0.4043173789978027,-0.0335875637829303,0.6530969738960266,0.5276024341583252,0.043446309864521,0.678973913192749,0.4245283901691437,0.0143209686502814,0.6787241101264954,0.3722015023231506,-0.0176781509071588,0.665386974811554,0.3481130599975586,-0.0365896821022033,0.7101471424102783,0.543369710445404,0.0309738926589489,0.753369152545929,0.4145537614822387,-0.0036740493960678,0.7343894839286804,0.3649503290653229,-0.0358262062072753,0.6849992275238037,0.3687005639076233,-0.0488763228058815,0.7570445537567139,0.5776206851005554,0.0101806642487645,0.8179794549942017,0.4431021511554718,-0.0195346996188163,0.7952932715415955,0.3820104598999023,-0.034933291375637,0.7434475421905518,0.3757197260856628,-0.0360905118286609,0.79206782579422,0.6285487413406372,-0.0138076059520244,0.8126843571662903,0.5091347694396973,-0.0362077504396438,0.7990320324897766,0.4354908466339111,-0.0449365600943565,0.7673142552375793,0.3972185254096985,-0.0439620688557624
2023-08-01 16:24:41.102864,24,135,0.971689999103546,-0.1432763189077377,-0.0045358072966337,-0.1878027319908142,-0.33056640625,0.8046875,0.49609375,0.6166266202926636,0.9256882667541504,-2.7265835456091736e-07,0.5712536573410034,0.8064232468605042,-0.0138450507074594,0.5673866868019104,0.631061851978302,-0.0143656777217984,0.5726046562194824,0.5028702020645142,-0.0219694785773754,0.5870289206504822,0.4069032669067383,-0.0261911936104297,0.6532511115074158,0.530582845211029,0.0475969426333904,0.6785793900489807,0.4278423190116882,0.0193996559828519,0.6740967631340027,0.3768126666545868,-0.0117987897247076,0.6563183069229126,0.3526679575443268,-0.0298332944512367,0.7087745666503906,0.5437111258506775,0.0350754335522651,0.7499133944511414,0.4155361950397491,0.0016373483231291,0.7308038473129272,0.3647504448890686,-0.0303731281310319,0.682228147983551,0.365776777267456,-0.0433336570858955,0.7551001906394958,0.5759164690971375,0.0140308616682887,0.8135029673576355,0.4432558417320251,-0.0158689841628074,0.791593074798584,0.3833828270435333,-0.0326805487275123,0.7414148449897766,0.3765527307987213,-0.0344278588891029,0.7902231812477112,0.624198317527771,-0.0100220469757914,0.8131633996963501,0.5063814520835876,-0.0318454802036285,0.8010560274124146,0.4306394457817077,-0.0411832556128501,0.770641028881073,0.3889074325561523,-0.0408050492405891
2023-08-01 16:24:41.170033,25,136,0.9751070737838744,-0.1329778134822845,-0.0089634386822581,-0.1772082448005676,-0.27978515625,0.857421875,0.4208984375,0.6268738508224487,0.913031280040741,-2.5824539306995575e-07,0.583071768283844,0.7874167561531067,-0.01518533565104,0.5746040940284729,0.6242502927780151,-0.0166946370154619,0.5790300369262695,0.5021701455116272,-0.0250357594341039,0.5964912176132202,0.4049545526504516,-0.0297723971307277,0.658414363861084,0.5341975092887878,0.0525556653738021,0.6786029934883118,0.4391201138496399,0.0298784952610731,0.6765543818473816,0.3922663927078247,0.0011823729146271,0.6652383804321289,0.3650631308555603,-0.0167785044759511,0.7083896398544312,0.5420868992805481,0.0427428521215915,0.7388157248497009,0.4215510487556457,0.0137793309986591,0.7224248051643372,0.3795801699161529,-0.0186876766383647,0.6843621134757996,0.3821230232715606,-0.0342042483389377,0.7517638206481934,0.5671898722648621,0.0243519451469182,0.7984286546707153,0.4449465870857239,-0.0014284717617556,0.7803266048431396,0.3926675319671631,-0.0207682084292173,0.7394179701805115,0.3894043862819671,-0.0262887999415397,0.788038432598114,0.6095059514045715,0.0027723589446395,0.8168931007385254,0.4992637634277344,-0.0133946919813752,0.8120112419128418,0.4263978600502014,-0.0226549170911312,0.789080023765564,0.3878269791603088,-0.0246397741138935
2023-08-01 16:24:41.233661,26,137,0.9783292412757874,-0.1215139031410217,-0.0115570994094014,-0.1672500967979431,-0.306640625,0.85400390625,0.38232421875,0.6233649849891663,0.902769148349762,-2.61540549217898e-07,0.5832860469818115,0.7813152074813843,-0.0101937465369701,0.5770711898803711,0.6200875639915466,-0.008659416809678,0.5821442604064941,0.501514196395874,-0.0145498914644122,0.5943741798400879,0.4056892096996307,-0.01748838275671,0.662649393081665,0.5340681076049805,0.0552689284086227,0.6826894879341125,0.4445912837982178,0.0360055416822433,0.6791354417800903,0.3977165818214416,0.0099435616284608,0.665001392364502,0.3676795363426208,-0.0071898740716278,0.7119881510734558,0.543319582939148,0.042648259550333,0.7462713122367859,0.4271765053272247,0.0163268949836492,0.7282940149307251,0.3816967308521271,-0.0147246960550546,0.6851068735122681,0.3792385160923004,-0.0299310404807329,0.7522031664848328,0.5708544254302979,0.0220648068934679,0.8046929836273193,0.452230155467987,-0.0031349365599453,0.7828028202056885,0.3992154002189636,-0.0220872499048709,0.7350594997406006,0.3935035467147827,-0.0275908689945936,0.7842838168144226,0.6145244836807251,-0.0012074403930455,0.8122016191482544,0.5070143938064575,-0.0198890790343284,0.8015495538711548,0.436158686876297,-0.0307034626603126,0.7710846066474915,0.3980095982551574,-0.0335393249988555
2023-08-01 16:24:41.291835,27,138,0.9816941618919371,-0.1120300218462944,-0.0213480312377214,-0.1525453478097915,-0.341796875,0.880859375,0.4443359375,0.6290224194526672,0.8926840424537659,-2.360695106062849e-07,0.5879762172698975,0.772962212562561,-0.0125691117718815,0.5800498127937317,0.6171851754188538,-0.012739822268486,0.5835620760917664,0.499765396118164,-0.0200838800519704,0.596669614315033,0.4066317081451416,-0.0239129681140184,0.6624141335487366,0.5360167026519775,0.0532531403005123,0.6823959946632385,0.4459071755409241,0.0319210588932037,0.679233193397522,0.4020166993141174,0.0052852379158139,0.6679672598838806,0.3789297044277191,-0.0110946511849761,0.7105525732040405,0.5417097210884094,0.0428140312433242,0.744857668876648,0.4264740347862243,0.0156181277707219,0.7259407639503479,0.3866337239742279,-0.0139828845858573,0.6849678158760071,0.3936206698417663,-0.0272159166634082,0.7510102391242981,0.5646388530731201,0.0240401681512594,0.8014348149299622,0.4468907117843628,-0.0005617076531052,0.7783794403076172,0.3986181020736694,-0.0176228024065494,0.7330127954483032,0.4010928273200989,-0.0212118234485387,0.7838118672370911,0.6042436957359314,0.0021710994187742,0.8132945895195007,0.5001591444015503,-0.0144478697329759,0.8020265102386475,0.4334564208984375,-0.0236500222235918,0.7719754576683044,0.4019314050674438,-0.0250222496688365
2023-08-01 16:24:41.355128,28,139,0.98648339509964,-0.0928556397557258,-0.0222384110093116,-0.1331677734851837,-0.2197265625,0.94775390625,0.30615234375,0.6333420276641846,0.8915308713912964,-2.426544085665228e-07,0.5952180624008179,0.7655998468399048,-0.0061314911581575,0.589360237121582,0.6215443015098572,-0.0018761536339297,0.5931292176246643,0.5131500363349915,-0.0058849500492215,0.6117778420448303,0.4295470714569092,-0.0073284921236336,0.6613783836364746,0.5495964884757996,0.0625834167003631,0.6793609261512756,0.4676187038421631,0.0475064404308795,0.6784899830818176,0.4235210418701172,0.0242781396955251,0.6725996732711792,0.3973259925842285,0.0096457349136471,0.7052273750305176,0.5548224449157715,0.0513769201934337,0.7358251214027405,0.4475883841514587,0.0300144311040639,0.7224835753440857,0.4086116254329681,0.0025979152414947,0.6911625862121582,0.4118003249168396,-0.0099160345271229,0.743961751461029,0.5735520124435425,0.0324779823422431,0.7845901846885681,0.4684321284294128,0.0144325792789459,0.7666885256767273,0.4250687956809997,-0.0009400912676937,0.7309770584106445,0.4278046488761902,-0.0045851278118789,0.7762028574943542,0.606318473815918,0.0106976460665464,0.803734540939331,0.5090592503547668,0.0024663230869919,0.7965248227119446,0.4479196965694427,-0.0022456599399447,0.773307740688324,0.4214410781860351,-0.0019009159877896
2023-08-01 16:24:41.413377,29,140,0.990090012550354,-0.0787336602807045,-0.0257381908595561,-0.1134033352136612,-0.146484375,0.9013671875,0.326171875,0.6320512890815735,0.8696757555007935,-2.1168150965422686e-07,0.5952216386795044,0.7492094039916992,-0.0041619949042797,0.5888721346855164,0.6128146052360535,0.000342381739756,0.5920071005821228,0.5091784000396729,-0.0029426391702145,0.6058383584022522,0.4310911297798157,-0.0038649099878966,0.6652279496192932,0.5491015315055847,0.0628609657287597,0.6828004121780396,0.4683565497398376,0.0491289086639881,0.679351270198822,0.430268257856369,0.0270183254033327,0.6687470078468323,0.4088132381439209,0.012841329909861,0.7043328285217285,0.5537793636322021,0.0523523017764091,0.7339839339256287,0.4520912170410156,0.0328168720006942,0.7210598587989807,0.4176276922225952,0.0052638831548392,0.6891128420829773,0.422804981470108,-0.0082709155976772,0.7395185232162476,0.5722619295120239,0.0347864292562007,0.7801789045333862,0.4694748222827911,0.018600670620799,0.763437032699585,0.4275140464305877,0.0025823779869824,0.7277511358261108,0.4276140928268432,-0.0027461273130029,0.7694922685623169,0.6055153012275696,0.0149180134758353,0.7934154272079468,0.5160114169120789,0.007052129600197,0.7893769145011902,0.4558043181896209,0.0006597163737751,0.770514190196991,0.4224913716316223,-0.0008551607024855
2023-08-01 16:24:41.479017,30,141,0.993017077445984,-0.0653182789683342,-0.0227361470460891,-0.0955702289938926,-0.2080078125,0.89599609375,0.3291015625,0.6320573687553406,0.852652370929718,-2.0905274311644467e-07,0.5944210290908813,0.7400118112564087,-0.004291427321732,0.5888992547988892,0.6089298725128174,0.0001580118696438,0.5924798846244812,0.5084748268127441,-0.002808911493048,0.604184627532959,0.4297887682914734,-0.0032047857530415,0.6643637418746948,0.5478960871696472,0.0599791780114173,0.6809080243110657,0.4696370959281921,0.0471341051161289,0.6766479015350342,0.4322004914283752,0.0265929643064737,0.6664196848869324,0.4117924571037292,0.0135884638875722,0.7016653418540955,0.5514538288116455,0.0497723929584026,0.7286891937255859,0.4506645798683166,0.0314329378306865,0.7154476642608643,0.4169644713401794,0.0056900093331933,0.6847139596939087,0.4218325018882751,-0.0065922127105295,0.7353986501693726,0.5687440633773804,0.0327502898871898,0.7718005776405334,0.4676535725593567,0.0170545782893896,0.7539533376693726,0.4271632134914398,0.0022923045326024,0.7185115218162537,0.427223265171051,-0.0020461168605834,0.7649670243263245,0.600529134273529,0.0134338932111859,0.7873120903968811,0.5117892622947693,0.0050350190140306,0.7819146513938904,0.4539812803268432,-0.0011051186593249,0.7614800930023193,0.4234295487403869,-0.002240014495328
2023-08-01 16:24:41.549717,31,142,0.9955506324768066,-0.0483804866671562,-0.0262718386948108,-0.0764725506305694,-0.09765625,0.9453125,0.173828125,0.6281251311302185,0.8381308913230896,-2.2790455034282786e-07,0.592613935470581,0.7257739305496216,-0.0022947143297642,0.5874834060668945,0.6004360914230347,0.0022148818243294,0.5911939740180969,0.5044126510620117,-0.000816018844489,0.6036666631698608,0.4295864701271057,-0.0016137666534632,0.6624282598495483,0.5434367656707764,0.0591116473078727,0.6778540015220642,0.4659412205219269,0.0460103638470172,0.6716794967651367,0.429542064666748,0.0251249279826879,0.6594265699386597,0.410483181476593,0.0118744056671857,0.6976999044418335,0.5486942529678345,0.0483582653105258,0.7241501212120056,0.4515356719493866,0.0303565599024295,0.709954559803009,0.4195477366447449,0.0046980865299701,0.679039478302002,0.4239186644554138,-0.0081360796466469,0.7300158143043518,0.5664150714874268,0.031147314235568,0.7645840644836426,0.4678115844726562,0.0157563127577304,0.7458011507987976,0.4291865825653076,0.0007445968221873,0.710738480091095,0.4300919771194458,-0.0043025645427405,0.7586609721183777,0.5975699424743652,0.0119171142578125,0.7794960737228394,0.5112606287002563,0.0036479709669947,0.7719485759735107,0.455769419670105,-0.0026588824111968,0.7502499222755432,0.4266957640647888,-0.0043375580571591
2023-08-01 16:24:41.624408,32,143,0.9975165724754332,-0.0309933889657259,-0.035891119390726,-0.0520763397216796,0.04052734375,0.97607421875,0.11376953125,0.6229658126831055,0.8144301772117615,-3.026692070307036e-07,0.5909717082977295,0.7058863639831543,-0.0009417150286026,0.5864022970199585,0.5916512608528137,0.0037680002860724,0.5887142419815063,0.5049193501472473,0.0007701714057475,0.6008520126342773,0.436906099319458,-0.0002390883455518,0.6583893299102783,0.5447179079055786,0.0576095953583717,0.6708610653877258,0.4719280898571014,0.0439748577773571,0.6599953770637512,0.435342013835907,0.0230252649635076,0.6436039805412292,0.4182940125465393,0.0102522233501076,0.690898597240448,0.5472059845924377,0.0473801121115684,0.7137132287025452,0.4560706317424774,0.0311014465987682,0.6954807639122009,0.4241957664489746,0.0082075204700231,0.6641907691955566,0.4252443611621856,-0.0032755252905189,0.7200648188591003,0.5608980655670166,0.0307293757796287,0.7498646378517151,0.4705663919448852,0.0183923617005348,0.7293044328689575,0.4327595233917236,0.0063523347489535,0.6960762739181519,0.4303324222564697,0.0025854771956801,0.744844913482666,0.5872150659561157,0.011829700320959,0.7635441422462463,0.5068452954292297,0.0075443382374942,0.7517611384391785,0.458424836397171,0.004368148278445,0.7268747687339783,0.4353812932968139,0.0043397494591772
2023-08-01 16:24:41.702451,33,144,0.998441219329834,-0.0197999347001314,-0.0407419092953205,-0.0326071605086326,0.09716796875,0.9599609375,0.12353515625,0.6229673624038696,0.7985841035842896,-3.070396132898168e-07,0.5906596779823303,0.6999562978744507,-0.0018109600059688,0.584977924823761,0.5901464223861694,0.001884224708192,0.5862005352973938,0.5062074661254883,-0.0017415676265954,0.5964335799217224,0.4407855272293091,-0.0035047261044383,0.6553569436073303,0.5441707968711853,0.0513959005475044,0.6680378317832947,0.4732952415943146,0.0365142002701759,0.65674889087677,0.4389101266860962,0.0160190016031265,0.6392391920089722,0.422721803188324,0.0038078208453953,0.6866481304168701,0.5470553040504456,0.0412618890404701,0.7090123295783997,0.4599454402923584,0.0234063863754272,0.690438449382782,0.4300488233566284,0.001201921608299,0.6583568453788757,0.4325157105922699,-0.0091543858870863,0.7147711515426636,0.5606319308280945,0.0250257849693298,0.7446982860565186,0.472643494606018,0.0105568524450063,0.724251925945282,0.4355464577674866,-0.001303830416873,0.6909323930740356,0.4331988096237182,-0.0042292084544897,0.7393835783004761,0.5854145884513855,0.0067406836897134,0.7578385472297668,0.5070751905441284,-0.0007360923918895,0.7455828785896301,0.4600608348846435,-0.0048524904996156,0.7206648588180542,0.4383910298347473,-0.0047418768517673
2023-08-01 16:24:41.768039,34,145,0.99885356426239,-0.0111545044928789,-0.0433033034205436,-0.0170864611864089,0.04638671875,0.96142578125,0.16162109375,0.6175552010536194,0.794297456741333,-2.942471724054485e-07,0.5838243365287781,0.6996796131134033,0.0009312180336564,0.577482283115387,0.594835102558136,0.0065701389685273,0.5767302513122559,0.5149797201156616,0.0050534452311694,0.5861846804618835,0.4551698565483093,0.0052881836891174,0.6394871473312378,0.5530710220336914,0.0523981787264347,0.6508224606513977,0.4835705161094665,0.0410192944109439,0.6411435604095459,0.4499332308769226,0.02313744276762,0.6245042681694031,0.4379492998123169,0.012850672006607,0.6684351563453674,0.5554460883140564,0.0429065525531768,0.6861855983734131,0.47410449385643,0.0303472746163606,0.671055793762207,0.4421150684356689,0.0107250055298209,0.642307460308075,0.4416419863700866,0.000655158306472,0.6956284046173096,0.5677038431167603,0.0277673993259668,0.7201389670372009,0.4888083934783935,0.0182140357792377,0.7039847373962402,0.4538928568363189,0.0067774760536849,0.6742509007453918,0.4511151015758514,0.0025252795312553,0.7198613882064819,0.5889739990234375,0.0108316410332918,0.733491063117981,0.518140971660614,0.0076882280409336,0.7239241600036621,0.4760129451751709,0.0045000254176557,0.7024476528167725,0.4568660259246826,0.0040631261654198
2023-08-01 16:24:41.826901,35,146,0.9989551305770874,-0.0039774100296199,-0.0451735183596611,-0.0056698732078075,0.0517578125,0.96875,0.09814453125,0.6132575273513794,0.7818376421928406,-2.7003838454220386e-07,0.5817533135414124,0.6945146322250366,0.0007917002658359,0.5751854181289673,0.5969404578208923,0.0061191888526082,0.5756697654724121,0.5211220383644104,0.0045538400299847,0.5876445174217224,0.4616700410842895,0.004718710668385,0.6385917067527771,0.5578473806381226,0.0521602407097816,0.6476438641548157,0.4955917298793793,0.0428035669028759,0.6358733177185059,0.4643661081790924,0.0263853054493665,0.6193339228630066,0.4490382373332977,0.0160966459661722,0.6654742956161499,0.557964563369751,0.0427760817110538,0.6809626817703247,0.4826295077800751,0.0320734083652496,0.6635735034942627,0.4534822106361389,0.01349204685539,0.6357823610305786,0.4515326619148254,0.0033645508810877,0.6905607581138611,0.5678442120552063,0.0279532726854085,0.7141686677932739,0.4911365509033203,0.0180297847837209,0.6956690549850464,0.4565172791481018,0.0076006664894521,0.6661010980606079,0.4528316259384155,0.0039854925125837,0.7135511636734009,0.5866199731826782,0.0114858774468302,0.7287815809249878,0.5165785551071167,0.0059544728137552,0.716363787651062,0.4745726287364959,0.0025231044273823,0.6924341917037964,0.4561907947063446,0.0022966787219047
2023-08-01 16:24:41.879497,36,147,0.9986217617988586,0.00135740917176,-0.0522167421877384,0.0050955237820744,0.11083984375,0.966796875,0.12255859375,0.6102021336555481,0.7742695212364197,-2.655742434853892e-07,0.580016016960144,0.6941472887992859,0.0019301795400679,0.5744237899780273,0.5988271236419678,0.008243097923696,0.5731877684593201,0.5248016119003296,0.0074348072521388,0.5864421129226685,0.468655914068222,0.0081493277102708,0.6362226605415344,0.5632654428482056,0.0540677718818187,0.6469278931617737,0.5028714537620544,0.0456082001328468,0.6369761228561401,0.4719112813472748,0.0301841516047716,0.621628999710083,0.4587065577507019,0.0208506807684898,0.6628540754318237,0.5648550987243652,0.0443866588175296,0.6816964149475098,0.4926501214504242,0.0341545790433883,0.665341854095459,0.4634219408035278,0.0163732729852199,0.6366879940032959,0.4625471532344818,0.0074347797781229,0.6875931620597839,0.5751761794090271,0.0292652212083339,0.713182806968689,0.5013468265533447,0.0198304895311594,0.6960256695747375,0.464720755815506,0.0098730186000466,0.6666669845581055,0.4579542279243469,0.0069702924229204,0.7088736891746521,0.5920082330703735,0.0126620102673769,0.7209951281547546,0.5232762694358826,0.0068783923052251,0.7089858055114746,0.4808343648910522,0.0033663578797131,0.6869651079177856,0.4598831534385681,0.0034348096232861
2023-08-01 16:24:41.932397,37,148,0.9983326196670532,0.0051860250532627,-0.0561867319047451,0.0121698267757892,0.1171875,0.978515625,-0.0263671875,0.6075435876846313,0.7693831920623779,-2.574035420366272e-07,0.5781499147415161,0.6935629844665527,0.001507562585175,0.5728365182876587,0.5978311896324158,0.0071504591032862,0.5709456205368042,0.5249201655387878,0.0060731377452611,0.584148108959198,0.4706559479236603,0.0063397050835192,0.6342260837554932,0.5631953477859497,0.0492515489459037,0.6433778405189514,0.5019899606704712,0.0404268465936183,0.6334887742996216,0.4725427627563476,0.0256157908588647,0.618674635887146,0.462110698223114,0.016874324530363,0.6603341698646545,0.5660619735717773,0.0398150011897087,0.6786297559738159,0.4944742918014526,0.0300389677286148,0.6622412800788879,0.4642961025238037,0.0130652077496051,0.6339305639266968,0.4606720507144928,0.0044892290607094,0.684928297996521,0.5784279704093933,0.0252748150378465,0.7107350826263428,0.5046719312667847,0.0154661471024155,0.6933554410934448,0.4677988588809967,0.0053449436090886,0.6640151739120483,0.4593369364738464,0.0022365360055118,0.7047704458236694,0.5972340106964111,0.0094433575868606,0.714055597782135,0.5294378995895386,0.0020530684851109,0.7013795375823975,0.4870262742042541,-0.0024386027362197,0.6798205971717834,0.4648705720901489,-0.0029016234911978
2023-08-01 16:24:41.993234,38,149,0.997147798538208,0.0054788291454315,-0.0732124149799346,0.0174996349960565,0.12646484375,0.984375,0.0927734375,0.607926070690155,0.7743669152259827,-2.3309961250106426e-07,0.5764915943145752,0.6961584091186523,0.0037559638731181,0.5692404508590698,0.6074029207229614,0.0119920596480369,0.5659635663032532,0.5367861390113831,0.0130906431004405,0.5780344009399414,0.4841271638870239,0.0153467785567045,0.62693190574646,0.5817146897315979,0.0582565553486347,0.6344586610794067,0.5237432718276978,0.0551139563322067,0.6274693608283997,0.4919732809066772,0.0438348278403282,0.6174831390380859,0.4748261272907257,0.036738846451044,0.6520069241523743,0.5825628042221069,0.0491414293646812,0.6663785576820374,0.515789270401001,0.0442490167915821,0.652769148349762,0.485363632440567,0.0289755035191774,0.6296718716621399,0.4772457182407379,0.0207856129854917,0.6761850118637085,0.5896158814430237,0.0347771160304546,0.6954595446586609,0.5223230123519897,0.0283299200236797,0.6792945265769958,0.4882976412773132,0.0182686690241098,0.6532688140869141,0.4787623286247253,0.0147220371291041,0.697396457195282,0.6003258228302002,0.0193084646016359,0.7055086493492126,0.5353112816810608,0.016523914411664,0.694764256477356,0.4955090284347534,0.014046368189156,0.6757948994636536,0.474254846572876,0.0141417002305388
2023-08-01 16:24:42.059241,39,150,0.996829092502594,0.0070653324946761,-0.0765931233763694,0.0203755162656307,0.1220703125,0.97900390625,0.13525390625,0.6049584150314331,0.7662229537963867,-1.8256211831158e-07,0.5748796463012695,0.6974559426307678,-0.0034857564605772,0.5668832659721375,0.6097467541694641,-0.0004910831921733,0.5650569200515747,0.5402469635009766,-0.0024261397775262,0.5789859294891357,0.48772794008255,-0.0025682682171463,0.6243795156478882,0.5784488916397095,0.0400204695761203,0.6310951709747314,0.5226742029190063,0.0323809161782264,0.6224838495254517,0.4922850131988525,0.0192475765943527,0.6103107333183289,0.4758111238479614,0.0107749672606587,0.6482062935829163,0.5794531106948853,0.033715970814228,0.6619280576705933,0.5106784105300903,0.0235265791416168,0.6464170217514038,0.4811216592788696,0.0074514904990792,0.6212186813354492,0.4787630438804626,-0.0008151008514687,0.6710130572319031,0.5887206792831421,0.0226607862859964,0.6901464462280273,0.5184262990951538,0.0124646350741386,0.6737743020057678,0.4842639863491058,0.0022784350439906,0.6479222774505615,0.4802214503288269,-0.0008630153024569,0.6919990181922913,0.6046685576438904,0.0100883366540074,0.7029181718826294,0.540156364440918,0.0024364134296774,0.6918308734893799,0.4994280636310577,-0.0025876741856336,0.6717409491539001,0.4822014570236206,-0.0035882156807929
2023-08-01 16:24:42.121654,40,151,0.9971138834953308,0.0098851080983877,-0.0720874592661857,0.0216702278703451,0.169921875,1.01025390625,0.07177734375,0.6054416298866272,0.7661243677139282,-2.054478329682752e-07,0.5741905570030212,0.7001442909240723,-0.0028318427503108,0.5651605129241943,0.6113045811653137,0.00066953105852,0.5626756548881531,0.5414459109306335,-0.0007892279536463,0.5802998542785645,0.4907480776309967,-0.0005418707733042,0.6227142810821533,0.578804612159729,0.0413444489240646,0.631176233291626,0.5234391689300537,0.0332432091236114,0.6217260956764221,0.4943313598632812,0.019794913008809,0.607647716999054,0.4806806445121765,0.0115385046228766,0.6471310257911682,0.5817241072654724,0.0347404405474662,0.6639277935028076,0.5138301253318787,0.0239709727466106,0.6485575437545776,0.4847443699836731,0.0070054535754024,0.6217605471611023,0.4821430146694183,-0.0014349876437336,0.6703711152076721,0.592180073261261,0.0233624167740345,0.6905421018600464,0.5242214798927307,0.0127549152821302,0.6747934818267822,0.4885423481464386,0.0012939450098201,0.6486056447029114,0.4806676208972931,-0.002500016009435,0.6903496384620667,0.6078657507896423,0.0106893917545676,0.6981543898582458,0.5439995527267456,0.002726454520598,0.6872265934944153,0.5020701289176941,-0.0031532221473753,0.6683534383773804,0.4809378981590271,-0.0047268620692193
2023-08-01 16:24:42.193404,41,152,0.997157335281372,0.010304506868124,-0.0715408995747566,0.0212830267846584,0.078125,0.990234375,0.119140625,0.6014284491539001,0.7688272595405579,-1.8894726849794097e-07,0.5672246217727661,0.7029683589935303,-0.0007473269361071,0.5574434995651245,0.6187564134597778,0.005263109691441,0.554979681968689,0.5501177906990051,0.0055615059100091,0.5706433057785034,0.5016267895698547,0.0068784467875957,0.6135690212249756,0.593927800655365,0.0490924231708049,0.620523989200592,0.539258599281311,0.0452134869992733,0.615123987197876,0.5085774660110474,0.0333818718791008,0.6065953373908997,0.491476833820343,0.0250865258276462,0.6384915113449097,0.5951046943664551,0.0423322618007659,0.6524327397346497,0.5278500318527222,0.0341597571969032,0.6400077939033508,0.4973834156990051,0.0156661979854106,0.6169226169586182,0.4927756786346435,0.0051993778906762,0.6627770662307739,0.6026514172554016,0.0308845601975917,0.6811621189117432,0.5339674949645996,0.0215879585593938,0.666367769241333,0.4988515377044678,0.0073503074236214,0.6406872272491455,0.4915151596069336,0.0010162825929,0.6848030090332031,0.6151926517486572,0.0183706618845462,0.6903495192527771,0.5522459745407104,0.0108614098280668,0.6784763336181641,0.5125850439071655,0.0034971858840435,0.6581819653511047,0.494006484746933,0.0002693671849556
2023-08-01 16:24:42.264485,42,153,0.9971611499786376,0.0110279088839888,-0.0711095109581947,0.0221704933792352,0.10302734375,0.95947265625,0.103515625,0.6003389358520508,0.7644697427749634,-1.819150696746874e-07,0.5677159428596497,0.7025564312934875,-0.0027276137843728,0.5566340684890747,0.6190905570983887,0.0009070987580344,0.5549497008323669,0.5514017343521118,-0.0002131302753696,0.5718762874603271,0.5034548044204712,0.0003543600614648,0.6148241758346558,0.590790867805481,0.0417926050722599,0.6212072372436523,0.5363960266113281,0.0356310717761516,0.6122000813484192,0.5076466202735901,0.0228978917002677,0.5992518067359924,0.4932636022567749,0.0144857876002788,0.6371335983276367,0.5915296077728271,0.0362725555896759,0.6498388648033142,0.5257636308670044,0.0277969073504209,0.6345793008804321,0.4965967237949371,0.0111403819173574,0.6093150973320007,0.4918009042739868,0.0020442234817892,0.6596555709838867,0.6000500321388245,0.0262591019272804,0.6775895953178406,0.5322794318199158,0.0179175194352865,0.6617915630340576,0.4995712637901306,0.0068996869958937,0.6360801458358765,0.4934008419513702,0.0026600281707942,0.6810096502304077,0.6153271794319153,0.0149131715297698,0.6889350414276123,0.55507892370224,0.0083628119900822,0.6779608130455017,0.5152462124824524,0.0026813882868736,0.6588688492774963,0.4959776699542999,0.0008312134305015
2023-08-01 16:24:42.319097,43,154,0.9973231554031372,0.0113443490117788,-0.0686312690377235,0.0225304756313562,0.13525390625,0.96826171875,0.10400390625,0.5997354388237,0.7610040903091431,-1.951016628254365e-07,0.5670538544654846,0.7001607418060303,-0.0025614432524889,0.5567862391471863,0.6178280711174011,0.0014773667789995,0.555344820022583,0.5505819320678711,0.0007036891183815,0.571723997592926,0.5019675493240356,0.0014499690150842,0.6145467758178711,0.5926562547683716,0.0420612581074237,0.6208025217056274,0.5377975702285767,0.0358660146594047,0.6117887496948242,0.5081564784049988,0.0232316646724939,0.5992239713668823,0.4942310750484466,0.0148815112188458,0.6368823647499084,0.5931960940361023,0.036261536180973,0.6499230265617371,0.525946855545044,0.0269134473055601,0.6338902711868286,0.4959061443805694,0.0096009606495499,0.6076091527938843,0.4925739765167236,0.0002524527953937,0.6595391035079956,0.601520299911499,0.0259729251265525,0.6780822277069092,0.5308760404586792,0.0161828398704528,0.6618697643280029,0.4980397820472717,0.0040818252600729,0.6358296871185303,0.4934849441051483,-0.0005627220962196,0.6809448599815369,0.6164944171905518,0.0145175773650407,0.6865597367286682,0.5543545484542847,0.0060176341794431,0.6738854646682739,0.5146534442901611,-0.0008988037589006,0.6537153720855713,0.4962670803070068,-0.0033590027596801
2023-08-01 16:24:42.383376,44,155,0.9975546598434448,0.010617010295391,-0.0658484026789665,0.0208802074193954,0.09375,0.97412109375,0.12451171875,0.5991339683532715,0.7612967491149902,-1.9138288109843413e-07,0.5659226775169373,0.7015970349311829,-0.0029395234305411,0.5559918284416199,0.6182725429534912,0.00104538036976,0.5541747808456421,0.5517630577087402,0.0003116111329291,0.5699170231819153,0.5030890703201294,0.0010852023260667,0.6146301031112671,0.5913196802139282,0.0410338900983333,0.6217713952064514,0.5371118783950806,0.0345091708004474,0.6133689284324646,0.5080127716064453,0.0220827236771583,0.6012295484542847,0.4945207834243774,0.0141491871327161,0.637427806854248,0.5932797193527222,0.0351339690387249,0.6520180106163025,0.5277810096740723,0.0257384832948446,0.6361554265022278,0.4974328875541687,0.0092107830569148,0.6100845336914062,0.4932540655136108,0.0006415637326426,0.6601711511611938,0.6019300818443298,0.0246280469000339,0.6784427762031555,0.5340280532836914,0.0148100219666957,0.6617953777313232,0.4994653761386871,0.0034393928945064,0.636069118976593,0.4925110936164856,-0.0005334846791811,0.6809455156326294,0.6159409880638123,0.0128750037401914,0.6857595443725586,0.5539842247962952,0.0047374777495861,0.6733032464981079,0.5147110819816589,-0.0013307081535458,0.6542239189147949,0.4961720108985901,-0.0030754113104194
2023-08-01 16:24:42.453098,45,156,0.9976326823234558,0.0104861259460449,-0.064879409968853,0.0202430300414562,0.07763671875,0.9697265625,0.126953125,0.5986781716346741,0.7594037055969238,-1.9193123534932965e-07,0.56500244140625,0.6983739733695984,-0.0011893132468685,0.5554306507110596,0.6163503527641296,0.0047310125082731,0.553739070892334,0.550190806388855,0.0055300337262451,0.5692799091339111,0.5019617676734924,0.0078015131875872,0.6140848398208618,0.5911481380462646,0.0471717901527881,0.6201163530349731,0.5373439192771912,0.0439793020486831,0.6111565232276917,0.508355438709259,0.03291467577219,0.5988055467605591,0.4935055375099182,0.0253586992621421,0.6364879012107849,0.5922651290893555,0.0412984527647495,0.6488314270973206,0.5277491807937622,0.0355375967919826,0.6339946389198303,0.4977017641067505,0.0190297048538923,0.6096320748329163,0.4918758273124695,0.009632914327085,0.658710241317749,0.6004184484481812,0.0308245960623025,0.6762059330940247,0.5334612131118774,0.0237641241401433,0.6603838205337524,0.4990624189376831,0.0114775206893682,0.635166585445404,0.4907318353652954,0.0061400667764246,0.6796886324882507,0.614362895488739,0.0192020256072282,0.6860175132751465,0.5529211163520813,0.0126838264986872,0.6730979084968567,0.5127926468849182,0.0062404847703874,0.6524121761322021,0.4933251738548279,0.0037581524811685
2023-08-01 16:24:42.510071,46,157,0.997748851776123,0.0103905946016311,-0.0630975291132927,0.0201955568045377,0.12890625,0.9677734375,0.0986328125,0.598649799823761,0.7587673664093018,-1.90591606497037e-07,0.5668841004371643,0.7000694870948792,-0.002649157308042,0.5564155578613281,0.6175088286399841,0.0019962252117693,0.5538018345832825,0.5506993532180786,0.0018629056867212,0.5699024796485901,0.5026598572731018,0.0032484938856214,0.6141948699951172,0.591334342956543,0.043507445603609,0.6201455593109131,0.5377920866012573,0.0391450934112072,0.6113787889480591,0.5092035531997681,0.0279319994151592,0.599269449710846,0.4944889843463897,0.0203824397176504,0.637351393699646,0.5924960970878601,0.0379426479339599,0.6501343846321106,0.5290187001228333,0.0311547312885522,0.6352192163467407,0.4979158043861389,0.0151657098904252,0.6102256774902344,0.4901557266712188,0.0062148608267307,0.6600204110145569,0.6009940505027771,0.0277269165962934,0.6786175966262817,0.5350313186645508,0.0191729087382555,0.6633185148239136,0.5003294944763184,0.0071441903710365,0.6378966569900513,0.4908608496189117,0.00226601655595,0.6804344654083252,0.6148843765258789,0.0163699332624673,0.686416506767273,0.5536872148513794,0.0084178317338228,0.6743638515472412,0.5139549970626831,0.0017405132530257,0.6546921133995056,0.4938641190528869,-0.0007029193802736
2023-08-01 16:24:42.569037,47,158,0.997864842414856,0.0091234920546412,-0.062033224850893,0.0182867720723152,0.12158203125,0.98828125,0.09130859375,0.5969151258468628,0.7583933472633362,-2.099548765954751e-07,0.5653523206710815,0.6976985335350037,-0.0014556080568581,0.5560755133628845,0.6157197952270508,0.0035614313092082,0.5532137751579285,0.5500438213348389,0.0035676807165145,0.5690498948097229,0.5024800896644592,0.0049121654592454,0.6147028207778931,0.5921399593353271,0.0448153726756572,0.6213698983192444,0.5391747355461121,0.0407030805945396,0.6117346286773682,0.5097208023071289,0.0294453091919422,0.5984446406364441,0.4937653839588165,0.0216940306127071,0.6376407146453857,0.5943389534950256,0.0385994166135787,0.6505821943283081,0.5300793647766113,0.0315502732992172,0.6351210474967957,0.4990261793136596,0.0150494175031781,0.6092972755432129,0.4902341067790985,0.0057113533839583,0.6604796648025513,0.6036385893821716,0.0278513897210359,0.6796391010284424,0.5353261232376099,0.0189948063343763,0.6640315055847168,0.5005680322647095,0.0065763727761805,0.6381056904792786,0.4902779459953308,0.0014043992850929,0.6810684204101562,0.6179471611976624,0.0161071624606847,0.6849744915962219,0.5545912981033325,0.0076691727153956,0.671568751335144,0.5140467882156372,0.0006075895507819,0.6511207818984985,0.4923988580703735,-0.00211883476004
2023-08-01 16:24:42.630084,48,159,0.9980546236038208,0.0077544189989566,-0.0600407645106315,0.0148972058668732,0.11328125,0.9873046875,0.06982421875,0.5975641012191772,0.7589623928070068,-1.8625146935846717e-07,0.5656612515449524,0.6969740390777588,-0.0019399862503632,0.5563523173332214,0.6158621311187744,0.0026438720524311,0.5537621974945068,0.5492695569992065,0.0020435438491404,0.5693423748016357,0.5021323561668396,0.0028756163083016,0.6141614317893982,0.592356264591217,0.04600540548563,0.620561957359314,0.5393023490905762,0.0418645367026329,0.6123066544532776,0.5100122690200806,0.0302603580057621,0.6009917259216309,0.4948291182518005,0.0221824701875448,0.6371185779571533,0.5936391949653625,0.0399425141513347,0.6502441763877869,0.5287992358207703,0.032746322453022,0.6362339854240417,0.498007595539093,0.0159006491303443,0.6117739677429199,0.4915017485618591,0.0064486754126846,0.659582257270813,0.6023569107055664,0.0292021874338388,0.6793346405029297,0.5334007143974304,0.0204505007714033,0.6642714738845825,0.4987818598747253,0.0079130139201879,0.6384817361831665,0.4908667802810669,0.0027423005085438,0.6801725625991821,0.6169713139533997,0.0172985158860683,0.6855465769767761,0.5545580983161926,0.0085842451080679,0.6718934178352356,0.5143136978149414,0.0010949606075882,0.6502504348754883,0.4946372807025909,-0.0018242259975522
2023-08-01 16:24:42.687790,49,160,0.9983501434326172,0.0044341646134853,-0.0563568882644176,0.0100591937080025,0.1201171875,0.9833984375,0.048828125,0.5950524210929871,0.7615432739257812,-1.9721052524346305e-07,0.5642907023429871,0.7012285590171814,-0.0018086275085806,0.5550273060798645,0.617948055267334,0.0024794719647616,0.5522310137748718,0.5504686832427979,0.001488481182605,0.5691036581993103,0.5018870830535889,0.0018922404851764,0.6141583323478699,0.5916197896003723,0.0461040362715721,0.6208034753799438,0.5382157564163208,0.0413968116044998,0.6108072400093079,0.509498119354248,0.0296706426888704,0.5980740785598755,0.4951862692832947,0.0218486376106739,0.6371703743934631,0.5941722393035889,0.0398073345422744,0.6500211358070374,0.5295294523239136,0.0326037295162677,0.6340996026992798,0.4994621276855469,0.0161402132362127,0.6090932488441467,0.4930585622787475,0.007084880489856,0.6598766446113586,0.6033477187156677,0.0287178363651037,0.6780239343643188,0.5348213911056519,0.0198984164744615,0.6608915328979492,0.4999216794967651,0.0076364441774785,0.6347774267196655,0.490962415933609,0.0027515618130564,0.6802874803543091,0.6172825694084167,0.0165016055107116,0.6836814284324646,0.5531470775604248,0.0085054133087396,0.6693733930587769,0.5131891965866089,0.0016955980099737,0.6488214135169983,0.493435263633728,-0.0007858493481762
