Timestamp,Index,Frame ID,w,x,y,z,ax,ay,az,x_0,y_0,z_0,x_1,y_1,z_1,x_2,y_2,z_2,x_3,y_3,z_3,x_4,y_4,z_4,x_5,y_5,z_5,x_6,y_6,z_6,x_7,y_7,z_7,x_8,y_8,z_8,x_9,y_9,z_9,x_10,y_10,z_10,x_11,y_11,z_11,x_12,y_12,z_12,x_13,y_13,z_13,x_14,y_14,z_14,x_15,y_15,z_15,x_16,y_16,z_16,x_17,y_17,z_17,x_18,y_18,z_18,x_19,y_19,z_19,x_20,y_20,z_20
2023-08-01 16:24:36.165089,0,60,0.9987606406211852,-0.0074336985126137,-0.0488048456609249,0.0063109435141086,0.09765625,0.97216796875,0.10302734375,0.551973283290863,0.7955060005187988,-2.802678409352666e-07,0.5231715440750122,0.7224889993667603,0.003658503992483,0.5175743699073792,0.6309550404548645,0.0086157666519284,0.5155951380729675,0.5646826028823853,0.00705211982131,0.5240775942802429,0.5165243744850159,0.0063266884535551,0.5773833394050598,0.5896648168563843,0.0437073335051536,0.5878394246101379,0.5322238206863403,0.0348810218274593,0.5775388479232788,0.5058353543281555,0.0207669958472251,0.5628355145454407,0.4970225393772125,0.0119786402210593,0.6034215092658997,0.595831573009491,0.0327088348567485,0.6222183704376221,0.5233157873153687,0.0208049248903989,0.6043851971626282,0.4990129470825195,0.00384276593104,0.5760642886161804,0.5012863278388977,-0.0044613881036639,0.627299427986145,0.6114808320999146,0.0175096094608306,0.654726505279541,0.5342512726783752,0.0064395410008728,0.6329234838485718,0.5027575492858887,-0.0043665063567459,0.60160231590271,0.4995464980602264,-0.0083459205925464,0.6456555128097534,0.6339945197105408,0.0014896584907546,0.6492096185684204,0.5669171810150146,-0.0072928587906062,0.630475640296936,0.5296217203140259,-0.0130073986947536,0.6066107749938965,0.510995090007782,-0.0146712642163038
2023-08-01 16:24:36.231018,1,61,0.9987305402755736,-0.0132451681420207,-0.04855278134346,-0.0021299303043633,0.05517578125,0.95947265625,0.14013671875,0.5525650978088379,0.796552836894989,-2.967015859667299e-07,0.5234548449516296,0.7239298820495605,0.0033345448318868,0.5183391571044922,0.6305729746818542,0.0079721910879015,0.5164139270782471,0.5638156533241272,0.0061936182901263,0.5256370306015015,0.5159149765968323,0.0054250760003924,0.5773677825927734,0.59041827917099,0.0419745631515979,0.5882666707038879,0.5303910374641418,0.0321155898272991,0.5763447284698486,0.503818154335022,0.0177575722336769,0.5603352785110474,0.4963359236717224,0.0091036399826407,0.6032544374465942,0.596729576587677,0.0310722291469573,0.6214125752449036,0.5228883624076843,0.0191656220704317,0.602381706237793,0.4971633553504944,0.0026429921854287,0.5741686820983887,0.4976098537445068,-0.0055073192343115,0.6276713013648987,0.6125262975692749,0.01596499979496,0.6544245481491089,0.5329776406288147,0.004509522113949,0.6314904689788818,0.5022051334381104,-0.0054676770232617,0.6005949974060059,0.4993444681167602,-0.0088169043883681,0.647091269493103,0.6352112293243408,5.779847560916096e-05,0.6491663455963135,0.5655463933944702,-0.0091164987534284,0.6288392543792725,0.5283266305923462,-0.0142494151368737,0.6047924160957336,0.5100348591804504,-0.0153734842315316
2023-08-01 16:24:36.291894,2,62,0.9986633062362672,-0.0211548320949077,-0.0451876744627952,-0.0134961875155568,0.09228515625,0.974609375,0.048828125,0.552872359752655,0.7949244379997253,-2.998523314090562e-07,0.5237089395523071,0.7214783430099487,0.0014721817569807,0.5184590816497803,0.628513514995575,0.0045620258897542,0.5167787075042725,0.5619481801986694,0.001560516655445,0.5270755290985107,0.5121585130691528,-0.0002479449321981,0.5790523290634155,0.5872281789779663,0.039118442684412,0.5898628830909729,0.5262637138366699,0.0272531509399414,0.5769933462142944,0.5010542273521423,0.0114902211353182,0.5600794553756714,0.4955108761787414,0.0020978779066354,0.604589581489563,0.5935589671134949,0.0287969708442688,0.6231076717376709,0.5194600820541382,0.0151279298588633,0.6024987101554871,0.4960987567901611,-0.0022036244627088,0.5730230212211609,0.4983438849449157,-0.0107590071856975,0.6283994317054749,0.6100990176200867,0.0141145754605531,0.6560239791870117,0.5306777954101562,0.0017440879018977,0.6321640610694885,0.5011175870895386,-0.008633118122816,0.6003010869026184,0.4991041421890259,-0.0122648412361741,0.6466370820999146,0.6342750191688538,-0.0015477607958018,0.6497788429260254,0.5658572316169739,-0.0111950105056166,0.629452109336853,0.5293935537338257,-0.0167134199291467,0.6048939824104309,0.5113039612770081,-0.0181270334869623
2023-08-01 16:24:36.368587,3,63,0.997956395149231,-0.0332527756690979,-0.0461969785392284,-0.0290327742695808,0.05029296875,0.96142578125,0.1640625,0.5529086589813232,0.7967891097068787,-2.797702904899779e-07,0.5241841077804565,0.72406005859375,0.0014772231224924,0.5192499160766602,0.6282806396484375,0.005502990912646,0.5174931883811951,0.5592139959335327,0.0034470092505216,0.5289329290390015,0.5072634220123291,0.0027218416798859,0.5803563594818115,0.5864656567573547,0.0416208654642105,0.5925419330596924,0.5260926485061646,0.0311803612858057,0.5811249613761902,0.4996581077575683,0.0165547188371419,0.5653641819953918,0.4915968775749206,0.0077787754125893,0.6072751879692078,0.593111515045166,0.0314098037779331,0.6268993020057678,0.519066572189331,0.0191263072192668,0.6091917753219604,0.4928058981895447,0.0026411511935293,0.580849826335907,0.4929302930831909,-0.005236015189439,0.6318393349647522,0.6100720763206482,0.0166538022458553,0.6608238220214844,0.5303881764411926,0.0042007062584161,0.639277994632721,0.4977310001850128,-0.0056873238645493,0.6076724529266357,0.4933740496635437,-0.0085270535200834,0.6507759690284729,0.634118914604187,0.0009499907610006,0.6537859439849854,0.5644152164459229,-0.009851086884737,0.6345146298408508,0.5252897143363953,-0.0156760159879922,0.6102887988090515,0.5048551559448242,-0.0167923904955387
2023-08-01 16:24:36.440968,4,64,0.9966369867324828,-0.0481592379510402,-0.0485650077462196,-0.0451304577291011,0.02197265625,0.9560546875,0.3232421875,0.5504008531570435,0.796261191368103,-2.749979159943905e-07,0.5217069387435913,0.7262939214706421,-0.0020790440030395,0.5179604291915894,0.6254311800003052,0.0004892682773061,0.5175131559371948,0.553328275680542,-0.0023090259637683,0.527585506439209,0.499250590801239,-0.0034416927956044,0.5822789669036865,0.5802709460258484,0.0359864346683025,0.5952529311180115,0.5186738967895508,0.0225859154015779,0.5843073129653931,0.4904600381851196,0.0060360762290656,0.568148672580719,0.4824860095977783,-0.0034621418453752,0.609843373298645,0.5872704982757568,0.0267532914876937,0.6315828561782837,0.5114845633506775,0.0117144687101244,0.6125581860542297,0.4828130006790161,-0.0052669942378997,0.5816810727119446,0.4836879670619964,-0.0126654403284192,0.6346509456634521,0.6049098372459412,0.0127377659082412,0.6640179753303528,0.5256765484809875,-0.0013179453089833,0.6420408487319946,0.492030382156372,-0.0108458008617162,0.6094945669174194,0.4893012046813965,-0.0126245040446519,0.6537466049194336,0.63064044713974,-0.0026420643553137,0.6612188816070557,0.5591347813606262,-0.0138122681528329,0.6438930630683899,0.5177414417266846,-0.0189003162086009,0.6196432113647461,0.4979363679885864,-0.0189680643379688
2023-08-01 16:24:36.505965,5,65,0.9950720071792604,-0.0615838095545768,-0.0440667085349559,-0.0640092268586158,-0.1025390625,0.93505859375,0.2333984375,0.5497245788574219,0.7966634631156921,-2.820363533828641e-07,0.520670473575592,0.7227778434753418,-0.0021947319619357,0.5166533589363098,0.6234018206596375,-0.0004505943797994,0.5162810683250427,0.5501682162284851,-0.0043034106492996,0.5278507471084595,0.4954438805580139,-0.0066108149476349,0.5820080637931824,0.5783693790435791,0.0353207401931285,0.5965972542762756,0.512535572052002,0.020804475992918,0.5854681730270386,0.4839603006839752,0.0040265899151563,0.5706594586372375,0.4778342247009277,-0.0056433575227856,0.6106274127960205,0.5860318541526794,0.0254974626004695,0.6351443529129028,0.5052184462547302,0.0085358554497361,0.615372896194458,0.4787636697292328,-0.0091552073135972,0.5851863622665405,0.4834628105163574,-0.0166465491056442,0.6359676718711853,0.6049387454986572,0.0108147654682397,0.6686466932296753,0.5204594731330872,-0.0047890949063003,0.6446062922477722,0.487565666437149,-0.0153364082798361,0.6113556623458862,0.4864900708198547,-0.017740175127983,0.6550987362861633,0.6328702569007874,-0.005164127331227,0.6610459685325623,0.5591140985488892,-0.0178662817925214,0.6408807039260864,0.5179041624069214,-0.0244685132056474,0.6154153347015381,0.4981642067432403,-0.0256799254566431
2023-08-01 16:24:36.570581,6,66,0.9928495287895204,-0.075408361852169,-0.0475257448852062,-0.0794023275375366,-0.09765625,0.95263671875,0.244140625,0.5508051514625549,0.8026725053787231,-3.084116428908601e-07,0.5212748646736145,0.7257078886032104,-0.0009080541785806,0.5161461234092712,0.6228765845298767,0.0023690122179687,0.515090823173523,0.5477186441421509,-0.0006007128977216,0.5272589921951294,0.4916361570358276,-0.0018630947452038,0.5816530585289001,0.5782815217971802,0.0413806177675724,0.5959554314613342,0.511313796043396,0.0284358225762844,0.5852500796318054,0.4832293093204498,0.0115119293332099,0.5689261555671692,0.4762538969516754,0.0014317802852019,0.6100433468818665,0.5858772993087769,0.0310642197728157,0.6320524215698242,0.5054552555084229,0.0156637914478778,0.6135786771774292,0.4779000878334045,-0.0032966630533337,0.5829630494117737,0.4799754023551941,-0.0123536149039864,0.635994017124176,0.604165256023407,0.0156395435333251,0.667725145816803,0.5192641615867615,0.0009237138438038,0.6459678411483765,0.485299676656723,-0.0111640635877847,0.6125964522361755,0.4829649329185486,-0.0150935910642147,0.6568851470947266,0.6303837299346924,-0.0010775200789794,0.6643775701522827,0.5554556250572205,-0.0133212944492697,0.6448981165885925,0.5134509205818176,-0.0205919686704874,0.6181215643882751,0.4935965240001678,-0.0226549226790666
2023-08-01 16:24:36.635607,7,67,0.9903324246406556,-0.0894006714224815,-0.0498147495090961,-0.0936363413929939,-0.07958984375,0.9189453125,0.3330078125,0.5514877438545227,0.8052379488945007,-2.796339515498403e-07,0.5208175778388977,0.731768012046814,-0.0041409414261579,0.515434980392456,0.6220436096191406,-0.0029521491378545,0.5146147012710571,0.542210042476654,-0.007259551435709,0.526759684085846,0.4828070402145386,-0.009577939286828,0.5828613638877869,0.5736746191978455,0.036442220211029,0.5970844030380249,0.5067803263664246,0.0206747185438871,0.5858132839202881,0.4762606024742126,0.002085618674755,0.5688740611076355,0.469541996717453,-0.0086719132959842,0.6135852336883545,0.5821171402931213,0.0268271882086992,0.6384324431419373,0.5011972188949585,0.0089897494763135,0.6171961426734924,0.4695964157581329,-0.0098110130056738,0.5825764536857605,0.4724766314029693,-0.0179713182151317,0.6406047940254211,0.6024254560470581,0.0118305087089538,0.6742312908172607,0.5157299637794495,-0.0050446302630007,0.6502248644828796,0.4793063700199127,-0.0157027747482061,0.6146188974380493,0.4786306619644165,-0.0176750198006629,0.6612647771835327,0.6308608055114746,-0.0047072945162653,0.6695114970207214,0.5526637434959412,-0.0189814530313015,0.6503767371177673,0.5072034001350403,-0.0256728287786245,0.623708963394165,0.4866881966590881,-0.0264503918588161
2023-08-01 16:24:36.697794,8,68,0.9881566762924194,-0.0998608320951461,-0.0431890375912189,-0.1082071438431739,-0.15966796875,0.90771484375,0.3076171875,0.5528928637504578,0.8108243942260742,-2.5640477474553336e-07,0.5193669199943542,0.7350142002105713,-0.0040447316132485,0.5154168009757996,0.6191871762275696,-0.0017323844367638,0.5159003734588623,0.5339661836624146,-0.0048265256918966,0.5308918952941895,0.470773696899414,-0.0060974434018135,0.5873696804046631,0.5672255754470825,0.0402711369097232,0.6020347476005554,0.5015397071838379,0.0285787228494882,0.5949873328208923,0.4703801572322845,0.0119528993964195,0.5824334025382996,0.4580818712711334,0.0012573916465044,0.6208340525627136,0.5782816410064697,0.0303839445114135,0.6460728049278259,0.4964594542980194,0.0148343183100223,0.6284299492835999,0.465228408575058,-0.0046431901864707,0.5952954888343811,0.4672983288764953,-0.013513384386897,0.6495615839958191,0.6016541123390198,0.015359278768301,0.6866045594215393,0.5108616948127747,-0.0010570525191724,0.6659505367279053,0.4712807536125183,-0.0124924406409263,0.6309040784835815,0.4679186940193176,-0.0148729095235466,0.670904815196991,0.6339021325111389,-0.0010357509599998,0.676886796951294,0.549223780632019,-0.0175546035170555,0.6583681106567383,0.4996857941150665,-0.0254621021449565,0.632327675819397,0.4763880372047424,-0.0263641960918903
2023-08-01 16:24:36.769429,9,69,0.9845287203788756,-0.1143406108021736,-0.0449263453483581,-0.124944195151329,-0.21533203125,0.8525390625,0.39013671875,0.5542418360710144,0.8198642134666443,-2.805018368690071e-07,0.520012378692627,0.7419377565383911,-0.0067535182461142,0.5147833824157715,0.6191458702087402,-0.0057359603233635,0.5142899751663208,0.5285356640815735,-0.0101830530911684,0.5319430232048035,0.4641551375389099,-0.0123120592907071,0.5875073075294495,0.5678701996803284,0.0398480407893657,0.6032358407974243,0.4969156384468078,0.0242851395159959,0.593481183052063,0.4639102816581726,0.0048638619482517,0.576060950756073,0.4517253041267395,-0.0066793486475944,0.6218470335006714,0.5768448710441589,0.0311098601669073,0.6465353965759277,0.4896054863929748,0.0125391175970435,0.6277284622192383,0.4557169079780578,-0.0085299974307417,0.5919281244277954,0.456503689289093,-0.0177101679146289,0.6519631147384644,0.5983920693397522,0.0165437757968902,0.6878897547721863,0.5043818354606628,-0.0012677243212237,0.667975127696991,0.4644708633422851,-0.0133666824549436,0.6318038105964661,0.4613756537437439,-0.0155713027343153,0.6748801469802856,0.6288118958473206,0.0002347493573324,0.6840247511863708,0.5431269407272339,-0.0150356413796544,0.6696494817733765,0.4926650524139404,-0.0226439572870731,0.6456410884857178,0.4681171774864197,-0.0233714021742343
2023-08-01 16:24:36.857973,10,70,0.9800142645835876,-0.1288104355335235,-0.0421824380755424,-0.1456041485071182,-0.267578125,0.8486328125,0.41943359375,0.5553188920021057,0.8280158042907715,-2.7423385517977295e-07,0.5205014944076538,0.7434616088867188,-0.0062578520737588,0.5136900544166565,0.6195816397666931,-0.0054906797595322,0.5123792886734009,0.5263735055923462,-0.0106545556336641,0.5320882797241211,0.4620882272720337,-0.0136582665145397,0.5860852599143982,0.5654118061065674,0.0431441478431224,0.6027301549911499,0.4952988028526306,0.0280166566371917,0.5945953726768494,0.4620814323425293,0.0081781996414065,0.5789214372634888,0.4466160237789154,-0.0043191318400204,0.6228042840957642,0.5749104619026184,0.0335776433348655,0.6486809849739075,0.487204372882843,0.0136155560612678,0.630082368850708,0.4555696249008178,-0.009189112111926,0.593639612197876,0.4572744369506836,-0.0192061066627502,0.6547213196754456,0.5975275635719299,0.0181433074176311,0.6913042664527893,0.5018238425254822,-3.000878496095538e-05,0.671907901763916,0.461918294429779,-0.0125491898506879,0.6350834965705872,0.4582363367080688,-0.0148784751072525,0.6785475015640259,0.6298831701278687,0.0009238392231054,0.6866281032562256,0.5432018041610718,-0.0139278089627623,0.6731568574905396,0.4902780652046203,-0.0216075405478477,0.6499563455581665,0.4623359441757202,-0.0224440917372703
2023-08-01 16:24:36.943862,11,71,0.9756520986557008,-0.1424501091241836,-0.0419166646897792,-0.1614121794700622,-0.189453125,0.88916015625,0.43359375,0.567284882068634,0.8430901765823364,-2.137179251349153e-07,0.526253879070282,0.7570462226867676,-0.009442564100027,0.5193902254104614,0.624650776386261,-0.0101013928651809,0.5204989910125732,0.5248271226882935,-0.0162071119993925,0.5361095070838928,0.4465563297271728,-0.020532950758934,0.5961236357688904,0.557370662689209,0.0437974967062473,0.6152145862579346,0.4838208556175232,0.0289618149399757,0.6094714999198914,0.4465947151184082,0.0067204218357801,0.5927289724349976,0.4278217852115631,-0.0085687013342976,0.6368748545646667,0.5692716836929321,0.0331900119781494,0.6697690486907959,0.4779589772224426,0.0123024210333824,0.6520461440086365,0.4390122294425964,-0.0153649067506194,0.6107579469680786,0.4362763166427612,-0.0296792518347501,0.6710053086280823,0.5962687134742737,0.0162439178675413,0.7180783748626709,0.4964877068996429,-0.0039921170100569,0.6986494064331055,0.4473142325878143,-0.0229115262627601,0.6568490266799927,0.4375033378601074,-0.0306032113730907,0.6968255639076233,0.6347839832305908,-0.002608562586829,0.7069945931434631,0.5414347648620605,-0.0226363725960254,0.688218355178833,0.4843156337738037,-0.0354879386723041,0.6569705605506897,0.4556082189083099,-0.040410678833723
2023-08-01 16:24:37.009115,12,72,0.9726465344429016,-0.1498483717441558,-0.0387724675238132,-0.1732077151536941,-0.2802734375,0.837890625,0.5078125,0.5642314553260803,0.8543699979782104,-2.0511977538717477e-07,0.5257439613342285,0.7631070613861084,-0.0135109014809131,0.5212647318840027,0.6262387633323669,-0.0164317190647125,0.5230528712272644,0.5231925249099731,-0.0246527213603258,0.5435433387756348,0.4430955648422241,-0.0302519053220748,0.6008937954902649,0.5584365129470825,0.0393458530306816,0.6232663989067078,0.480179488658905,0.0166968014091253,0.6176037192344666,0.4397206902503967,-0.0096952011808753,0.6003680229187012,0.4229278564453125,-0.0258398298174142,0.6438356637954712,0.5716459155082703,0.0298087745904922,0.6812186241149902,0.4731823205947876,0.0021339950617402,0.6613011360168457,0.4300185441970825,-0.026881955564022,0.6168388724327087,0.4290998578071594,-0.0398863889276981,0.6793593168258667,0.6001650094985962,0.0131621966138482,0.7254645228385925,0.4929733276367187,-0.0108738150447607,0.7038119435310364,0.4433377981185913,-0.0268096458166837,0.6603278517723083,0.437208890914917,-0.030119577422738,0.7060416340827942,0.6399332880973816,-0.0060439547523856,0.718063473701477,0.541877031326294,-0.0262870844453573,0.7016344666481018,0.4808385372161865,-0.0367703661322593,0.6720855832099915,0.4503669142723083,-0.0383786335587501
2023-08-01 16:24:37.068140,13,73,0.96906316280365,-0.1581810861825943,-0.0379211418330669,-0.1856266558170318,-0.35205078125,0.83544921875,0.48974609375,0.5833261013031006,0.8947397470474243,-2.1411442219232413e-07,0.5376957654953003,0.7905728816986084,-0.0104037877172231,0.529928982257843,0.6386482119560242,-0.0088655725121498,0.5319153666496277,0.5251877307891846,-0.0137562146410346,0.5519994497299194,0.442706823348999,-0.0155537659302353,0.6099915504455566,0.5670912861824036,0.0520158410072326,0.6342167854309082,0.4836388230323791,0.0332289598882198,0.6305248141288757,0.4436796903610229,0.0080204373225569,0.6156553626060486,0.4248327314853668,-0.0080885598435997,0.656187117099762,0.5780022144317627,0.0416980385780334,0.6915264129638672,0.4722441434860229,0.0189647786319255,0.6769140958786011,0.4284962117671966,-0.0088502904400229,0.6371879577636719,0.4290198683738708,-0.0217395946383476,0.6953509449958801,0.6068012118339539,0.0236075334250926,0.7429044842720032,0.4953506290912628,0.0032594224903732,0.726094663143158,0.4423884153366089,-0.0133181773126125,0.6841516494750977,0.4374702572822571,-0.0177842825651168,0.7268569469451904,0.6510804891586304,0.0027481408324092,0.7460436224937439,0.5505766272544861,-0.0156542807817459,0.7319400310516357,0.4851765930652618,-0.0270234644412994,0.7013988494873047,0.4540551900863647,-0.0297159161418676
2023-08-01 16:24:37.130094,14,74,0.9669422507286072,-0.1619735062122345,-0.0325158461928367,-0.1942420452833175,-0.3505859375,0.79638671875,0.47314453125,0.5889936089515686,0.9157423973083496,-1.904843998090655e-07,0.5427501797676086,0.8063753843307495,-0.0139786265790462,0.5356791615486145,0.6509222984313965,-0.0145278610289096,0.537602961063385,0.5353055000305176,-0.0213492698967456,0.5505789518356323,0.4475411772727966,-0.024983225390315,0.613255500793457,0.5759091377258301,0.0459829643368721,0.636300265789032,0.4905828535556793,0.0220522154122591,0.6363986134529114,0.4477436542510986,-0.0062008430249989,0.6246486902236938,0.4287868738174438,-0.0235559791326522,0.6632503271102905,0.5864036083221436,0.0354364961385726,0.7011630535125732,0.474644273519516,0.0059149847365915,0.6849498152732849,0.4309085011482239,-0.0247853938490152,0.6422515511512756,0.4367728531360626,-0.0383267924189567,0.7057909369468689,0.613917350769043,0.0168688856065273,0.7558267116546631,0.4958649277687073,-0.0092075821012258,0.7356953024864197,0.4440532922744751,-0.0259709656238555,0.6910475492477417,0.4446730613708496,-0.0289801508188247,0.7394533157348633,0.6562433838844299,-0.0047457055188715,0.7600730657577515,0.5511532425880432,-0.0255621019750833,0.7461583614349365,0.4835641384124756,-0.0365146547555923,0.715185821056366,0.4521760940551758,-0.0382232703268528
2023-08-01 16:24:37.184975,15,75,0.9642192125320436,-0.1684786230325698,-0.032633900642395,-0.2020675092935562,-0.33203125,0.7939453125,0.5224609375,0.593142569065094,0.9358818531036376,-1.740661872418059e-07,0.5463339686393738,0.8237550854682922,-0.0152392862364649,0.5392507910728455,0.6618643403053284,-0.0166829414665699,0.5416169166564941,0.5421361327171326,-0.0243250019848346,0.5556007623672485,0.4495901465415954,-0.0286619421094656,0.6188349723815918,0.582161545753479,0.0470213815569877,0.6421593427658081,0.4955736994743347,0.0237294733524322,0.6429448127746582,0.45179283618927,-0.0044267629273235,0.6332646608352661,0.4280913472175598,-0.022370820865035,0.6692857146263123,0.5933137536048889,0.0366073735058307,0.70615553855896,0.4791008234024048,0.0063773151487112,0.6908250451087952,0.4356947839260101,-0.0252424720674753,0.6503657698631287,0.4409735798835754,-0.0393953472375869,0.7123462557792664,0.6217296719551086,0.0181003753095865,0.7624165415763855,0.4998137354850769,-0.0085667502135038,0.743461549282074,0.4492295980453491,-0.0250781159847974,0.7008330821990967,0.4502905607223511,-0.0278537180274724,0.74684739112854,0.6651759147644043,-0.0035842680372297,0.7676298022270203,0.5568900108337402,-0.0245448127388954,0.7572788000106812,0.4862996339797973,-0.0354777947068214,0.7310933470726013,0.4510305523872375,-0.0371739491820335
2023-08-01 16:24:37.248069,16,76,0.9622474908828736,-0.1712133884429931,-0.0289389993995428,-0.2095908224582672,-0.35986328125,0.77880859375,0.52587890625,0.6053025722503662,0.959830403327942,-1.0958243734648933e-07,0.5491378307342529,0.8524531722068787,-0.021649932488799,0.5397752523422241,0.6805402636528015,-0.0249397978186607,0.5441821217536926,0.5517875552177429,-0.032534796744585,0.5606811046600342,0.4522842168807983,-0.0367171987891197,0.6212887167930603,0.5897287726402283,0.0408949740231037,0.6473198533058167,0.4961503446102142,0.0171181708574295,0.6549975872039795,0.4513522982597351,-0.0110592972487211,0.6526857614517212,0.4309219121932983,-0.0287777911871671,0.6777138710021973,0.6055530309677124,0.0333273522555828,0.7165565490722656,0.4848396778106689,0.0024484426248818,0.70594722032547,0.4403365552425384,-0.0305834356695413,0.6682270765304565,0.4497916102409363,-0.0457239523530006,0.7250109314918518,0.637488842010498,0.0173401832580566,0.77708899974823,0.5105366706848145,-0.0118464641273021,0.7639049291610718,0.4524682760238647,-0.0324593037366867,0.7249005436897278,0.4519167244434356,-0.03801179677248,0.7624891996383667,0.6826642751693726,-0.0017389333806931,0.7791814804077148,0.5680016875267029,-0.0268637668341398,0.7707271575927734,0.4918307662010193,-0.0414503701031208,0.7478446960449219,0.453462690114975,-0.0453884042799472
2023-08-01 16:24:37.315620,17,77,0.9607378840446472,-0.1730245798826217,-0.0254187155514955,-0.2154045552015304,-0.3857421875,0.7197265625,0.52001953125,0.6084113121032715,0.971863865852356,-2.333182003155798e-08,0.5544654726982117,0.8593052625656128,-0.0217174366116523,0.5431468486785889,0.687990665435791,-0.0256191939115524,0.5464775562286377,0.5556728839874268,-0.034096460789442,0.5624129176139832,0.4544721245765686,-0.0392814539372921,0.6222934722900391,0.5918977856636047,0.046588446944952,0.6510207653045654,0.4962926506996155,0.0243882667273283,0.6631494760513306,0.4472028017044067,-0.0054076863452792,0.6626535058021545,0.4213169813156128,-0.0256648398935794,0.6804350018501282,0.6077092289924622,0.0386936366558074,0.7241744995117188,0.4824702739715576,0.0068646166473627,0.7163209319114685,0.4378805458545685,-0.0310458224266767,0.6779788732528687,0.4464934766292572,-0.0503108911216259,0.7288475632667542,0.6399412155151367,0.0224158149212598,0.785790205001831,0.5099130868911743,-0.0070701041258871,0.7757983803749084,0.4509092569351196,-0.0334853492677211,0.7365075945854187,0.4504330158233642,-0.0440075024962425,0.7672922611236572,0.686307966709137,0.0031039831228554,0.785767138004303,0.5731070041656494,-0.0229061171412467,0.7782955765724182,0.4970911145210266,-0.041592001914978,0.7552815079689026,0.4586254954338074,-0.0494747571647167
2023-08-01 16:24:37.375542,18,78,0.9595640897750854,-0.1757718324661255,-0.0246028900146484,-0.218484878540039,-0.37841796875,0.73583984375,0.50341796875,0.608902096748352,0.979564905166626,-8.318685473795996e-08,0.5553235411643982,0.8594688177108765,-0.0234926603734493,0.5428230166435242,0.6893913745880127,-0.0295735541731119,0.5464572310447693,0.5550714731216431,-0.0402227155864238,0.56423020362854,0.4486585259437561,-0.0471874177455902,0.626453697681427,0.5947251319885254,0.0494092293083667,0.6559056639671326,0.499059796333313,0.0265918131917715,0.6637647747993469,0.453258603811264,-0.0048737623728811,0.6593366861343384,0.4291311502456665,-0.0266269110143184,0.6848534941673279,0.6111368536949158,0.0418687015771865,0.7268682718276978,0.4858668446540832,0.0094395875930786,0.7149938941001892,0.443700909614563,-0.0314569994807243,0.674052357673645,0.4519180059432983,-0.0537052005529403,0.7329229712486267,0.6437628269195557,0.02553416416049,0.7939234972000122,0.5083844661712646,-0.0059443181380629,0.7818798422813416,0.4510923027992248,-0.0351231954991817,0.739780843257904,0.4533824622631073,-0.0478221476078033,0.7712193727493286,0.6911638975143433,0.0062460578046739,0.7906444072723389,0.5753607749938965,-0.0224460586905479,0.7797210216522217,0.4992200136184692,-0.0433706417679786,0.75243079662323,0.461138367652893,-0.0529711283743381
2023-08-01 16:24:37.441593,19,79,0.9597571492195128,-0.1756412237882614,-0.0242456663399934,-0.2177808433771133,-0.412109375,0.7607421875,0.56884765625,0.6121237874031067,0.985973060131073,-1.5917631657202946e-08,0.5570023655891418,0.8648649454116821,-0.0257414039224386,0.544052004814148,0.6931492686271667,-0.0323460102081298,0.5481768846511841,0.5562023520469666,-0.0426406376063823,0.566097617149353,0.448240578174591,-0.0493410043418407,0.6261755228042603,0.5929644107818604,0.045787688344717,0.657663106918335,0.4957271814346313,0.0227200053632259,0.6716406345367432,0.4465396404266357,-0.0085100475698709,0.6725184321403503,0.4202977418899536,-0.0301101393997669,0.6873980164527893,0.6125088930130005,0.0390081293880939,0.7338296175003052,0.4856257140636444,0.0055517116561532,0.7249664068222046,0.4408971667289734,-0.0351659953594207,0.6842575669288635,0.4486860632896423,-0.0568856298923492,0.7365081310272217,0.6482424736022949,0.0233477652072906,0.8009761571884155,0.514155924320221,-0.0097731174901127,0.7915853261947632,0.4510500431060791,-0.040222343057394,0.7502412796020508,0.4488700032234192,-0.0534397549927234,0.7740963697433472,0.6973918080329895,0.0047635021619498,0.7918803691864014,0.5803355574607849,-0.0264581087976694,0.7803971171379089,0.5041634440422058,-0.0486507900059223,0.7528485059738159,0.4670494794845581,-0.0585873834788799
2023-08-01 16:24:37.502414,20,80,0.9611622095108032,-0.1719150096178054,-0.0235257726162672,-0.214613527059555,-0.388671875,0.779296875,0.56298828125,0.6121604442596436,0.9882015585899352,-6.178321143579525e-08,0.5565193891525269,0.86920166015625,-0.0265486873686313,0.5432751774787903,0.6955845952033997,-0.034167144447565,0.5484737753868103,0.5565814971923828,-0.0454752556979656,0.5671852827072144,0.4469117522239685,-0.0533801466226577,0.6291709542274475,0.5946976542472839,0.0458166785538196,0.6605064868927002,0.4952923059463501,0.0220296364277601,0.6726304292678833,0.4481790959835052,-0.0103799449279904,0.671946108341217,0.4243246912956238,-0.0328402183949947,0.6905225515365601,0.6151959896087646,0.0389307998120784,0.7354726195335388,0.4855967462062835,0.0041492572054266,0.7232394218444824,0.4426496624946594,-0.0392479300498962,0.6797998547554016,0.4505942761898041,-0.0629141181707382,0.739961564540863,0.6511357426643372,0.023179106414318,0.8056053519248962,0.513607382774353,-0.0111496187746524,0.7938768863677979,0.4523351788520813,-0.0444157607853412,0.7500417828559875,0.4506345391273498,-0.0598080232739448,0.7784759998321533,0.7011356949806213,0.0046598371118307,0.7958111763000488,0.5839777588844299,-0.0274342596530914,0.7821923494338989,0.5089883804321289,-0.0512405857443809,0.7522112727165222,0.4715091288089752,-0.0627849027514457
2023-08-01 16:24:37.575196,21,81,0.9638806581497192,-0.1636068671941757,-0.022296966984868,-0.2089729458093643,-0.34326171875,0.7978515625,0.5146484375,0.6089293956756592,0.9932541251182556,5.147494652746332e-10,0.5537329912185669,0.8778743743896484,-0.0306823253631591,0.5408278703689575,0.7064274549484253,-0.040595531463623,0.5455191731452942,0.5667684078216553,-0.0527410060167312,0.5708575248718262,0.4619069695472717,-0.0614759810268878,0.6252923011779785,0.5996471643447876,0.0340674147009849,0.655322253704071,0.5038654208183289,0.0085283555090427,0.6722980737686157,0.452921062707901,-0.023416543379426,0.6797213554382324,0.4280988872051239,-0.0455297231674194,0.6903508305549622,0.6206263899803162,0.0289515480399131,0.7415274381637573,0.4936107099056244,-0.0046240743249654,0.7377604842185974,0.4508576393127441,-0.0431287996470928,0.7036428451538086,0.4626860022544861,-0.0636292770504951,0.7413192391395569,0.6591646075248718,0.0148835023865103,0.807809054851532,0.524105429649353,-0.0186146888881921,0.7966492772102356,0.4624171555042267,-0.0475428663194179,0.7554971575737,0.4638656973838806,-0.0601319000124931,0.7804644107818604,0.7131297588348389,-0.0024296250194311,0.7947325706481934,0.5974499583244324,-0.0344774648547172,0.7775173783302307,0.5276304483413696,-0.0560335926711559,0.7453399300575256,0.4984898865222931,-0.0655392482876777
2023-08-01 16:24:37.655790,22,82,0.967626690864563,-0.1527471095323562,-0.0241678059101104,-0.1994562447071075,-0.35498046875,0.79833984375,0.486328125,0.6061084866523743,0.9849349856376648,-9.30844645807838e-09,0.5539517998695374,0.8639723658561707,-0.0284432396292686,0.5452753305435181,0.695883572101593,-0.0356460101902484,0.5519403219223022,0.5625774264335632,-0.0463419631123542,0.5723032355308533,0.4596771597862243,-0.0538277216255664,0.6240730285644531,0.6041543483734131,0.040524773299694,0.6497893929481506,0.5113791227340698,0.0170450452715158,0.6659842133522034,0.4625345468521118,-0.0140685914084315,0.6742991209030151,0.4343961179256439,-0.0358346588909626,0.6836015582084656,0.6208925247192383,0.0356850065290927,0.7249600887298584,0.4965661764144897,0.0001506012195022,0.7173715829849243,0.4591440260410309,-0.04207469150424,0.6834843754768372,0.4710785746574402,-0.0648659244179725,0.7319284677505493,0.6522446870803833,0.0223054140806198,0.788515031337738,0.5247478485107422,-0.0099804941564798,0.7758074998855591,0.4715160727500915,-0.0408219471573829,0.7367712259292603,0.4748426079750061,-0.0548463314771652,0.7704424262046814,0.6991496086120605,0.0057315533049404,0.7932456731796265,0.5868813991546631,-0.0184915289282798,0.7901175618171692,0.5141439437866211,-0.0377417616546154,0.772020161151886,0.4787002801895141,-0.0476475283503532
2023-08-01 16:24:37.719007,23,83,0.9703583717346193,-0.1451319754123687,-0.0274159777909517,-0.1912842541933059,-0.3076171875,0.82958984375,0.4599609375,0.606174886226654,0.9800000786781312,-8.090852077202727e-08,0.5566418170928955,0.860308051109314,-0.0206118449568748,0.5475203990936279,0.6941960453987122,-0.0236573331058025,0.5538697242736816,0.5656964182853699,-0.0317413806915283,0.5688860416412354,0.4647998213768005,-0.0364408046007156,0.6278843879699707,0.6035707592964172,0.0477391816675663,0.6552181839942932,0.5120925307273865,0.0261959116905927,0.6637253165245056,0.4651590585708618,-0.0024193762801587,0.66132652759552,0.4394309520721435,-0.0215458627790212,0.6840245723724365,0.619689404964447,0.0401387475430965,0.7210896611213684,0.4981691241264343,0.0105038583278656,0.7110001444816589,0.453007161617279,-0.0255250986665487,0.6746608018875122,0.4574601650238037,-0.0445509180426597,0.7296909093856812,0.6518597602844238,0.0240775477141141,0.7835187315940857,0.5246042013168335,-0.005596010480076,0.7678839564323425,0.4727581739425659,-0.030453436076641,0.7256249785423279,0.4774725437164306,-0.039791639894247,0.7663029432296753,0.6977133750915527,0.0051033631898462,0.7861410975456238,0.5854321718215942,-0.020448675379157,0.773827850818634,0.513205885887146,-0.0374464504420757,0.7453217506408691,0.4797366559505462,-0.0441180095076561
2023-08-01 16:24:37.782441,24,84,0.9733290672302246,-0.1372562497854232,-0.0323682762682437,-0.1809518486261367,-0.3525390625,0.8203125,0.4755859375,0.6033302545547485,0.9712511301040648,-1.348046367866118e-07,0.5569882392883301,0.8551487922668457,-0.0172333903610706,0.5507885813713074,0.6870224475860596,-0.0188431423157453,0.5583888292312622,0.562105655670166,-0.025531830266118,0.5716747641563416,0.4634127616882324,-0.0290043968707323,0.6307650208473206,0.5985310077667236,0.0451552830636501,0.6590309739112854,0.5081785321235657,0.0235961358994245,0.6656429767608643,0.4630661308765411,-0.0044465675018727,0.6591817736625671,0.4393939077854156,-0.0228960718959569,0.6833359599113464,0.6159120798110962,0.0362798571586608,0.7205001711845398,0.4976081252098083,0.0068840342573821,0.7094332575798035,0.4553506076335907,-0.0278413090854883,0.6719877123832703,0.4594802558422088,-0.0460935942828655,0.7267003655433655,0.6490327715873718,0.0195798072963953,0.7784677147865295,0.5286310911178589,-0.0078427633270621,0.763225257396698,0.4767292439937591,-0.0308137219399213,0.7214498519897461,0.4743321537971496,-0.0399547293782234,0.7618656754493713,0.696003794670105,0.0002007346629397,0.7833801507949829,0.5863645672798157,-0.0214636400341987,0.7771933078765869,0.512147843837738,-0.036217376589775,0.7551051378250122,0.4702762365341186,-0.0425989925861358
2023-08-01 16:24:37.844139,25,85,0.9771369695663452,-0.1257174909114837,-0.0336376763880252,-0.1681277602910995,-0.29931640625,0.884765625,0.40087890625,0.6102232336997986,0.9529657363891602,-1.6705944005934725e-07,0.5692399740219116,0.8304815292358398,-0.0147671066224575,0.5610752701759338,0.674058198928833,-0.0157102644443511,0.5647791028022766,0.5562939643859863,-0.0226483680307865,0.5782172679901123,0.4642125368118286,-0.0263933967798948,0.6379584074020386,0.5943665504455566,0.0510576255619525,0.6620845198631287,0.5078520774841309,0.0309806931763887,0.6646273732185364,0.4657502472400665,0.0037805819883942,0.6562536358833313,0.4424212276935577,-0.0138498172163963,0.6850297451019287,0.604255199432373,0.0425901524722576,0.7168864011764526,0.4912290275096893,0.0163069274276494,0.7060291767120361,0.4534931778907776,-0.0163069311529397,0.6723212599754333,0.4571210443973541,-0.03337012976408,0.7256004810333252,0.6304587125778198,0.0262157656252384,0.770228922367096,0.5175068378448486,0.0020186207257211,0.753672182559967,0.4728317856788635,-0.0186454486101865,0.7139105200767517,0.4749034941196441,-0.0262451898306608,0.7596495747566223,0.6717939376831055,0.0069822939112782,0.7829458117485046,0.5666685700416565,-0.0093736909329891,0.7772238850593567,0.4991601705551147,-0.0203365590423345,0.7550094127655029,0.4650266766548157,-0.024430314078927
2023-08-01 16:24:37.910155,26,86,0.9804508090019226,-0.1163362711668014,-0.0382433123886585,-0.1540116369724273,-0.2900390625,0.89501953125,0.38720703125,0.6106799840927124,0.9428659677505492,-1.590986187238741e-07,0.568714439868927,0.827749490737915,-0.015265991911292,0.5619633197784424,0.6714668869972229,-0.0152572784572839,0.5679225921630859,0.5531967282295227,-0.0208073705434799,0.5798851251602173,0.4612113237380981,-0.0233825147151947,0.6358919143676758,0.594618558883667,0.0492574274539947,0.6589335799217224,0.5100193619728088,0.0314842946827411,0.6632984280586243,0.468501478433609,0.006592858582735,0.6589993238449097,0.4442888796329498,-0.0099352765828371,0.683192789554596,0.604231059551239,0.041336677968502,0.7147253751754761,0.4919424057006836,0.0160571355372667,0.7061212658882141,0.4545563757419586,-0.015859292820096,0.675591766834259,0.4602431654930115,-0.0325106792151927,0.7228583693504333,0.6294863224029541,0.0257500614970922,0.7680995464324951,0.5187231302261353,0.0016690937336534,0.7530000805854797,0.4733484387397766,-0.0206596776843071,0.7148165106773376,0.4751425385475158,-0.0295565370470285,0.7564182281494141,0.6686806082725525,0.0075004114769399,0.7788806557655334,0.566312849521637,-0.0094440607354044,0.7709371447563171,0.4991922378540039,-0.0219802316278219,0.746615469455719,0.4650334119796753,-0.0274465512484312
2023-08-01 16:24:37.967012,27,87,0.9838901162147522,-0.1051544621586799,-0.0422129407525062,-0.1382784098386764,-0.25,0.89892578125,0.39208984375,0.6082748770713806,0.938178777694702,-1.7022671272570733e-07,0.5679358243942261,0.8203368782997131,-0.0102328229695558,0.5631130933761597,0.6678728461265564,-0.006986835040152,0.5683455467224121,0.5546919703483582,-0.0102394018322229,0.5790777206420898,0.4659823775291443,-0.0105735836550593,0.6385583281517029,0.5956117510795593,0.0578568428754806,0.6592001914978027,0.5131798386573792,0.0447309911251068,0.6607382893562317,0.4711917042732239,0.0228409431874752,0.654015839099884,0.4428223669528961,0.0076206377707421,0.6834083199501038,0.6045005321502686,0.0484108030796051,0.7122761607170105,0.4974980354309082,0.0277504306286573,0.7023337483406067,0.4578774273395538,-0.0018042483134195,0.6718230843544006,0.4568841457366943,-0.0175715312361717,0.7209702730178833,0.6291180849075317,0.031457882374525,0.7651942372322083,0.5202596783638,0.0106101743876934,0.7488715648651123,0.4736271500587463,-0.0096301790326833,0.7105920910835266,0.4712583422660827,-0.0176247749477624,0.7526230812072754,0.6669217348098755,0.0121034942567348,0.7744538187980652,0.5671285390853882,-0.0027314941398799,0.7655802369117737,0.5006189346313477,-0.0136304274201393,0.7415202856063843,0.4650388360023498,-0.018047921359539
2023-08-01 16:24:38.037105,28,88,0.9875653386116028,-0.091371938586235,-0.0440691336989402,-0.1200986355543136,-0.18701171875,0.8974609375,0.3515625,0.6076290011405945,0.924491047859192,-1.5670536868128693e-07,0.5687762498855591,0.8079169988632202,-0.0106888394802808,0.5627095103263855,0.6609687209129333,-0.0095952060073614,0.5660038590431213,0.550354540348053,-0.0149098401889204,0.5782931447029114,0.4634235799312591,-0.01735713891685,0.6383220553398132,0.5895496606826782,0.0533529594540596,0.6593409180641174,0.5064629316329956,0.0370821915566921,0.6602879762649536,0.4659276008605957,0.0133320558816194,0.6514628529548645,0.4423556923866272,-0.0024327975697815,0.680742621421814,0.5976288318634033,0.0439799129962921,0.7097943425178528,0.4926497340202331,0.0210082996636629,0.6994017958641052,0.4538571536540985,-0.0090994015336036,0.6674495935440063,0.4537631869316101,-0.0249491408467292,0.7173541784286499,0.6217809915542603,0.0272327773272991,0.757057249546051,0.513559103012085,0.0055166222155094,0.7407857775688171,0.4707340598106384,-0.0141828814521431,0.7028546929359436,0.4716582298278808,-0.0217544604092836,0.7485294938087463,0.6600780487060547,0.0080624939873814,0.7683844566345215,0.5628104209899902,-0.0069216056726872,0.7617087364196777,0.4995894432067871,-0.0175948925316333,0.7396966218948364,0.4662182331085205,-0.0218045338988304
2023-08-01 16:24:38.092208,29,89,0.989705204963684,-0.0831070616841316,-0.0465968064963817,-0.1067966446280479,-0.06005859375,0.91552734375,0.29296875,0.6014230251312256,0.8945852518081665,-1.952890897882753e-07,0.5662298798561096,0.7793935537338257,-0.005301603116095,0.5598599910736084,0.6441552042961121,-0.0020336227025836,0.5600616931915283,0.541717529296875,-0.006257080938667,0.5747946500778198,0.4648953378200531,-0.0077926060184836,0.630690336227417,0.5843088626861572,0.0586912296712398,0.6485507488250732,0.5019574165344238,0.0427688844501972,0.6442846059799194,0.4621781408786773,0.0199815817177295,0.6320948600769043,0.4478253722190857,0.0063002109527587,0.6690587997436523,0.588930070400238,0.0491727516055107,0.6976559162139893,0.4867075979709625,0.0295502375811338,0.6856780052185059,0.4506534337997436,0.0038283967878669,0.6548347473144531,0.4581202566623688,-0.0086324028670787,0.7028768658638,0.6075209975242615,0.0323186889290809,0.7398358583450317,0.5029506683349609,0.0161023624241352,0.7243120670318604,0.4621105790138244,0.0019069387344643,0.690430223941803,0.467117965221405,-0.0022162178065627,0.7318577170372009,0.6397210359573364,0.0129865985363721,0.7535338997840881,0.5481646060943604,0.0040849619545042,0.745308518409729,0.4922701418399811,-0.0019121130462735,0.7220591902732849,0.466896116733551,-0.0029126703739166
2023-08-01 16:24:38.170896,30,90,0.9929956793785096,-0.0673075094819068,-0.048494067043066,-0.0841285958886146,-0.09912109375,0.93701171875,0.25,0.5987296104431152,0.8811105489730835,-2.388020448051975e-07,0.5631238222122192,0.7714319229125977,-0.0066687716171145,0.5569255352020264,0.6407971978187561,-0.0034082853235304,0.558265745639801,0.5398774147033691,-0.0071565327234566,0.568766176700592,0.4623528122901916,-0.0084124794229865,0.6282088756561279,0.5846171975135803,0.0555816702544689,0.6429160237312317,0.507672905921936,0.0422509051859378,0.636656641960144,0.4670031666755676,0.0213885214179754,0.6246633529663086,0.4413748979568481,0.0072463494725525,0.6650158762931824,0.5864887237548828,0.0462619177997112,0.6884733438491821,0.4893953800201416,0.0274724587798118,0.6718602776527405,0.452379822731018,0.0023687195498496,0.6394469738006592,0.4510774612426758,-0.0106427669525146,0.6977117657661438,0.6015179753303528,0.0298941675573587,0.7308045625686646,0.5017397403717041,0.0130706708878278,0.7111877799034119,0.4593849182128906,-0.0017847880953922,0.6749602556228638,0.4579707980155945,-0.0067218863405287,0.7266027331352234,0.6293323040008545,0.0109673403203487,0.7467414736747742,0.5405318140983582,0.0010407881345599,0.7357312440872192,0.4847172498703003,-0.0058284467086195,0.7098674178123474,0.458169549703598,-0.0078404368832707
2023-08-01 16:24:38.226039,31,91,0.9943169951438904,-0.0598370246589183,-0.0523643158376216,-0.0707895010709762,-0.0810546875,0.9267578125,0.29345703125,0.5949018001556396,0.861003577709198,-2.465078523528064e-07,0.5612443685531616,0.7524058222770691,-0.0018098211148753,0.5545580387115479,0.6307384967803955,0.0031897553708404,0.5543217062950134,0.5390193462371826,0.0004730273794848,0.5667797327041626,0.472578763961792,1.303365843341453e-05,0.6232461929321289,0.5760979652404785,0.0587166063487529,0.6358408331871033,0.501191258430481,0.0451523549854755,0.6278249025344849,0.465436190366745,0.0244779791682958,0.6139375567436218,0.4504908621311188,0.0118836415931582,0.6574178338050842,0.5777944326400757,0.0485860370099544,0.6796610355377197,0.4860424995422363,0.032929889857769,0.6656256914138794,0.4526086449623108,0.0105977626517415,0.6363400816917419,0.4555692076683044,-0.0002848530421033,0.6882807016372681,0.5925822854042053,0.0316683016717433,0.718369722366333,0.4998176693916321,0.0186288654804229,0.7015971541404724,0.4605188369750976,0.0069757071323692,0.6699491739273071,0.4604206085205078,0.0040481584146618,0.7149583101272583,0.6204611659049988,0.0124307675287127,0.7335582375526428,0.5385030508041382,0.0060350401327013,0.7239087224006653,0.4878797531127929,0.0020999545231461,0.7009227275848389,0.4634930491447449,0.0023930689785629
2023-08-01 16:24:38.285810,32,92,0.99597430229187,-0.0485121421515941,-0.0514724850654602,-0.0550667345523834,-0.10107421875,0.951171875,0.25830078125,0.5926987528800964,0.8511866331100464,-2.3733949205961838e-07,0.5597487092018127,0.7470449805259705,-0.0009518418228253,0.5536888241767883,0.62811678647995,0.0039286101236939,0.5547130107879639,0.5372390151023865,0.0010404830100014,0.5668270587921143,0.4652017951011657,0.000350611488102,0.622732937335968,0.5757942795753479,0.0603257045149803,0.6376399993896484,0.5057376623153687,0.0494630150496959,0.6295714378356934,0.4705446660518646,0.0303943399339914,0.6156371235847473,0.450605034828186,0.0178383328020572,0.6556017994880676,0.5787039995193481,0.0491908341646194,0.6803919076919556,0.4889200925827026,0.0332548171281814,0.663750410079956,0.4559381008148193,0.0100839864462614,0.6316995024681091,0.4571665525436401,-0.0011990303173661,0.6849614381790161,0.5942960977554321,0.031648151576519,0.7190831899642944,0.5012648701667786,0.017959501594305,0.7010839581489563,0.4611494243144989,0.0053643560968339,0.6672125458717346,0.4592992663383484,0.0019102961523458,0.7106142640113831,0.6215821504592896,0.0120566664263606,0.729531466960907,0.5384636521339417,0.0038745012134313,0.7191281318664551,0.485711932182312,-0.0013371874811127,0.6956677436828613,0.4598544239997864,-0.0018513936083763
2023-08-01 16:24:38.365482,33,93,0.9976965188980104,-0.0345783159136772,-0.0475969649851322,-0.0337712876498699,-0.056640625,0.95166015625,0.20751953125,0.5853205323219299,0.8386261463165283,-2.761900930181582e-07,0.5541211366653442,0.7370021343231201,0.0028516503516584,0.5475997924804688,0.6232962608337402,0.0094460863620042,0.5462124347686768,0.539781928062439,0.0078524528071284,0.5587904453277588,0.4782276153564453,0.0079386476427316,0.6108917593955994,0.5777057409286499,0.0601099357008934,0.624059796333313,0.5079196691513062,0.0488139912486076,0.6146097183227539,0.4742100834846496,0.0300594773143529,0.5984452962875366,0.4611020684242248,0.0188152287155389,0.6417449116706848,0.5799862146377563,0.0488627292215824,0.6641786098480225,0.4979329705238342,0.0359384082257747,0.6493291258811951,0.4662378132343292,0.0155377220362424,0.6202458143234253,0.4653369784355163,0.0051138647831976,0.6704022288322449,0.5925464630126953,0.0314583405852317,0.6985090970993042,0.5096391439437866,0.0216289367526769,0.6818841695785522,0.4708456397056579,0.010895499959588,0.6514291167259216,0.4645515084266662,0.0072294832207262,0.6947503089904785,0.614810585975647,0.0122049301862716,0.7102725505828857,0.5395793914794922,0.0094664404168725,0.7015205025672913,0.4923661053180694,0.0070578050799667,0.6809654831886292,0.4661874771118164,0.007137163542211
2023-08-01 16:24:38.440436,34,94,0.998445212841034,-0.021649906411767,-0.048903003334999,-0.0157137680798769,0.02197265625,0.94921875,0.166015625,0.5826423168182373,0.8229436278343201,-2.522930913073651e-07,0.5510851144790649,0.7291967272758484,0.0008706061635166,0.5446017980575562,0.6213551163673401,0.0059617962688207,0.5437784790992737,0.5400721430778503,0.0037592172157019,0.5549318790435791,0.478766918182373,0.0036359187215566,0.608760416507721,0.5785702466964722,0.0535633750259876,0.6209205985069275,0.5111810564994812,0.0426924191415309,0.6100209355354309,0.4782263040542602,0.0255430378019809,0.5936098098754883,0.4643597900867462,0.0151547882705926,0.6370030641555786,0.5800783038139343,0.0435832552611827,0.6580984592437744,0.4987727999687195,0.03044019266963,0.6404232382774353,0.4676365256309509,0.0114216720685362,0.6104298830032349,0.4687841534614563,0.0022630877792835,0.6632093191146851,0.5922031402587891,0.0279386732727289,0.6935465335845947,0.5079988241195679,0.0169536173343658,0.6739311814308167,0.4718740284442901,0.0074337725527584,0.6422269344329834,0.4714840650558471,0.0053133121691644,0.685660719871521,0.6138753890991211,0.0105018690228462,0.7015146017074585,0.540763258934021,0.0042841266840696,0.6888589262962341,0.4937228560447693,0.0006048601353541,0.6652754545211792,0.4719875156879425,0.0008995657553896
2023-08-01 16:24:38.510882,35,95,0.9985256791114808,-0.0082163484767079,-0.0535743571817874,0.0029347941745072,0.15087890625,0.95166015625,0.12744140625,0.5763661861419678,0.8145705461502075,-2.684933804175671e-07,0.5451589822769165,0.7233135104179382,0.0045017451047897,0.53895103931427,0.6215862035751343,0.0131294298917055,0.5371795296669006,0.5450423955917358,0.0140141434967517,0.5469205975532532,0.4876177310943603,0.0163839906454086,0.5996366143226624,0.5839106440544128,0.0602112114429473,0.6089960336685181,0.5213263630867004,0.0537264794111251,0.598718523979187,0.4889304041862488,0.0390265844762325,0.5842686295509338,0.4734151363372803,0.0299530755728483,0.6265287399291992,0.5839277505874634,0.0498733818531036,0.6430026888847351,0.5100148320198059,0.0423517189919948,0.6269239783287048,0.4799064397811889,0.0257179364562034,0.6007012128829956,0.4757760763168335,0.0169507190585136,0.6520840525627136,0.593165397644043,0.0339455381035804,0.6736057996749878,0.5167009830474854,0.0268910098820924,0.6547947525978088,0.4806331396102905,0.0181068759411573,0.6259165406227112,0.4735529720783233,0.0155238825827836,0.6742878556251526,0.6100783348083496,0.0164941307157278,0.688578724861145,0.5368813276290894,0.014550999738276,0.6772912740707397,0.4937043190002441,0.0135485054925084,0.655521810054779,0.4724974036216736,0.0147805400192737
2023-08-01 16:24:38.578117,36,96,0.9982761144638062,-0.0022171116434037,-0.0571105740964412,0.013352227397263,0.12060546875,0.958984375,0.16015625,0.5748832821846008,0.7974420189857483,-2.41685228274946e-07,0.5444012880325317,0.7158202528953552,0.0002413668262306,0.537106454372406,0.6204650402069092,0.0044013340957462,0.5353989601135254,0.5472288727760315,0.0017935435753315,0.5458419919013977,0.4882174134254455,0.0012579692993313,0.5976846218109131,0.5785636901855469,0.0489924140274524,0.6071681380271912,0.5161686539649963,0.0379571020603179,0.5943456888198853,0.4865554571151733,0.0216768756508827,0.5769212245941162,0.4764425754547119,0.0123942056670784,0.6227264404296875,0.5786787271499634,0.0398004576563835,0.6398972868919373,0.5035913586616516,0.0277701783925294,0.6195787787437439,0.4752725064754486,0.010470719076693,0.5899247527122498,0.4765910506248474,0.0023740124888718,0.6468803882598877,0.5891540050506592,0.025176528841257,0.6736226081848145,0.5109128952026367,0.0143309002742171,0.6522269248962402,0.4772905111312866,0.0057852272875607,0.6211804747581482,0.4768679440021515,0.0045810099691152,0.6677919030189514,0.6075859665870667,0.0088814571499824,0.6824473738670349,0.5379857420921326,0.0022048626560717,0.6688603758811951,0.4950227439403534,-0.0008057236555032,0.6455520391464233,0.4768853783607483,0.0003404783201403
2023-08-01 16:24:38.642041,37,97,0.9982494711875916,0.0028838510625064,-0.0552069507539272,0.0210188925266265,0.12646484375,0.962890625,0.1123046875,0.5734745860099792,0.7911195158958435,-2.401800145435118e-07,0.5444567799568176,0.71066814661026,0.0029184687882661,0.5365266799926758,0.6167553663253784,0.0093945050612092,0.5340926647186279,0.5446738004684448,0.0087131522595882,0.5465097427368164,0.4908329248428345,0.009481718763709,0.5935878157615662,0.5812450647354126,0.0532852262258529,0.6027158498764038,0.5211899876594543,0.0459310263395309,0.5933374762535095,0.4901555776596069,0.0319618992507457,0.580506443977356,0.4754105806350708,0.0234424471855163,0.6202046275138855,0.5830224752426147,0.0432030223309993,0.6390310525894165,0.5108376145362854,0.0336975120007991,0.6210482716560364,0.4824867844581604,0.016999153420329,0.5935244560241699,0.4804661273956299,0.0086899111047387,0.6452270746231079,0.5926347374916077,0.0279792882502079,0.6715215444564819,0.5186578631401062,0.0183682385832071,0.6507506370544434,0.4846382141113281,0.0087472712621092,0.6204684376716614,0.4803666770458221,0.0062655531801283,0.665507972240448,0.6077178716659546,0.0115061793476343,0.6753419637680054,0.5386896729469299,0.0064670019783079,0.6604812145233154,0.4972707629203796,0.0037919241003692,0.6376169919967651,0.4778242111206054,0.0043110153637826
2023-08-01 16:24:38.707223,38,98,0.9979476928710938,0.0095914974808692,-0.055561389774084,0.0303536653518676,0.154296875,0.962890625,0.060546875,0.5716713070869446,0.7850393056869507,-2.4927015829234733e-07,0.5427825450897217,0.707790732383728,0.0025299214757978,0.5347551107406616,0.6200040578842163,0.0078783715143799,0.531031608581543,0.5511864423751831,0.0063278628513216,0.5448205471038818,0.5029946565628052,0.0063427812419831,0.5916243195533752,0.58701092004776,0.0505361109972,0.6009172201156616,0.5283807516098022,0.0412641763687133,0.5888293981552124,0.4984596371650696,0.0260969176888465,0.5722364187240601,0.4879615604877472,0.0175111908465623,0.6159607172012329,0.5871962904930115,0.0413521379232406,0.6335393190383911,0.5172812342643738,0.0321128405630588,0.6153627038002014,0.4878672957420349,0.0161521788686513,0.5879520177841187,0.4855350852012634,0.0081810522824525,0.6397287249565125,0.5953565835952759,0.0270395744591951,0.6638418436050415,0.5231468677520752,0.0183098744601011,0.6435505151748657,0.4894582033157348,0.0098283467814326,0.6141428351402283,0.486007809638977,0.0080072991549968,0.6599555611610413,0.6093462705612183,0.0113656744360923,0.671920120716095,0.5426520109176636,0.00699721602723,0.6580883860588074,0.5032792687416077,0.00502519775182,0.6354950070381165,0.4864938259124756,0.0061703589744865
2023-08-01 16:24:38.772045,39,99,0.9977028965950012,0.0121276853606104,-0.0572414435446262,0.0341350436210632,0.17041015625,0.95654296875,0.0771484375,0.5722979307174683,0.777076244354248,-2.421026010779315e-07,0.5433840751647949,0.704910159111023,0.0021121641620993,0.5340787172317505,0.6201832294464111,0.006440944969654,0.5303977727890015,0.5527098178863525,0.0041945967823266,0.5440070629119873,0.5037806034088135,0.0034115093294531,0.5897925496101379,0.5831860899925232,0.0453680083155632,0.5981125235557556,0.5264091491699219,0.0354351177811622,0.5872307419776917,0.4984490275382995,0.0205650478601455,0.5725437998771667,0.4890076816082001,0.011900114826858,0.6137183308601379,0.5831679105758667,0.0362299568951129,0.629895031452179,0.5140798687934875,0.0261013843119144,0.6128978133201599,0.4864283502101898,0.0106651876121759,0.5867559909820557,0.4862865209579468,0.0031150460708886,0.6372160315513611,0.5922987461090088,0.0223724097013473,0.6608985662460327,0.5205965638160706,0.0130744753405451,0.6422701478004456,0.48861825466156,0.0051702042110264,0.614492654800415,0.4871257841587066,0.0036130060907453,0.6573718190193176,0.6091080904006958,0.007192884106189,0.667930006980896,0.5456745624542236,0.0007540392689406,0.6533196568489075,0.5069668889045715,-0.0023440979421138,0.630327045917511,0.4909664988517761,-0.0017016598721966
2023-08-01 16:24:38.836906,40,100,0.997798502445221,0.0129948249086737,-0.0549378991127014,0.034802857786417,0.1533203125,0.97314453125,0.0615234375,0.5734300017356873,0.7763410806655884,-2.188903067690262e-07,0.5432406663894653,0.7082161903381348,0.0013567671412602,0.5338940620422363,0.6216920018196106,0.0061433184891939,0.5298379063606262,0.5528749823570251,0.0045484602451324,0.5452796220779419,0.5037335157394409,0.004193581175059,0.5893736481666565,0.5868169665336609,0.0473534241318702,0.5977946519851685,0.5301974415779114,0.040001954883337,0.5885279178619385,0.5007402300834656,0.0264319665729999,0.57573401927948,0.4888440072536468,0.0178513955324888,0.6137396693229675,0.5889228582382202,0.0382177457213401,0.6313995718955994,0.5194098353385925,0.0278003755956888,0.614911675453186,0.4895952641963959,0.010453506372869,0.5877285599708557,0.4887452125549316,0.0015962147153913,0.6372154951095581,0.5988799333572388,0.0244261790066957,0.6610023379325867,0.5268199443817139,0.0140423709526658,0.6423830986022949,0.4927088618278503,0.0028572878800332,0.6136625409126282,0.4894095063209533,-0.0009242575033567,0.6574274301528931,0.6145427823066711,0.0095345070585608,0.6637324094772339,0.5502870678901672,0.0012956383870914,0.648392379283905,0.5105785131454468,-0.0043872729875147,0.6258153319358826,0.4929695725440979,-0.0058280597440898
2023-08-01 16:24:38.901148,41,101,0.9978646039962769,0.0134897669777274,-0.0539608485996723,0.0342414416372776,0.12646484375,0.978515625,0.103515625,0.574912965297699,0.7709741592407227,-2.1461455901317095e-07,0.5453963875770569,0.7033166289329529,0.0011299906764179,0.5353254675865173,0.6209797859191895,0.0052851680666208,0.5304918885231018,0.555012583732605,0.0032194629311561,0.5453394651412964,0.5077639222145081,0.0025201169773936,0.5908584594726562,0.587389349937439,0.045605082064867,0.5977214574813843,0.5320006608963013,0.037657868117094,0.5873919129371643,0.5033087134361267,0.0239599868655204,0.5742486119270325,0.4914877712726593,0.0154771357774734,0.6141738891601562,0.5888665914535522,0.0369209460914135,0.6298810243606567,0.5208945274353027,0.0271019674837589,0.6125814914703369,0.4930705726146698,0.0108737982809543,0.5863509774208069,0.4922139346599579,0.0025603885296732,0.6367607712745667,0.5977440476417542,0.0236173253506422,0.6588323712348938,0.5270070433616638,0.0139898415654897,0.6390821933746338,0.494982361793518,0.004307682160288,0.6109145879745483,0.4925166368484497,0.0014261418255046,0.6559535264968872,0.612598180770874,0.0091193579137325,0.6632689833641052,0.5494551062583923,0.0019942363724112,0.647631824016571,0.5119776725769043,-0.0023556852247565,0.6249758005142212,0.496398001909256,-0.0029041483066976
2023-08-01 16:24:38.966300,42,102,0.9980126023292542,0.0132358241826295,-0.0516426749527454,0.0335975438356399,0.11181640625,0.9765625,0.1357421875,0.5775632262229919,0.7719792127609253,-2.151718376808276e-07,0.5474443435668945,0.7079848051071167,0.0001764233747962,0.5362310409545898,0.6236611604690552,0.0043462458997964,0.531143307685852,0.5555984377861023,0.0025909105315804,0.5460366606712341,0.5076702833175659,0.0021287356503307,0.5906593203544617,0.5912293791770935,0.0450000651180744,0.5972833633422852,0.5380479097366333,0.0379492715001106,0.5880300402641296,0.508588433265686,0.0247075837105512,0.5760573148727417,0.4941079020500183,0.0160213150084018,0.613909900188446,0.5925294160842896,0.0368006639182567,0.6290000081062317,0.5266038179397583,0.0270073562860488,0.6115209460258484,0.4969870150089264,0.0104200867936015,0.5849093794822693,0.4935531616210937,0.0017247901996597,0.6369138956069946,0.6009414792060852,0.0240377392619848,0.6578482985496521,0.5306808352470398,0.0138370255008339,0.6378581523895264,0.4973494112491607,0.0034638200886547,0.6093178391456604,0.4930547773838043,0.0002005660790018,0.6571588516235352,0.6149160265922546,0.0101123917847871,0.6624420285224915,0.5515015721321106,0.0019321934087201,0.6464070081710815,0.5132995843887329,-0.003171935910359,0.6237808465957642,0.4968914687633514,-0.0041981432586908
2023-08-01 16:24:39.033675,43,103,0.9980315566062928,0.0126971108838915,-0.0514858998358249,0.0334806442260742,0.1328125,0.96533203125,0.13818359375,0.5765981078147888,0.7676919102668762,-2.0518326948604226e-07,0.5472855567932129,0.7041497826576233,-0.0005619546282105,0.53602135181427,0.6221611499786377,0.0031565260142087,0.5315826535224915,0.555534839630127,0.0013300873106345,0.5466119647026062,0.5057471394538879,0.0008920737309381,0.59134441614151,0.590272068977356,0.0437889583408832,0.5966499447822571,0.5388272404670715,0.0376939997076988,0.5869576930999756,0.509834349155426,0.0256000123918056,0.5752772092819214,0.4942235052585602,0.0174562614411115,0.6144161224365234,0.5921007394790649,0.0362213626503944,0.6272091865539551,0.5275005102157593,0.0279946438968181,0.6099632978439331,0.4993481934070587,0.0130571173503994,0.5847705006599426,0.4945088922977447,0.0049062427133321,0.6371688842773438,0.6008557677268982,0.0240198764950037,0.6572906374931335,0.5317559242248535,0.014135219156742,0.6382248997688293,0.5002065300941467,0.0044812220148742,0.6111360788345337,0.4957630336284637,0.001414147671312,0.657084584236145,0.615092396736145,0.0106724062934517,0.6617891788482666,0.5523825883865356,0.0020313044078648,0.6459066271781921,0.5150195956230164,-0.0032798037864267,0.6240273118019104,0.4982869625091553,-0.0045463978312909
2023-08-01 16:24:39.093343,44,104,0.9981034994125366,0.0126832909882068,-0.0503652058541774,0.0330430455505847,0.11865234375,0.96826171875,0.09619140625,0.5766198635101318,0.7658329606056213,-2.1927699833668163e-07,0.5468443632125854,0.7040912508964539,0.001000244054012,0.5362296104431152,0.6215911507606506,0.0052878442220389,0.5313237905502319,0.5557424426078796,0.0035392527934163,0.5455803275108337,0.5061173439025879,0.0031343724112957,0.5927191376686096,0.5896925330162048,0.0453013405203819,0.5979967713356018,0.5380852222442627,0.0397283695638179,0.5870761275291443,0.5095400214195251,0.0278049241751432,0.5739295482635498,0.4945298433303833,0.0196711644530296,0.6148239970207214,0.5914316773414612,0.0366374403238296,0.6279312372207642,0.5266941785812378,0.0286706238985061,0.6096150875091553,0.4976062178611755,0.0137862684205174,0.5830333232879639,0.4928176999092102,0.0057517732493579,0.6369117498397827,0.6006487607955933,0.0234421379864215,0.6575771570205688,0.5295912027359009,0.0139727499336004,0.6369923949241638,0.498350977897644,0.0046682874672114,0.6089078187942505,0.4944513440132141,0.0017898587975651,0.6568546295166016,0.615242063999176,0.009160348214209,0.6619346737861633,0.5512208938598633,0.0004159516247455,0.6435301303863525,0.5148559212684631,-0.00474359607324,0.6196743845939636,0.4997871816158294,-0.0059033241122961
2023-08-01 16:24:39.146885,45,105,0.9981471300125122,0.0126022305339574,-0.0500797182321548,0.0321791172027587,0.10498046875,0.96142578125,0.14501953125,0.5768856406211853,0.766433596611023,-2.1142680850516626e-07,0.5468722581863403,0.7039690017700195,-0.0009822096908465,0.5361461043357849,0.621107280254364,0.0026956801302731,0.5306111574172974,0.5548229813575745,0.0008387732086703,0.5456628799438477,0.5060531497001648,0.0004305516195017,0.5918158292770386,0.5913405418395996,0.0429457649588584,0.5972249507904053,0.5383269786834717,0.0359479598701,0.5874193906784058,0.508682370185852,0.0233974102884531,0.5754298567771912,0.4950594902038574,0.0154393287375569,0.6153703927993774,0.5936719179153442,0.0354310683906078,0.6287420392036438,0.5299584269523621,0.0266642235219478,0.6109598278999329,0.4992175698280334,0.0113196671009063,0.584790825843811,0.4943559765815735,0.0032471430022269,0.6386162042617798,0.6028269529342651,0.0232253409922122,0.6575642228126526,0.5345737934112549,0.0129393776878714,0.6371926665306091,0.4996911585330963,0.0029033601749688,0.609137773513794,0.4933860599994659,-8.004112169146538e-05,0.6584348082542419,0.6170055866241455,0.0098753068596124,0.66213059425354,0.5538312196731567,0.0008070843759924,0.6451683044433594,0.5154072642326355,-0.0044819507747888,0.6223456263542175,0.4988860487937927,-0.0053899916820228
2023-08-01 16:24:39.212047,46,106,0.9982820153236388,0.011977294459939,-0.0484037995338439,0.0307675190269947,0.10400390625,0.96826171875,0.13671875,0.5766555666923523,0.7626668214797974,-2.139549906132743e-07,0.5468576550483704,0.7024102210998535,-0.0001042229123413,0.5365115404129028,0.6194219589233398,0.0041855927556753,0.5314465761184692,0.5532925724983215,0.0029181251302361,0.5468427538871765,0.5052581429481506,0.0032607549801468,0.5931528210639954,0.5891458988189697,0.0441737696528434,0.5976118445396423,0.5363343358039856,0.0393137335777282,0.5862464308738708,0.5075969099998474,0.0280067175626754,0.5729965567588806,0.4932447671890259,0.0203952994197607,0.6146769523620605,0.5896329283714294,0.0368882156908512,0.6257820129394531,0.5236768126487732,0.0299527365714311,0.6073475480079651,0.4956519305706024,0.0155569417402148,0.581352174282074,0.4922692477703094,0.007950528524816,0.6365597248077393,0.5978469252586365,0.0251476597040891,0.655308723449707,0.5269913077354431,0.017225170508027,0.6351994276046753,0.4963706135749817,0.0081909438595175,0.6079217195510864,0.4929622411727905,0.00543211447075,0.6566258668899536,0.6122562289237976,0.0122126992791891,0.6633772850036621,0.5486299991607666,0.005257524549961,0.6469740867614746,0.510837972164154,0.0005302305216901,0.6242512464523315,0.4948706924915313,-0.0004232768260408
2023-08-01 16:24:39.272308,47,107,0.9983583092689514,0.0119614964351058,-0.0471177212893962,0.0302927419543266,0.1318359375,0.982421875,0.09375,0.5755825042724609,0.7669957280158997,-2.352398951188661e-07,0.5462211966514587,0.7048667073249817,0.0005478941020555,0.5370950698852539,0.6200255155563354,0.0042129149660468,0.531654953956604,0.5527899861335754,0.0019585790578275,0.546427845954895,0.5036872029304504,0.0009847325272858,0.5938494801521301,0.5913473963737488,0.0436476580798625,0.6003196239471436,0.53763747215271,0.036423921585083,0.5896822810173035,0.508569061756134,0.0234760362654924,0.5765700936317444,0.4955959320068359,0.0149258188903331,0.6165580153465271,0.5935078263282776,0.0351007990539073,0.6304450035095215,0.5276550054550171,0.025334395468235,0.6118435859680176,0.4973990023136139,0.0092237377539277,0.5836934447288513,0.4937299489974975,0.0006651036674156,0.6392916440963745,0.602907657623291,0.0220596715807914,0.6609000563621521,0.530824601650238,0.0114414002746343,0.6401498317718506,0.4979820847511291,0.0011204645270481,0.6105057001113892,0.4936234652996063,-0.0022956966422498,0.6593667268753052,0.617340087890625,0.0079873586073517,0.6615947484970093,0.5531125664710999,-0.001899619703181,0.643278956413269,0.5156983137130737,-0.0080930832773447,0.619218111038208,0.4990256726741791,-0.0098049566149711
2023-08-01 16:24:39.334569,48,108,0.998461365699768,0.0117395343258976,-0.0456169582903385,0.0292573142796754,0.10693359375,0.9658203125,0.12646484375,0.575928807258606,0.7663006782531738,-2.343358858070133e-07,0.5458507537841797,0.703805685043335,-4.624991925084032e-05,0.5358569025993347,0.6186941862106323,0.0038206798490136,0.5306916236877441,0.5516263842582703,0.0020704681519418,0.5461090803146362,0.5048516988754272,0.0016483571380376,0.5932035446166992,0.5904185175895691,0.0422096364200115,0.5993604063987732,0.5363016128540039,0.0352588854730129,0.5889440178871155,0.5073331594467163,0.0228380635380744,0.5767129063606262,0.4942334294319153,0.0147625319659709,0.6168887615203857,0.5933054685592651,0.0342370830476284,0.6311621069908142,0.5271083116531372,0.0253736563026905,0.6131471395492554,0.4969712495803833,0.0100228320807218,0.5865198969841003,0.4919942319393158,0.0018101492896676,0.640211820602417,0.6034842133522034,0.0218224208801984,0.6618718504905701,0.5322049260139465,0.0114484746009111,0.6408935189247131,0.4982457458972931,0.0014309273101389,0.611891508102417,0.4918268024921417,-0.0017591651994735,0.6596115827560425,0.6188588738441467,0.0084196981042623,0.6631361842155457,0.554129421710968,-0.0010025023948401,0.645301103591919,0.5164967179298401,-0.0065378053113818,0.6221442222595215,0.4994837939739227,-0.0077650607563555
2023-08-01 16:24:39.398039,49,109,0.9984620809555054,0.011682485230267,-0.0455743931233882,0.0293247196823358,0.12939453125,0.97705078125,0.0986328125,0.5758910775184631,0.7689892053604126,-2.385829418471985e-07,0.5454035401344299,0.7086984515190125,0.000194268694031,0.536106288433075,0.6214738488197327,0.0045834649354219,0.5307018756866455,0.5543314218521118,0.0031918515451252,0.545291543006897,0.5072011947631836,0.0032871277071535,0.5940475463867188,0.5923707485198975,0.0435529015958309,0.5997798442840576,0.5378202199935913,0.0363054908812046,0.5886120796203613,0.5090136528015137,0.0237380564212799,0.5752618312835693,0.4975544810295105,0.0160231590270996,0.6167718768119812,0.5942659378051758,0.0357218831777572,0.629889726638794,0.5285096168518066,0.0271038450300693,0.6111757755279541,0.4989564418792724,0.0120306704193353,0.584622323513031,0.4953773319721222,0.0043038176372647,0.6394975781440735,0.6032228469848633,0.0232906080782413,0.6595126986503601,0.5327466726303101,0.0136442780494689,0.6380159854888916,0.4991337954998016,0.0036945191677659,0.60939621925354,0.4935882687568664,0.0006788839236833,0.6588640213012695,0.6168444752693176,0.0098098721355199,0.6629876494407654,0.5524179339408875,0.0018348776502534,0.6457546353340149,0.514614999294281,-0.003174145007506,0.6234767436981201,0.4979188144207001,-0.0040876031853258
2023-08-01 16:24:39.461300,50,110,0.9985573887825012,0.0111292088404297,-0.0445629246532917,0.0278111658990383,0.07421875,0.96923828125,0.119140625,0.5760127305984497,0.769440770149231,-2.446330711336487e-07,0.5461642742156982,0.7088193297386169,0.0015727542340755,0.5365851521492004,0.6228805780410767,0.0068096341565251,0.5312692523002625,0.5560157895088196,0.0059643504209816,0.5453688502311707,0.5084360837936401,0.0065093711018562,0.5935988426208496,0.5917231440544128,0.0460862480103969,0.599030077457428,0.5379555225372314,0.0402669832110405,0.5873612761497498,0.5098985433578491,0.0283964406698942,0.5735092163085938,0.4975576996803283,0.0207727197557687,0.6159400343894958,0.5930951833724976,0.0377488248050212,0.6278581023216248,0.5275501012802124,0.0303580183535814,0.6096123456954956,0.4994897246360779,0.0155055085197091,0.5835832357406616,0.496576577425003,0.0075808614492416,0.6383737325668335,0.6019827723503113,0.0248793829232454,0.6574708223342896,0.531469464302063,0.0161650348454713,0.636210024356842,0.4993353486061096,0.0061661326326429,0.6077202558517456,0.4946014881134033,0.0027507042977958,0.658244788646698,0.6158475875854492,0.0110340919345617,0.6629090309143066,0.5516268014907837,0.0035669934004545,0.6458613276481628,0.5145987272262573,-0.0015864355955272,0.6234661340713501,0.4985953867435455,-0.0028807728085666
