Timestamp,Index,Frame ID,w,x,y,z,ax,ay,az,x_0,y_0,z_0,x_1,y_1,z_1,x_2,y_2,z_2,x_3,y_3,z_3,x_4,y_4,z_4,x_5,y_5,z_5,x_6,y_6,z_6,x_7,y_7,z_7,x_8,y_8,z_8,x_9,y_9,z_9,x_10,y_10,z_10,x_11,y_11,z_11,x_12,y_12,z_12,x_13,y_13,z_13,x_14,y_14,z_14,x_15,y_15,z_15,x_16,y_16,z_16,x_17,y_17,z_17,x_18,y_18,z_18,x_19,y_19,z_19,x_20,y_20,z_20
2023-08-01 16:24:58.773564,0,404,0.9993934631347656,-0.0155122159048914,-0.0311536248773336,0.0012382338754832,0.107421875,0.9638671875,0.1083984375,0.6117134094238281,0.7728220224380493,-1.9527200834090766e-07,0.5808802843093872,0.7076390385627747,-0.0017222838941961,0.5695950388908386,0.622681736946106,0.0003315956855658,0.5627380609512329,0.5566374063491821,-0.0030872882343828,0.5771765112876892,0.5083749890327454,-0.0053737410344183,0.6219645142555237,0.5880471467971802,0.0372937321662902,0.629616916179657,0.5318193435668945,0.026670753955841,0.6204696297645569,0.5027475357055664,0.0124372197315096,0.608607828617096,0.492872029542923,0.0038846507668495,0.6466966271400452,0.5897979736328125,0.0291233826428651,0.6633742451667786,0.5191414952278137,0.0156846828758716,0.6458335518836975,0.4906054437160492,-0.0009462957968935,0.6187663078308105,0.4920546412467956,-0.0087047759443521,0.6704462170600891,0.6005505919456482,0.0164757706224918,0.6936179399490356,0.5263053774833679,0.0030156502034515,0.6726647615432739,0.4981265068054199,-0.0076212040148675,0.6440615057945251,0.5002140998840332,-0.0103568211197853,0.6900304555892944,0.6179157495498657,0.002754578134045,0.6912502646446228,0.5553383827209473,-0.0083609707653522,0.6717755198478699,0.5218222141265869,-0.014570077881217,0.6480895280838013,0.5099248886108398,-0.0157888680696487
2023-08-01 16:24:58.838080,1,405,0.999421775341034,-0.021218504756689,-0.0255736168473958,-0.0071982871741056,0.1123046875,0.982421875,0.08935546875,0.6114022135734558,0.7674084901809692,-1.930431210439565e-07,0.5810269713401794,0.7033967971801758,-0.0012333209160715,0.5702680945396423,0.6167046427726746,0.0011724169598892,0.5646569132804871,0.5487801432609558,-0.0019585974514484,0.5773293375968933,0.497111827135086,-0.0037682864349335,0.6255202889442444,0.5803120136260986,0.0387688353657722,0.6318137645721436,0.5244781374931335,0.029517101123929,0.6215476989746094,0.4959887266159057,0.0159849431365728,0.6086904406547546,0.4850286841392517,0.0075535527430474,0.6491751074790955,0.5823091864585876,0.0303534734994173,0.6632868051528931,0.5131641030311584,0.0181762110441923,0.6447684168815613,0.4849031567573547,0.0019664776045829,0.6173391342163086,0.4859587550163269,-0.0058658327907323,0.6716017723083496,0.593293309211731,0.0174045003950595,0.6932522654533386,0.5193115472793579,0.0044624912552535,0.6716087460517883,0.4904704689979553,-0.0062336646951735,0.64256352186203,0.4923312962055206,-0.0091219432651996,0.6903483867645264,0.6109492778778076,0.0033875918015837,0.6935306191444397,0.546547532081604,-0.0080683333799242,0.6751164197921753,0.5102828741073608,-0.0147740505635738,0.6516028642654419,0.4970029294490814,-0.0163291338831186
2023-08-01 16:24:58.901398,2,406,0.999240517616272,-0.0279159769415855,-0.0220582578331232,-0.0158915612846612,0.078125,0.9990234375,0.10400390625,0.6103600859642029,0.7658894658088684,-2.1891109724947455e-07,0.5798871517181396,0.7016796469688416,-0.0002197527501266,0.5701501965522766,0.6125742793083191,0.0027223676443099,0.5637086629867554,0.5462940335273743,-0.0001189182003145,0.5763005614280701,0.496107280254364,-0.0014501567929983,0.6265169978141785,0.5745251178741455,0.0380484424531459,0.6341193914413452,0.5165175795555115,0.0272027757018804,0.623112142086029,0.489589124917984,0.013064794242382,0.6096908450126648,0.4830750823020935,0.0049358210526406,0.6501035690307617,0.5765715837478638,0.0290008019655942,0.6660385727882385,0.5047053694725037,0.0164138507097959,0.6470855474472046,0.4780783057212829,0.0009330845787189,0.6200262308120728,0.4818460345268249,-0.0059262155555188,0.6729357838630676,0.5876221656799316,0.0154307670891284,0.6946263313293457,0.5114139318466187,0.0032058344222605,0.6713552474975586,0.482839286327362,-0.0060128415934741,0.6424259543418884,0.4852796196937561,-0.0078301941975951,0.6924192905426025,0.6058714389801025,0.0007039788761176,0.6974790096282959,0.539134681224823,-0.0092205014079809,0.6780210137367249,0.5034759640693665,-0.0143274078145623,0.6542326807975769,0.4912205636501312,-0.0147427078336477
2023-08-01 16:24:58.962100,3,407,0.9988389015197754,-0.036904226988554,-0.0150338746607303,-0.0270738471299409,0.03076171875,0.9560546875,0.18896484375,0.6119391918182373,0.7663321495056152,-2.2743122940482865e-07,0.5804815888404846,0.697745144367218,0.0001627446326892,0.5697064995765686,0.6089155077934265,0.0029063890688121,0.5627790689468384,0.5410780906677246,-0.0003655513573903,0.5778945684432983,0.4929609000682831,-0.0024960683658719,0.6254032850265503,0.5721755027770996,0.0395448170602321,0.6336484551429749,0.514354407787323,0.0285692494362592,0.6234142184257507,0.4869017004966736,0.0137784779071807,0.6103765368461609,0.4799493551254272,0.0049350005574524,0.6502788066864014,0.5748643279075623,0.0304132811725139,0.6659324169158936,0.5030971765518188,0.0173324309289455,0.6479213237762451,0.4753741025924682,0.0002843884867615,0.6206826567649841,0.4771758317947387,-0.0080286050215363,0.6745193004608154,0.5867915153503418,0.0167789962142705,0.6980724334716797,0.5105111002922058,0.0033215892035514,0.6758956909179688,0.482250303030014,-0.0078467288985848,0.6459802985191345,0.4847723841667175,-0.0110987275838851,0.6945929527282715,0.6052464246749878,0.002210046397522,0.6964699029922485,0.5400031208992004,-0.0092175705358386,0.6758636832237244,0.5063303709030151,-0.015807069838047,0.651013970375061,0.4947385191917419,-0.0173127353191375
2023-08-01 16:24:59.026979,4,408,0.9979533553123474,-0.0479633398354053,-0.0093926237896084,-0.0412356294691562,0.00927734375,0.953125,0.2529296875,0.6070330142974854,0.7486362457275391,-2.2515602893236067e-07,0.577236533164978,0.6787822842597961,-0.0009579943143762,0.5690576434135437,0.5879483222961426,0.0005185522604733,0.5625942945480347,0.5211806297302246,-0.0034075726289302,0.5714725255966187,0.4677184224128723,-0.0058083301410079,0.6304468512535095,0.5524436831474304,0.0340821407735347,0.6409005522727966,0.4903670847415924,0.0210223346948623,0.6276537179946899,0.4648019075393677,0.0058718174695968,0.6112275123596191,0.4617933630943298,-0.0024268086999654,0.6560271382331848,0.5576952695846558,0.0246762167662382,0.6740179061889648,0.483276218175888,0.009709752164781,0.6527329683303833,0.4572079479694366,-0.0067754876799881,0.6226625442504883,0.4621942639350891,-0.0137629592791199,0.6795738935470581,0.572525143623352,0.0107804490253329,0.7057467699050903,0.492254376411438,-0.0042097056284546,0.68105149269104,0.4641573429107666,-0.0145408008247613,0.6493615508079529,0.4669100046157837,-0.0164959989488124,0.6972120404243469,0.5948464870452881,-0.0040050125680863,0.6974497437477112,0.5268370509147644,-0.0174550618976354,0.6754903197288513,0.4898669123649597,-0.0244697351008653,0.6500260829925537,0.474373459815979,-0.0255133956670761
2023-08-01 16:24:59.088124,5,409,0.9968785643577576,-0.0569930933415889,-0.0047314753755927,-0.0544287227094173,0.00390625,0.9609375,0.24609375,0.6100044846534729,0.7484325170516968,-2.78251491181436e-07,0.5773758292198181,0.6771048903465271,-0.0012108276132494,0.5680093169212341,0.5854114890098572,-0.0001065581309376,0.5607631802558899,0.5158994197845459,-0.0047845458611845,0.5717231035232544,0.4626173377037048,-0.0080815171822905,0.6296501755714417,0.5458254814147949,0.0355683304369449,0.6383196711540222,0.4796249270439148,0.0210891123861074,0.6242084503173828,0.4525488615036011,0.0046434877440333,0.6081066131591797,0.4503921568393707,-0.0044477432966232,0.6567949056625366,0.5511829257011414,0.0260554160922765,0.6730132699012756,0.4735181629657745,0.0108255548402667,0.6509977579116821,0.4470896124839782,-0.0062370835803449,0.6215022206306458,0.4516366720199585,-0.0140770738944411,0.6822097897529602,0.5670374631881714,0.0118006486445665,0.7088544368743896,0.4819970428943634,-0.0038935006596148,0.6820835471153259,0.4537871778011322,-0.0143531681969761,0.6497847437858582,0.4578123390674591,-0.0166812613606452,0.7020173072814941,0.5900768637657166,-0.0034006335772573,0.6999624371528625,0.5179297924041748,-0.0177795067429542,0.6745153665542603,0.4830261766910553,-0.0248357448726892,0.6476131081581116,0.4712022542953491,-0.0259112175554037
2023-08-01 16:24:59.150849,6,410,0.995934247970581,-0.0635902509093284,7.967806595843285e-05,-0.0638064369559288,-0.044921875,0.9453125,0.24365234375,0.6100389957427979,0.748490571975708,-2.902108064972708e-07,0.5783435702323914,0.675067663192749,0.0003440007858444,0.5679042935371399,0.5810222029685974,0.00233059306629,0.5606435537338257,0.5101298093795776,-0.0019302037544548,0.5722545981407166,0.4549889266490936,-0.0049167615361511,0.6300134658813477,0.5408008694648743,0.0390749126672744,0.6386075019836426,0.4736945033073425,0.0261748731136322,0.6241213083267212,0.4455420970916748,0.0103428466245532,0.6076229214668274,0.4403624236583709,0.0010298809502273,0.657585084438324,0.5464524626731873,0.0283048059791326,0.674082338809967,0.4671027362346649,0.0137761589139699,0.6511911153793335,0.4390832781791687,-0.0035580489784479,0.6200069189071655,0.4415159225463867,-0.0120321372523903,0.6835463643074036,0.5626955628395081,0.0127301672473549,0.710908055305481,0.4755277037620544,-0.0030754555482417,0.6836503744125366,0.4461450278759002,-0.0142890736460685,0.6497043967247009,0.4487026929855346,-0.017517652362585,0.70402592420578,0.5853055715560913,-0.0036615307908505,0.6998376846313477,0.5118988156318665,-0.0186426844447851,0.6729708909988403,0.4778623878955841,-0.0264192186295986,0.6447727084159851,0.4659607112407684,-0.0283431280404329
2023-08-01 16:24:59.210849,7,411,0.994207203388214,-0.0748436897993087,0.0026262206956744,-0.0770932435989379,-0.1103515625,0.94189453125,0.2705078125,0.610291600227356,0.7478969693183899,-2.898047171129292e-07,0.5775638818740845,0.675914466381073,-0.0011976771056652,0.567206084728241,0.5791422128677368,0.0001249018823727,0.5612636208534241,0.5062286853790283,-0.0042708432301878,0.5722532272338867,0.4500152170658111,-0.0072652916423976,0.629823625087738,0.5330517292022705,0.0343273766338825,0.6380968689918518,0.4609839916229248,0.0190203804522752,0.6239036321640015,0.4330381453037262,0.0021201716735959,0.6073793172836304,0.4309672117233276,-0.0072405459359288,0.6589588522911072,0.5395435094833374,0.0242344830185174,0.6737596988677979,0.4561434984207153,0.0078477431088685,0.6523861885070801,0.4272346496582031,-0.0102028707042336,0.6222280263900757,0.4303457736968994,-0.0187837518751621,0.6858110427856445,0.5572733879089355,0.0093582244589924,0.7122058868408203,0.4685391783714294,-0.008027821779251,0.6863551735877991,0.4382050931453705,-0.0202443152666091,0.6526265144348145,0.44026979804039,-0.023891020566225,0.7069514393806458,0.5821830630302429,-0.0063196048140525,0.702080488204956,0.5093176960945129,-0.0228368584066629,0.6756281852722168,0.4735914468765259,-0.0317061953246593,0.64702308177948,0.4595833122730255,-0.0340910032391548
2023-08-01 16:24:59.269008,8,412,0.9921839237213136,-0.0863367244601249,0.0052464273758232,-0.0899420827627182,-0.04443359375,0.89892578125,0.29052734375,0.6084142327308655,0.7388904690742493,-2.4752517902015825e-07,0.5734138488769531,0.6624797582626343,0.0003973377752117,0.5637203454971313,0.5590723752975464,0.0037170292343944,0.558912456035614,0.4837284386157989,0.0010406529763713,0.5683208107948303,0.4239446222782135,-0.0005413882900029,0.6332160830497742,0.515148401260376,0.0404155142605304,0.6426466703414917,0.4497529864311218,0.0313603319227695,0.6327071189880371,0.4186427891254425,0.0169767625629901,0.6202861666679382,0.403684914112091,0.0070018698461353,0.6643297672271729,0.5226800441741943,0.0289963949471712,0.6819894909858704,0.4411735236644745,0.0150428460910916,0.6601753234863281,0.413260817527771,-0.0036307205446064,0.6293249726295471,0.4136775135993957,-0.013113334774971,0.6910831928253174,0.5404747128486633,0.0131771052256226,0.7202727794647217,0.4491859972476959,-0.0022626940626651,0.6924940347671509,0.4154335856437683,-0.0149709898978471,0.657397985458374,0.4126630127429962,-0.01942022703588,0.7095357775688171,0.566511332988739,-0.0033895066007971,0.7076122760772705,0.4878837168216705,-0.0191358104348182,0.6813119649887085,0.4463192820549011,-0.0281361974775791,0.6527943015098572,0.4266907572746277,-0.0310687478631734
2023-08-01 16:24:59.337016,9,413,0.9895073771476746,-0.0992056056857109,0.0057619591243565,-0.1048820689320564,-0.11181640625,0.91064453125,0.34033203125,0.6092734336853027,0.7383782267570496,-3.00663884900132e-07,0.572560727596283,0.6619482040405273,0.0001933329185703,0.5629215240478516,0.5536027550697327,0.0040627513080835,0.5574366450309753,0.4751902520656585,0.0014497955562546,0.5666995644569397,0.4135609865188598,1.5353001799667254e-05,0.630789577960968,0.5068257451057434,0.0423962734639644,0.6415725350379944,0.4359824061393738,0.0291366036981344,0.6294515132904053,0.4038791060447693,0.012119204737246,0.6128861904144287,0.3970944285392761,0.0024134661071002,0.6626203060150146,0.5143944621086121,0.0307182259857654,0.683391273021698,0.4299629330635071,0.015364515595138,0.660370409488678,0.396145224571228,-0.003604331286624,0.6259057521820068,0.3971315622329712,-0.0123812798410654,0.6912950277328491,0.5331854820251465,0.0138698788359761,0.7215585708618164,0.4403039515018463,-0.0032556043006479,0.6939113140106201,0.4040734767913818,-0.0164000634104013,0.6582454442977905,0.4038413465023041,-0.0201560165733099,0.7130358815193176,0.5583906173706055,-0.0037729097530245,0.7094968557357788,0.4765506088733673,-0.0202266741544008,0.6808984279632568,0.4369336664676666,-0.0286098793148994,0.6506098508834839,0.4228861629962921,-0.0303332712501287
2023-08-01 16:24:59.419558,10,414,0.9861799478530884,-0.1094885393977165,0.0044136336073279,-0.1242653429508209,-0.1376953125,0.89404296875,0.3310546875,0.6073891520500183,0.738339900970459,-3.045798848688719e-07,0.5713661909103394,0.6583194136619568,0.0013022734783589,0.561484158039093,0.5490916967391968,0.0050358860753476,0.5549469590187073,0.4712467491626739,0.0017973514040932,0.5642051100730896,0.4098796844482422,-2.774555105133913e-05,0.6334419250488281,0.5008236765861511,0.04396678134799,0.6437163352966309,0.4272841811180115,0.0292591601610183,0.6280379891395569,0.3941331803798675,0.0112332543358206,0.6080408096313477,0.3886457979679107,0.0013700854033231,0.6645154356956482,0.5078340768814087,0.0311979167163372,0.6859740018844604,0.4204261004924774,0.0152588188648223,0.6601343750953674,0.3843893706798553,-0.0036591498646885,0.6229360103607178,0.385950893163681,-0.0120527846738696,0.6929317116737366,0.5268816351890564,0.0130733400583267,0.7251803278923035,0.4315716624259949,-0.0040720743127167,0.6953083872795105,0.3938440680503845,-0.0165365450084209,0.6575374603271484,0.3941954970359802,-0.0195781532675027,0.7137903571128845,0.5528626441955566,-0.0059453318826854,0.7110908627510071,0.4711631834506988,-0.0222296100109815,0.6816802620887756,0.4306589961051941,-0.0302400458604097,0.6505551338195801,0.4160610437393188,-0.0313908010721206
2023-08-01 16:24:59.494563,11,415,0.9822549819946288,-0.1208098083734512,0.0033648265525698,-0.1434186249971389,-0.24560546875,0.916015625,0.3505859375,0.6074089407920837,0.7379283905029297,-2.919581447713427e-07,0.5685619711875916,0.6529282331466675,-0.0008667021756991,0.5587834119796753,0.5360575318336487,0.0020141350105404,0.5522677898406982,0.4507350325584411,-0.0019907779060304,0.5621856451034546,0.3824647665023803,-0.0042035984806716,0.6350426077842712,0.4851747751235962,0.0476189963519573,0.6465369462966919,0.407864362001419,0.0337867923080921,0.632060706615448,0.3743254542350769,0.0144699327647686,0.6120633482933044,0.3669776320457458,0.002676383825019,0.6689344048500061,0.4942609071731567,0.035061802715063,0.6903230547904968,0.4058237075805664,0.0188996940851211,0.6651420593261719,0.3708243668079376,-0.0031770237255841,0.6261417269706726,0.3718308806419372,-0.0143330506980419,0.6987277865409851,0.5158492922782898,0.0167619567364454,0.733431875705719,0.4171527028083801,-0.0005354367312975,0.7047176957130432,0.3748540878295898,-0.0148743959143757,0.6643786430358887,0.3704628348350525,-0.0196736026555299,0.7195460200309753,0.5459118485450745,-0.002708239480853,0.7190006971359253,0.4579527974128723,-0.0202817507088184,0.6903877854347229,0.4094716310501098,-0.0298807993531227,0.6566788554191589,0.388012170791626,-0.0324381962418556
2023-08-01 16:24:59.579592,12,416,0.9779862761497498,-0.1318136304616928,0.0088060889393091,-0.1615254133939743,-0.298828125,0.90576171875,0.3955078125,0.6095188856124878,0.7420793175697327,-3.2226012081082445e-07,0.5716375708580017,0.6569780111312866,-0.0034915176220238,0.5617753863334656,0.5376172065734863,-0.0025280355475842,0.553992509841919,0.4481391906738281,-0.0082252649590373,0.5655772089958191,0.3794223368167877,-0.0121887549757957,0.6379265189170837,0.4809171259403229,0.0438410378992557,0.6495522856712341,0.3994964361190796,0.0269191171973943,0.633931577205658,0.3641857504844665,0.0057354639284312,0.6136189103126526,0.3554294407367706,-0.0071097831241786,0.6725023984909058,0.4899952113628387,0.0316755138337612,0.6973648071289062,0.3966780304908752,0.0120660560205578,0.6703794598579407,0.3598353862762451,-0.0114676151424646,0.6295713782310486,0.3603711128234863,-0.0230530984699726,0.7037478685379028,0.5126835703849792,0.0135381827130913,0.7417895793914795,0.409591794013977,-0.0063875052146613,0.7116455435752869,0.366779625415802,-0.0218179654330015,0.6702673435211182,0.3644387722015381,-0.0268826130777597,0.7272277474403381,0.5450277328491211,-0.005944930948317,0.72894287109375,0.4537441730499267,-0.0249092075973749,0.6998194456100464,0.4057682454586029,-0.0349675975739955,0.665878176689148,0.3872697949409485,-0.0376397967338562
2023-08-01 16:24:59.653965,13,417,0.9740221500396729,-0.1417511254549026,0.0102685559540987,-0.1763004213571548,-0.32470703125,0.81689453125,0.435546875,0.6217439770698547,0.7467500567436218,-2.9288537461980013e-07,0.578610360622406,0.654498815536499,-0.0030741591472178,0.5682949423789978,0.5270917415618896,-0.0018138114828616,0.5623466372489929,0.4341866672039032,-0.0072876876220107,0.57469642162323,0.3600209951400757,-0.0114412261173129,0.6498122811317444,0.463881254196167,0.0502927042543888,0.6644259691238403,0.3814692795276642,0.0361847355961799,0.6498106718063354,0.3456491827964782,0.0144431972876191,0.6268887519836426,0.332381010055542,0.0001362386828986,0.6881352066993713,0.4768968522548675,0.036825131624937,0.7145633101463318,0.3802792429924011,0.0172210931777954,0.6888342499732971,0.3417008519172668,-0.0106624281033873,0.6450230479240417,0.337004005908966,-0.0253303498029708,0.7219944596290588,0.5044300556182861,0.0172965638339519,0.7627345323562622,0.3972273766994476,-0.0041597294621169,0.7334001064300537,0.3522456288337707,-0.0246512424200773,0.6878887414932251,0.3432710766792297,-0.03310152515769,0.747725784778595,0.5414918065071106,-0.0031644676346331,0.7460077404975891,0.4427994191646576,-0.0246609449386596,0.7173844575881958,0.3894947171211242,-0.0379072539508342,0.682847261428833,0.361341655254364,-0.0429618917405605
2023-08-01 16:24:59.716305,14,418,0.9713526368141174,-0.1488791108131408,0.009043606929481,-0.1850062906742096,-0.20947265625,0.8037109375,0.466796875,0.6238003373146057,0.7549526691436768,-2.871042852348183e-07,0.5803051590919495,0.6643126606941223,-0.0097373947501182,0.570602297782898,0.5304750800132751,-0.0131725026294589,0.5647072792053223,0.4303333759307861,-0.0222109109163284,0.5799192190170288,0.3530288934707641,-0.0290290042757987,0.6532385349273682,0.4619607627391815,0.0371604487299919,0.6704135537147522,0.367149293422699,0.0132376486435532,0.6547070145606995,0.3282818794250488,-0.012811629101634,0.632701575756073,0.3231768310070038,-0.0278815682977437,0.6937931180000305,0.4743822515010834,0.0262860879302024,0.7214541435241699,0.3655725121498108,5.819376747240312e-05,0.6948217749595642,0.3250104784965515,-0.0283892918378114,0.6516661047935486,0.328042984008789,-0.0423025637865066,0.7289831638336182,0.5023946166038513,0.0088255610316991,0.7711063623428345,0.3860459327697754,-0.0158647075295448,0.7400159239768982,0.3387779593467712,-0.0344189144670963,0.6935721039772034,0.3342354297637939,-0.0408348180353641,0.7555984854698181,0.5415653586387634,-0.0102300709113478,0.7553555369377136,0.4405385255813598,-0.0331706814467906,0.7296067476272583,0.3870057165622711,-0.0458709299564361,0.6969683766365051,0.3621861934661865,-0.0496572442352771
2023-08-01 16:24:59.773024,15,419,0.968730628490448,-0.1557232290506363,0.0059789177030324,-0.1930687725543975,-0.33349609375,0.8505859375,0.412109375,0.6246961355209351,0.7645140886306763,-2.895312150030805e-07,0.5810054540634155,0.6670032739639282,-0.0100574102252721,0.5728168487548828,0.5301001071929932,-0.0129895005375146,0.5663930177688599,0.4296583533287048,-0.0221642963588237,0.5784395337104797,0.3504900932312011,-0.0286934413015842,0.6557608246803284,0.4602243602275848,0.0366202928125858,0.6731574535369873,0.3623029589653015,0.008538469672203,0.6563072800636292,0.3189471960067749,-0.0197695661336183,0.6336122155189514,0.3139192461967468,-0.0352624617516994,0.6975578665733337,0.4710384905338287,0.0241689160466194,0.7303003668785095,0.3556264638900757,-0.0054658674634993,0.7006857991218567,0.3095235526561737,-0.0333043076097965,0.6552602052688599,0.3145956993103027,-0.0455934032797813,0.7332256436347961,0.4994591772556305,0.0043926960788667,0.7806428670883179,0.3788837194442749,-0.0228636171668767,0.7449755072593689,0.3293982744216919,-0.0399232245981693,0.6962673664093018,0.3289363086223602,-0.044219471514225,0.7593483328819275,0.5399556159973145,-0.0174547638744115,0.7652896642684937,0.4376449882984161,-0.041415024548769,0.7332499027252197,0.382993221282959,-0.0533487051725387,0.6943411827087402,0.3617990612983703,-0.0559224747121334
2023-08-01 16:24:59.832628,16,420,0.9656139016151428,-0.1627539545297622,0.0080239502713084,-0.2025747150182724,-0.37841796875,0.82568359375,0.4560546875,0.6369125843048096,0.7843780517578125,-2.8109334948567266e-07,0.5876961946487427,0.6791874170303345,-0.0094999428838491,0.5780032873153687,0.5330455899238586,-0.0118550593033432,0.5703825950622559,0.4226003885269165,-0.0215866640210151,0.5847632884979248,0.3383632302284241,-0.0289458986371755,0.6624705791473389,0.4551718235015869,0.0489857792854309,0.681095540523529,0.3543480038642883,0.0223090201616287,0.6657721996307373,0.3077016472816467,-0.0081740422174334,0.6420255899429321,0.2999912798404693,-0.0261844433844089,0.7084065675735474,0.4676547050476074,0.0349213369190692,0.7424712181091309,0.3495804071426391,0.0033455465454608,0.7122918367385864,0.3000818490982055,-0.0314632691442966,0.6617475152015686,0.3045915365219116,-0.0484066754579544,0.7478585839271545,0.4977767467498779,0.0129806641489267,0.7990111112594604,0.3712567687034607,-0.0163626112043857,0.765068531036377,0.315765380859375,-0.0396862998604774,0.7139243483543396,0.3133795261383056,-0.0478288680315017,0.7785513997077942,0.5401653051376343,-0.0109222177416086,0.7817637324333191,0.4295597374439239,-0.0387572944164276,0.748708188533783,0.3696069121360779,-0.0553893148899078,0.7077991366386414,0.3459649085998535,-0.0608984716236591
2023-08-01 16:24:59.899204,17,421,0.9628241658210754,-0.1712105125188827,0.0043943310156464,-0.208895206451416,-0.33544921875,0.80517578125,0.556640625,0.6362065672874451,0.8092078566551208,-2.9663328859896865e-07,0.5882723331451416,0.6954187750816345,-0.0059560625813901,0.5797731280326843,0.5442625284194946,-0.005785568151623,0.5734661817550659,0.4341989457607269,-0.0135692972689867,0.5815073251724243,0.3486327528953552,-0.0191399622708559,0.6611985564231873,0.467619925737381,0.0481581650674343,0.6787281036376953,0.3635844588279724,0.021604761481285,0.6682019829750061,0.3146422505378723,-0.0082296431064605,0.6479051113128662,0.3032456636428833,-0.0258836857974529,0.7092369794845581,0.4812186658382416,0.0322037376463413,0.7412161231040955,0.357954740524292,-0.0005070327897556,0.7163044810295105,0.3076421618461609,-0.0353567153215408,0.6692531108856201,0.3107766509056091,-0.0521302483975887,0.7508964538574219,0.5121210813522339,0.0089959613978862,0.8015851378440857,0.3791298866271972,-0.021229799836874,0.7705417275428772,0.3218055665493011,-0.0447879359126091,0.7190625071525574,0.3187451362609863,-0.0531488172709941,0.783348560333252,0.5553697943687439,-0.0158671438694,0.7859350442886353,0.4468300342559814,-0.0432453081011772,0.7559702396392822,0.3817315399646759,-0.0600642599165439,0.7163698673248291,0.3513385057449341,-0.0659292340278625
2023-08-01 16:24:59.962989,18,422,0.9621092081069946,-0.1725229769945144,0.0055128838866949,-0.2110718488693237,-0.392578125,0.80712890625,0.51611328125,0.6421859860420227,0.8185184001922607,-2.724612500060175e-07,0.593384861946106,0.7056835889816284,-0.0104041146114468,0.5788537263870239,0.551318883895874,-0.0127537827938795,0.571862518787384,0.436699777841568,-0.0223749112337827,0.5864512920379639,0.3479658365249634,-0.0292368605732917,0.6618398427963257,0.4667975306510925,0.0467647686600685,0.6805688738822937,0.3652620911598205,0.0200234111398458,0.6714291572570801,0.3162996470928192,-0.0103272246196866,0.651776909828186,0.3019134998321533,-0.0285453107208013,0.7117297649383545,0.4797125160694122,0.0330697335302829,0.7415723204612732,0.3555843234062195,0.0002183545584557,0.7172757983207703,0.3075111508369446,-0.0347137451171875,0.6706275343894958,0.3133937418460846,-0.0515014044940471,0.7542038559913635,0.5103126168251038,0.0116422213613986,0.8027028441429138,0.3774261474609375,-0.0183651093393564,0.773664116859436,0.3241918981075287,-0.040905937552452,0.7232487201690674,0.326615959405899,-0.0483877845108509,0.7876603603363037,0.5549625158309937,-0.0119085842743515,0.7908679246902466,0.4447441697120666,-0.0383911579847335,0.7618746757507324,0.3796298503875732,-0.0540774427354335,0.7217373847961426,0.3510738909244537,-0.0589968264102935
2023-08-01 16:25:00.027214,19,423,0.9621984958648682,-0.1725992113351822,0.0057720462791621,-0.2105946242809295,-0.388671875,0.80224609375,0.48681640625,0.6460786461830139,0.8528501987457275,-2.4709964918656624e-07,0.5940092206001282,0.7430156469345093,-0.0125066954642534,0.581201434135437,0.5785012245178223,-0.0128966150805354,0.5744895935058594,0.455714464187622,-0.0196917802095413,0.5899128913879395,0.3608258366584778,-0.0238693337887525,0.664914608001709,0.4873756170272827,0.0450428947806358,0.6848462224006653,0.387004554271698,0.0215062815696001,0.6796654462814331,0.3338540196418762,-0.0059214285574853,0.6660856604576111,0.3107732832431793,-0.0233774110674858,0.7194200754165649,0.5008288621902466,0.0316180922091007,0.7571043968200684,0.3721797466278076,0.0009290458401665,0.7335177659988403,0.3171592950820923,-0.0311394818127155,0.6849331855773926,0.3176506459712982,-0.0459088757634162,0.764926016330719,0.5337790846824646,0.0104982024058699,0.8210777640342712,0.3957628011703491,-0.0192671325057744,0.7897776961326599,0.3380611538887024,-0.0393748097121715,0.736595869064331,0.3357442915439605,-0.044981550425291,0.7997612953186035,0.5816249251365662,-0.0129650775343179,0.8041313886642456,0.4662162959575653,-0.0411655716598033,0.7710302472114563,0.4038141965866089,-0.0559946298599243,0.7274492979049683,0.3777811527252197,-0.0598095506429672
2023-08-01 16:25:00.081932,20,424,0.9621684551239014,-0.1729926466941833,0.0046660113148391,-0.2104366272687912,-0.29638671875,0.80419921875,0.462890625,0.647160530090332,0.8646931648254395,-2.291469343163044e-07,0.5973396301269531,0.7484598755836487,-0.0104954056441783,0.5814268589019775,0.5878045558929443,-0.0120062893256545,0.5740633010864258,0.4671559929847717,-0.0211116001009941,0.5905967354774475,0.3741382956504822,-0.0275710597634315,0.6664103865623474,0.4887083768844604,0.052286073565483,0.6835494637489319,0.3883341550827026,0.0289673916995525,0.6797199249267578,0.3386530876159668,0.0002669614041224,0.6666345000267029,0.3163931369781494,-0.0180056262761354,0.7203261256217957,0.501506507396698,0.0380937047302722,0.7498114705085754,0.3751958906650543,0.007216805126518,0.7293506264686584,0.323590874671936,-0.0275300070643425,0.6843294501304626,0.3227539658546448,-0.0442253202199935,0.7660027742385864,0.5327287912368774,0.0159835740923881,0.8179519176483154,0.3983295559883117,-0.0140903443098068,0.7920246124267578,0.3421966433525085,-0.0370485633611679,0.7411264777183533,0.3405365943908691,-0.0444037988781929,0.8016021251678467,0.5792582631111145,-0.0082831336185336,0.806148886680603,0.4688587188720703,-0.0358611531555652,0.7794167399406433,0.4031748175621032,-0.0520775727927684,0.739707887172699,0.3722190260887146,-0.0567536614835262
2023-08-01 16:25:00.143535,21,425,0.9621827006340028,-0.172909677028656,0.0043274210765957,-0.2104470133781433,-0.3701171875,0.7978515625,0.48583984375,0.6447903513908386,0.8683006167411804,-2.19013415403424e-07,0.5962030291557312,0.7503812313079834,-0.0106982849538326,0.5804186463356018,0.5862289667129517,-0.0127489138394594,0.5730577111244202,0.4628515541553497,-0.0227662995457649,0.5974044799804688,0.3775344491004944,-0.0300247222185134,0.6657167673110962,0.4889317750930786,0.0513698160648345,0.685273289680481,0.3900801539421081,0.0250619873404502,0.6817589998245239,0.338437020778656,-0.0058139599859714,0.6676931977272034,0.3181726336479187,-0.0247540231794118,0.7200341820716858,0.5011258721351624,0.037037219852209,0.7510150671005249,0.3746483922004699,0.0032646607141941,0.7295758724212646,0.3222619295120239,-0.0323033779859542,0.6829261779785156,0.3265172243118286,-0.0484231822192668,0.7657004594802856,0.5327136516571045,0.0147018358111381,0.816899836063385,0.3967252373695373,-0.0164086148142814,0.789968729019165,0.3423090577125549,-0.0379931777715683,0.7385244965553284,0.3462849855422973,-0.0433152988553047,0.7999566793441772,0.5800479054450989,-0.0099823465570807,0.8050196170806885,0.4674486219882965,-0.0367552265524864,0.7794416546821594,0.4004458785057068,-0.0513956807553768,0.7406423091888428,0.370967149734497,-0.0542551428079605
2023-08-01 16:25:00.216331,22,426,0.9628968834877014,-0.1714544594287872,0.0053696618415415,-0.2083364874124527,-0.3955078125,0.7978515625,0.5244140625,0.6462443470954895,0.8684435486793518,-2.436788975046511e-07,0.5959659814834595,0.7476527690887451,-0.0109780151396989,0.5794683694839478,0.5856192708015442,-0.0126398308202624,0.5739595890045166,0.4644878506660461,-0.0220847073942422,0.5903003215789795,0.3727271556854248,-0.0286274198442697,0.6635603308677673,0.4880265593528747,0.050935611128807,0.6838761568069458,0.3869575560092926,0.0241656452417373,0.6799560785293579,0.3373497128486633,-0.0066653694957494,0.6649189591407776,0.3168661296367645,-0.0252325385808944,0.7180047631263733,0.5000059604644775,0.0370596647262573,0.7468213438987732,0.3720008134841919,0.0035684960894286,0.7244260907173157,0.3231873512268066,-0.0314678773283958,0.6782417297363281,0.3272896409034729,-0.047258261591196,0.76438307762146,0.5302218794822693,0.0150307407602667,0.8149052858352661,0.3943173289299011,-0.0163245424628257,0.7884151935577393,0.341347724199295,-0.0379889234900474,0.7378938794136047,0.3450207412242889,-0.043403785675764,0.7998359203338623,0.5767298340797424,-0.0093601532280445,0.806189239025116,0.4665298163890838,-0.0360404625535011,0.7809964418411255,0.4002721309661865,-0.0505108274519443,0.7425944805145264,0.3702682256698608,-0.0533549711108207
2023-08-01 16:25:00.267936,23,427,0.964056432247162,-0.1695374101400375,0.0037963518407195,-0.2045427113771438,-0.3125,0.796875,0.5185546875,0.6446037292480469,0.8639230728149414,-2.586239133961499e-07,0.5968437194824219,0.7431051731109619,-0.0121703520417213,0.5807722210884094,0.5847454071044922,-0.0150249553844332,0.5773181915283203,0.4650211930274963,-0.0250732861459255,0.5934237241744995,0.3688312768936157,-0.032248880714178,0.6641064882278442,0.4875969290733337,0.047691062092781,0.6846354007720947,0.3863435685634613,0.0213095601648092,0.6793039441108704,0.337781012058258,-0.0091699250042438,0.6624953746795654,0.3167845010757446,-0.0277220532298088,0.7179316282272339,0.4998208880424499,0.0343439392745494,0.7497811913490295,0.3736397624015808,0.0018998677842319,0.7263492345809937,0.3265796899795532,-0.0324515625834465,0.6789140701293945,0.3295794427394867,-0.0485168546438217,0.7633777856826782,0.5297881960868835,0.0129784699529409,0.8159894347190857,0.3963581025600433,-0.0178453233093023,0.7871206402778625,0.3441082239151001,-0.0393900163471698,0.7348349094390869,0.3460195064544678,-0.0455011464655399,0.7983352541923523,0.5763876438140869,-0.0107363341376185,0.8072830438613892,0.4675915837287903,-0.0370473377406597,0.7807232737541199,0.4037154018878937,-0.0510197393596172,0.7404263615608215,0.3753467798233032,-0.0541019365191459
2023-08-01 16:25:00.332822,24,428,0.9666597843170166,-0.1629536151885986,0.0018087240168824,-0.1975138485431671,-0.32080078125,0.8173828125,0.4951171875,0.6442334055900574,0.858277440071106,-2.552541502609529e-07,0.5967098474502563,0.7424521446228027,-0.010481996461749,0.5798936486244202,0.5830238461494446,-0.0122786359861493,0.5736969113349915,0.4632223844528198,-0.021636925637722,0.5928758382797241,0.3779488503932953,-0.0282400995492935,0.6635196805000305,0.4852099120616913,0.048555813729763,0.6853285431861877,0.3853653073310852,0.0225043054670095,0.6799071431159973,0.3373814225196838,-0.007375996094197,0.6632474064826965,0.3200722932815552,-0.0251043587923049,0.7164316773414612,0.496896743774414,0.0349525772035121,0.7478141188621521,0.3708094656467438,0.0033111989032477,0.7265192270278931,0.3220582604408264,-0.0299400854855775,0.6813706159591675,0.3269601762294769,-0.0449230782687664,0.7620277404785156,0.5271590948104858,0.0135236950591206,0.8128653764724731,0.3939964771270752,-0.0166393984109163,0.7872623205184937,0.3415578305721283,-0.037827979773283,0.7376581430435181,0.3460150063037872,-0.0433248467743396,0.7976609468460083,0.5735173225402832,-0.0100702848285436,0.8046079874038696,0.4631629884243011,-0.0359146073460578,0.7792269587516785,0.397952675819397,-0.049825981259346,0.7404687404632568,0.369549810886383,-0.0525998249650001
2023-08-01 16:25:00.390567,25,429,0.9694470167160034,-0.154513344168663,0.0023288584779947,-0.1905065327882766,-0.39501953125,0.83203125,0.46923828125,0.6456089019775391,0.859271228313446,-2.293421914600913e-07,0.5963866114616394,0.741600751876831,-0.0125333564355969,0.5792227983474731,0.5862807631492615,-0.016561260446906,0.5730864405632019,0.4672781229019165,-0.0277358517050743,0.5910409688949585,0.3746564388275146,-0.0361775383353233,0.6603740453720093,0.4872534275054931,0.0453360117971897,0.6814889907836914,0.3872324824333191,0.0180097743868827,0.6790525913238525,0.3385713696479797,-0.0128944581374526,0.6660929918289185,0.3220351338386535,-0.0314453728497028,0.714887797832489,0.5008601546287537,0.0319007709622383,0.7493624687194824,0.373730331659317,-0.0033011236228048,0.7288545370101929,0.3295003175735473,-0.039255816489458,0.6837494373321533,0.3415612876415252,-0.055409025400877,0.7605829834938049,0.5311994552612305,0.0107318861410021,0.8145855069160461,0.3949931263923645,-0.0211062580347061,0.7872297763824463,0.3430623710155487,-0.0436059013009071,0.7366605997085571,0.3493073582649231,-0.0498938970267772,0.7956728339195251,0.5773800015449524,-0.012690782546997,0.801181972026825,0.4661782383918762,-0.0402622781693935,0.772688090801239,0.4021212458610534,-0.0555425360798835,0.7317981719970703,0.3763058185577392,-0.0591984540224075
2023-08-01 16:25:00.470695,26,430,0.97412770986557,-0.1428443640470504,-0.0048305513337254,-0.1750638037919998,-0.29443359375,0.814453125,0.48583984375,0.6388638615608215,0.8530987501144409,-3.105314192453079e-07,0.5960668325424194,0.7286570072174072,-0.0085649378597736,0.5805929899215698,0.5762442350387573,-0.0097316112369298,0.5764240026473999,0.4631992280483246,-0.0187785997986793,0.5943163633346558,0.3743162751197815,-0.0252767335623502,0.6580633521080017,0.4892664551734924,0.0520584397017955,0.6800476908683777,0.3967441916465759,0.0290255043655633,0.6737432479858398,0.353130042552948,0.0002115483657689,0.6576637625694275,0.3330375850200653,-0.017920957878232,0.7083727717399597,0.5007778406143188,0.0384678803384304,0.7420101165771484,0.3806298375129699,0.0089807193726301,0.7175012230873108,0.3444885909557342,-0.0233292113989591,0.6718212962150574,0.3526766896247864,-0.0387208238244056,0.7516175508499146,0.527509331703186,0.0172584727406501,0.8043025732040405,0.3975790441036224,-0.0093991104513406,0.773034393787384,0.3517584502696991,-0.0297261532396078,0.7215589284896851,0.3562597036361694,-0.036299854516983,0.785572350025177,0.5703399777412415,-0.006199587136507,0.7983410954475403,0.4625450074672699,-0.0261497851461172,0.7691754698753357,0.4049155414104461,-0.0373396351933479,0.7270383834838867,0.3822368383407593,-0.040243923664093
2023-08-01 16:25:00.544431,27,431,0.9788325428962708,-0.1293435096740722,-0.0128218093886971,-0.1580904573202133,-0.23974609375,0.86474609375,0.42626953125,0.6372209787368774,0.841030478477478,-3.277878590779437e-07,0.5953534841537476,0.7193450927734375,-0.0056604715064167,0.5811522006988525,0.5733657479286194,-0.0056727770715951,0.5781299471855164,0.4648915827274322,-0.0140976132825016,0.5931375622749329,0.37702676653862,-0.0200337767601013,0.6590210199356079,0.4873721003532409,0.0546137057244777,0.6799241304397583,0.3966729342937469,0.0327927432954311,0.6728708148002625,0.3557486236095428,0.0054069044999778,0.6564363837242126,0.3384412825107574,-0.0114514296874403,0.7064472436904907,0.49675053358078,0.0400590933859348,0.738955557346344,0.3815631866455078,0.0121330637484788,0.71473228931427,0.3473972082138061,-0.0186608470976352,0.670754611492157,0.3567636013031006,-0.0329782143235206,0.7478024959564209,0.5216913819313049,0.0180734004825353,0.7991778254508972,0.396190345287323,-0.0074947103857994,0.7694851160049438,0.3526870608329773,-0.0265160594135522,0.720611572265625,0.3588472902774811,-0.0321077704429626,0.7815147042274475,0.5631048679351807,-0.0059583964757621,0.7956794500350952,0.4569399952888489,-0.0251842886209487,0.768246591091156,0.3991437554359436,-0.0354530550539493,0.728313684463501,0.375895619392395,-0.0375386252999305
2023-08-01 16:25:00.628028,28,432,0.983470380306244,-0.1139190569519996,-0.0218095574527978,-0.1390422731637954,-0.21240234375,0.90966796875,0.3447265625,0.6368776559829712,0.8362222909927368,-2.970957666548202e-07,0.5965998768806458,0.7141225337982178,-0.006442270707339,0.582165002822876,0.5701996088027954,-0.0061479373835027,0.5776931047439575,0.4623202979564667,-0.0138324787840247,0.5931252241134644,0.3786343932151794,-0.0189515817910432,0.6581250429153442,0.4898509681224823,0.0550633147358894,0.678547203540802,0.4029927253723144,0.0348133705556392,0.6731114387512207,0.3627151846885681,0.0082031190395355,0.6588821411132812,0.3431801199913025,-0.0087844925001263,0.7048576474189758,0.499650239944458,0.0418233647942543,0.7361968755722046,0.3882943391799927,0.0152094801887869,0.7150306105613708,0.3529247641563415,-0.0156900770962238,0.6737290024757385,0.3589456677436828,-0.0307429656386375,0.7455506920814514,0.5239860415458679,0.0212355814874172,0.7964349985122681,0.4037982821464538,-0.0029204764869064,0.7697712779045105,0.3576915264129638,-0.0225110352039337,0.7225136160850525,0.3595107197761535,-0.0291644148528575,0.7780291438102722,0.5647981762886047,-0.0014450852759182,0.7920676469802856,0.4656148254871368,-0.0193432811647653,0.7689136862754822,0.4089537560939789,-0.0299780499190092,0.7327695488929749,0.384760707616806,-0.0328821875154972
2023-08-01 16:25:00.703664,29,433,0.9879776835441588,-0.0963810533285141,-0.0324021764099597,-0.116451121866703,-0.103515625,0.8896484375,0.2978515625,0.6413189768791199,0.836013674736023,-2.955231366286171e-07,0.5992031097412109,0.7180072069168091,-0.003049589227885,0.5865947008132935,0.5806066989898682,0.0002338440099265,0.5848019123077393,0.478231281042099,-0.005202583502978,0.6031550765037537,0.4009985327720642,-0.007983355782926,0.6562264561653137,0.4996309280395508,0.0624090284109115,0.6750478744506836,0.41607666015625,0.0453563369810581,0.6694290637969971,0.3780701458454132,0.0204818211495876,0.6561895608901978,0.3630439341068268,0.0051414356566965,0.6968252062797546,0.5073670148849487,0.049526859074831,0.7259753942489624,0.4030860960483551,0.0279389228671789,0.710016667842865,0.3714474141597748,0.0007456744788214,0.6761041283607483,0.3815270960330963,-0.0121276061981916,0.7341377139091492,0.5268345475196838,0.0291340928524732,0.7726290822029114,0.4213088750839233,0.0120309311896562,0.7528713941574097,0.3819771409034729,-0.0033001869451254,0.7160018682479858,0.3875191807746887,-0.0082804095000028,0.7671507596969604,0.5601256489753723,0.0062173763290047,0.7844117283821106,0.4665828645229339,-0.0018396230880171,0.7678461074829102,0.4133998155593872,-0.0065422924235463,0.7383401989936829,0.3920753598213196,-0.0069437436759471
2023-08-01 16:25:00.779859,30,434,0.9913622736930848,-0.0808464214205741,-0.041342306882143,-0.0946334227919578,-0.0380859375,0.92138671875,0.29833984375,0.6361580491065979,0.8208812475204468,-2.8557309406096465e-07,0.5995173454284668,0.7039477825164795,-0.0030443025752902,0.5868774652481079,0.5743388533592224,-0.0002086964086629,0.5839085578918457,0.4756241142749786,-0.0058880792930722,0.5957377552986145,0.3946160078048706,-0.0093712527304887,0.661893904209137,0.5071350932121277,0.0619275085628032,0.6786171197891235,0.4310281872749328,0.0469976291060447,0.6699088215827942,0.3949699401855469,0.0238851737231016,0.655159056186676,0.3738226592540741,0.0085440883412957,0.7010073661804199,0.5129154920578003,0.0493007637560367,0.7251654267311096,0.4123986363410949,0.0284009333699941,0.7047054171562195,0.3836113214492798,0.0013399856397882,0.6699195504188538,0.3911832869052887,-0.0121989734470844,0.7354243993759155,0.5316310524940491,0.0294634569436311,0.7754620909690857,0.4243881404399872,0.0098949493840336,0.7510549426078796,0.3858593702316284,-0.006057686638087,0.7110955119132996,0.3904774785041809,-0.0108950678259134,0.7645469307899475,0.5641982555389404,0.0075466544367372,0.7801849842071533,0.470902681350708,-0.0050289519131183,0.7608886361122131,0.4186096787452698,-0.0121457828208804,0.7294071912765503,0.3981785178184509,-0.013553375378251
2023-08-01 16:25:00.845628,31,435,0.9942263960838318,-0.0654542371630668,-0.0421408824622631,-0.0738495439291,-0.099609375,0.97412109375,0.2099609375,0.6395840644836426,0.8086464405059814,-2.73649646942431e-07,0.5999616384506226,0.6999586820602417,-0.0037126513198018,0.5876820087432861,0.5805963277816772,-0.0005647846264764,0.5860962867736816,0.4863367974758148,-0.0056687123142182,0.6034780144691467,0.4170156419277191,-0.0084428349509835,0.6520233750343323,0.5150363445281982,0.0596912801265716,0.668976366519928,0.4370823502540588,0.0441449917852878,0.6607383489608765,0.4023604989051819,0.0213398765772581,0.6469433903694153,0.3916934132575989,0.0077650295570492,0.6873425841331482,0.5185716152191162,0.049445416778326,0.7090956568717957,0.4215961098670959,0.0305038522928953,0.6921825408935547,0.3921855092048645,0.0050618015229702,0.6631588339805603,0.4033475518226623,-0.0076172379776835,0.7206937074661255,0.5332348346710205,0.031936902552843,0.7487995624542236,0.4364450573921203,0.0162035543471574,0.7281579375267029,0.4057571291923523,0.00046493683476,0.6961973309516907,0.4197463393211365,-0.0051539679989218,0.751142144203186,0.5594874024391174,0.0120563097298145,0.7641149163246155,0.4746170043945312,0.0053312554955482,0.7476527094841003,0.4327176213264465,0.0004051046853419,0.7205270528793335,0.4246471524238586,-0.0005492275813594
2023-08-01 16:25:00.906975,32,436,0.9960127472877502,-0.052643708884716,-0.0424678698182106,-0.0581695064902305,-0.03662109375,0.9443359375,0.17041015625,0.6312814950942993,0.7973617315292358,-2.279028166185526e-07,0.5958812832832336,0.689668595790863,-0.000278952094959,0.5865669250488281,0.5726929903030396,0.0042601143941283,0.5839009881019592,0.4836496710777282,0.0007555674528703,0.5956792831420898,0.4175469279289245,-0.0011105056619271,0.6527982354164124,0.5194926261901855,0.058996208012104,0.6666496396064758,0.4504268765449524,0.0465445183217525,0.6595715284347534,0.4161191880702972,0.0262920912355184,0.647049069404602,0.4004544019699096,0.013428945094347,0.6866695284843445,0.5241813063621521,0.0475130565464496,0.7080047130584717,0.4319599270820617,0.0287627857178449,0.6931164264678955,0.4029462039470672,0.003260503988713,0.6646022200584412,0.4130437970161438,-0.009027131833136,0.7171558737754822,0.539857804775238,0.0299342144280672,0.7468927502632141,0.4463231265544891,0.0138822235167026,0.7272265553474426,0.4139726161956787,-0.0017746295779943,0.6944604516029358,0.4227359890937805,-0.0068401554599404,0.7439025044441223,0.566967248916626,0.0106756081804633,0.7573711276054382,0.4858461022377014,0.001929480349645,0.7429699301719666,0.4372405707836151,-0.0046695619821548,0.7175618410110474,0.4175651669502258,-0.0063372245058417
2023-08-01 16:25:00.967795,33,437,0.9971567988395692,-0.0428108349442482,-0.0444952845573425,-0.0431936047971248,0.03173828125,0.96630859375,0.2041015625,0.6309576630592346,0.7859643697738647,-2.5030789174707024e-07,0.5934889316558838,0.6844735145568848,-0.0005154571263119,0.582413911819458,0.5720875859260559,0.003777808509767,0.5809735059738159,0.4855445027351379,0.0002281307824887,0.5952326059341431,0.4200670123100281,-0.0017065469874069,0.6485514044761658,0.5235621333122253,0.056089911609888,0.660559356212616,0.4576345086097717,0.0446768179535865,0.6524807214736938,0.4235180020332336,0.0258523300290107,0.6393052935600281,0.4038953185081482,0.0133404145017266,0.6824606657028198,0.5266215205192566,0.0446714274585247,0.7052475214004517,0.4390842914581299,0.027532247826457,0.6881624460220337,0.4100737571716308,0.0045586396008729,0.6566975116729736,0.414319634437561,-0.0065366267226636,0.7125918865203857,0.5407497882843018,0.027246369048953,0.7435990571975708,0.4490827620029449,0.0122257210314273,0.7216449975967407,0.4149076342582702,-0.0017138401744887,0.6857884526252747,0.4175180792808532,-0.0061054336838424,0.7387859225273132,0.566328227519989,0.0080418866127729,0.7520751357078552,0.4871680736541748,-0.001365698641166,0.7338283658027649,0.4417621493339538,-0.0076965661719441,0.7037108540534973,0.4232631325721741,-0.0092041082680225
2023-08-01 16:25:01.031309,34,438,0.997985541820526,-0.0335603058338165,-0.0450479239225387,-0.0294830128550529,0.0595703125,0.9560546875,0.15478515625,0.6218219995498657,0.7865742444992065,-2.826083971285698e-07,0.5873360633850098,0.6891142725944519,0.0009294499759562,0.576291561126709,0.5837351083755493,0.0049039684236049,0.5710389018058777,0.5032738447189331,0.0013488258700817,0.5848345160484314,0.446916252374649,-0.000733824330382,0.6355411410331726,0.5362570285797119,0.053182728588581,0.6463881731033325,0.4678620994091034,0.0406623370945453,0.6368131041526794,0.4366526007652282,0.0213234703987836,0.6210521459579468,0.4268070161342621,0.0095812436193227,0.6641833186149597,0.5399197340011597,0.0428499840199947,0.6804577112197876,0.4586879014968872,0.0281616318970918,0.6650663614273071,0.4291903674602508,0.006244923453778,0.6368383765220642,0.4305718839168548,-0.0055150054395198,0.6920853853225708,0.5529815554618835,0.0268878880888223,0.716087818145752,0.4714293181896209,0.0149593586102128,0.6984508037567139,0.4401674270629883,0.0020895097404718,0.6675346493721008,0.4416251182556152,-0.0030065760947763,0.7165114879608154,0.5758704543113708,0.0093306982889771,0.7238587141036987,0.5055398344993591,0.0043477490544319,0.7121643424034119,0.4643610715866089,0.0002616007695905,0.69011390209198,0.4449427127838135,-0.0008166091283783
2023-08-01 16:25:01.094862,35,439,0.9986062049865724,-0.0231917332857847,-0.0452911667525768,-0.0140141369774937,0.06103515625,0.9638671875,0.1201171875,0.6218575239181519,0.7726524472236633,-2.3960527073541016e-07,0.5878210663795471,0.685135543346405,-0.0003116883744951,0.5754358172416687,0.5863823294639587,0.0031747596804052,0.5704268217086792,0.5109745860099792,-0.000343936466379,0.5811753273010254,0.4515004158020019,-0.0023088466841727,0.6341549158096313,0.5387638807296753,0.0493852831423282,0.6441287398338318,0.4751928150653839,0.0376041568815708,0.6340354681015015,0.446584016084671,0.0201016496866941,0.6194407939910889,0.434859037399292,0.0093185808509588,0.6634018421173096,0.5417006611824036,0.039321843534708,0.6816083192825317,0.4632442593574524,0.0235012751072645,0.6634373068809509,0.439308226108551,0.0025464126374572,0.6339933276176453,0.4449937343597412,-0.0076706972904503,0.6898521780967712,0.5535697340965271,0.0237846672534942,0.7159200310707092,0.4741860926151275,0.0097831068560481,0.6938239336013794,0.4454147815704345,-0.0032051957678049,0.6609132885932922,0.4483361542224884,-0.0074565596878528,0.7124539613723755,0.5743938088417053,0.0068005798384547,0.7193942070007324,0.505149245262146,-0.0016124923713505,0.701017439365387,0.4666270017623901,-0.0072911651805043,0.6739083528518677,0.450919896364212,-0.0086782546713948
2023-08-01 16:25:01.157198,36,440,0.9986659288406372,-0.0166224744170904,-0.0488054640591144,-0.0028449546080082,0.14013671875,0.96484375,0.1591796875,0.6174346804618835,0.7638271450996399,-2.452006526709738e-07,0.5853762626647949,0.6821059584617615,-0.0006386475870385,0.5733106732368469,0.5868700742721558,0.0019885345827788,0.5681542158126831,0.5146798491477966,-0.0020294047426432,0.5821521878242493,0.460360437631607,-0.0049079074524343,0.6311677694320679,0.5428013205528259,0.0442884340882301,0.6409229040145874,0.4827707707881927,0.0325422212481498,0.6322280168533325,0.4554669260978699,0.0161921251565217,0.6203743815422058,0.4452536702156067,0.0061106490902602,0.6607054471969604,0.5464448928833008,0.0341153405606746,0.6786560416221619,0.4688544571399688,0.0173801016062498,0.6606375575065613,0.4467525482177734,-0.002768499078229,0.6319743394851685,0.4545487761497497,-0.0119849825277924,0.6874688267707825,0.5592696666717529,0.0189273320138454,0.7135119438171387,0.4789123237133026,0.0033191693946719,0.6908600330352783,0.4513251483440399,-0.0096606500446796,0.658396303653717,0.4548118114471435,-0.013391057960689,0.708594560623169,0.5807770490646362,0.0025912455748766,0.7123525142669678,0.5114886164665222,-0.0082594556733965,0.6930297017097473,0.474324882030487,-0.0148971667513251,0.6670444011688232,0.4588424861431122,-0.0164149962365627
2023-08-01 16:25:01.215937,37,441,0.9987342953681946,-0.0099439341574907,-0.0487416833639144,0.0074243638664484,0.13134765625,0.96533203125,0.1337890625,0.6150978207588196,0.770882248878479,-2.667442515758012e-07,0.5807936787605286,0.6938910484313965,-0.0001152945187641,0.5690836906433105,0.6010687351226807,0.0029984097927808,0.5629445910453796,0.5284703969955444,-0.0003057833528146,0.5776753425598145,0.479941189289093,-0.0021706195548176,0.6250550746917725,0.5614256262779236,0.0457847751677036,0.6353731155395508,0.4987823963165283,0.0338154509663581,0.6271461248397827,0.4720800518989563,0.0171995442360639,0.6153758764266968,0.4686135947704315,0.0077947895042598,0.6522066593170166,0.5654749870300293,0.0366548523306846,0.6683285236358643,0.4903400540351867,0.0212631449103355,0.6528032422065735,0.4655126631259918,0.0011829291470348,0.6258530616760254,0.4729335904121399,-0.0082172323018312,0.6783748269081116,0.5765994787216187,0.0224344860762357,0.7009714245796204,0.5008060932159424,0.0088115083053708,0.6815458536148071,0.4724888503551483,-0.004589463584125,0.6515211462974548,0.4770013689994812,-0.0090887071564793,0.6998364925384521,0.5945945978164673,0.0070808343589305,0.699801504611969,0.5314029455184937,-0.0016077967593446,0.6832137107849121,0.4952108860015869,-0.008181951008737,0.6605848073959351,0.480670690536499,-0.0100880311802029
2023-08-01 16:25:01.282794,38,442,0.9986780881881714,-0.0043241051025688,-0.0479229055345058,0.0180762764066457,0.17041015625,0.99072265625,0.06494140625,0.6116172671318054,0.7647339105606079,-1.881671352066405e-07,0.5791568756103516,0.6901034712791443,0.0002041365078184,0.5673391819000244,0.6025089621543884,0.0034453095868229,0.560734212398529,0.5348840355873108,0.000448210252216,0.5741222500801086,0.4843043088912964,-0.0015907916240394,0.6217829585075378,0.5638546347618103,0.0430499836802482,0.6300656795501709,0.5086798071861267,0.0343086160719394,0.6240527629852295,0.481173038482666,0.0204668454825878,0.6162232756614685,0.4699072539806366,0.0115011371672153,0.6489558219909668,0.5668526887893677,0.0335943736135959,0.6661854386329651,0.4938803911209106,0.0198289845138788,0.6511703729629517,0.4701286256313324,0.0015504590701311,0.6269100308418274,0.4765143394470215,-0.0071310424245893,0.6741527915000916,0.5783812403678894,0.0196316577494144,0.6979707479476929,0.5025966167449951,0.0064393347129225,0.6775006651878357,0.4744272232055664,-0.0059264227747917,0.648797869682312,0.4777066111564636,-0.0099130282178521,0.6947314739227295,0.5972645878791809,0.0046814903616905,0.697146475315094,0.5312996506690979,-0.0054218471050262,0.6783654093742371,0.4957516193389892,-0.0121446345001459,0.6543317437171936,0.4825945794582367,-0.0140368025749921
2023-08-01 16:25:01.340877,39,443,0.9987490773200988,-0.0024248049594461,-0.044412724673748,0.0228443406522274,0.11962890625,0.96923828125,0.064453125,0.6119333505630493,0.7679659128189087,-1.9671891493544533e-07,0.5791503190994263,0.6990587711334229,0.0003892828826792,0.5673463344573975,0.6085137128829956,0.004083024803549,0.5602478981018066,0.5388607382774353,0.00148875429295,0.5754572153091431,0.4909643530845642,-0.0001283409219468,0.6199465990066528,0.5672797560691833,0.0431426502764225,0.6274352073669434,0.510392427444458,0.0344379805028438,0.6220476627349854,0.483532190322876,0.0210524480789899,0.6147844791412354,0.473711758852005,0.0125693101435899,0.6470497250556946,0.5709443688392639,0.0336172990500927,0.6637611985206604,0.4991475045681,0.0198031142354011,0.6498810648918152,0.4754068255424499,0.0020272089168429,0.626218318939209,0.4813809692859649,-0.0059817121364176,0.6724526286125183,0.5830665230751038,0.019529465585947,0.6943615078926086,0.5086310505867004,0.0054114502854645,0.6732608675956726,0.4817859530448913,-0.0074034612625837,0.6441217064857483,0.4848031997680664,-0.0112470863386988,0.693752110004425,0.6016181707382202,0.004621610045433,0.6950129270553589,0.5362177491188049,-0.0064248605631291,0.6754188537597656,0.502391517162323,-0.0136101832613348,0.6513394713401794,0.4901076555252075,-0.0156093658879399
2023-08-01 16:25:01.400513,40,444,0.9988201260566713,-0.002241167705506,-0.0417050756514072,0.0247796177864074,0.1484375,0.96533203125,0.11376953125,0.609821617603302,0.7681204676628113,-1.8420500680349505e-07,0.5781790614128113,0.7002702951431274,-0.0004305870679672,0.5661468505859375,0.6113661527633667,0.0028899216558784,0.5595960021018982,0.5434788465499878,0.0004878189356531,0.575576901435852,0.495938777923584,-0.0009583533974364,0.6191936731338501,0.572536051273346,0.0404991246759891,0.627444863319397,0.5187070369720459,0.0323596559464931,0.6217673420906067,0.4901967942714691,0.0195606257766485,0.6136513352394104,0.4785792529582977,0.0114299179986119,0.6462165713310242,0.576469361782074,0.0316794551908969,0.6648260951042175,0.5071590542793274,0.0190008953213691,0.6510440111160278,0.4821377098560333,0.002171576488763,0.6269340515136719,0.4865157306194305,-0.0054981205612421,0.671328067779541,0.5883611440658569,0.0184896942228078,0.6956079006195068,0.5159229636192322,0.0052538705058395,0.6754004955291748,0.4869047403335571,-0.0066878790967166,0.6466838121414185,0.487930566072464,-0.0102270441129803,0.6914547681808472,0.6061344742774963,0.0044501405209302,0.6915920972824097,0.5430203080177307,-0.0064505198970437,0.6721141338348389,0.5090227127075195,-0.0133494520559906,0.6485754251480103,0.4962268769741058,-0.0151245007291436
2023-08-01 16:25:01.463721,41,445,0.9988420605659484,-0.0027395093347877,-0.0422210842370986,0.0229001194238662,0.13427734375,0.98828125,0.09375,0.6093214750289917,0.775550127029419,-2.3702180840246e-07,0.5772401690483093,0.7088211178779602,-0.0001953682076418,0.5651382803916931,0.6242939829826355,0.0033556886482983,0.5585637092590332,0.5571407079696655,0.0010410209652036,0.5731562972068787,0.5111668705940247,-0.0002748935658019,0.6177675724029541,0.587899923324585,0.0421119816601276,0.6247836351394653,0.5330317616462708,0.0332661680877208,0.6171175241470337,0.5061033964157104,0.0195863749831914,0.6069098114967346,0.4965740442276001,0.0110772894695401,0.6432741284370422,0.5917626619338989,0.0337964482605457,0.6575191617012024,0.5224478840827942,0.0199049338698387,0.6417633295059204,0.4979850351810455,0.0015059122815728,0.6154273152351379,0.5010648369789124,-0.0070884367451071,0.667905867099762,0.6022707223892212,0.0210514888167381,0.6880863904953003,0.5314075350761414,0.0074737025424838,0.668441653251648,0.505189061164856,-0.0054818643257021,0.6390951871871948,0.5069531798362732,-0.0096938936039805,0.688849687576294,0.6184254288673401,0.0074402312748134,0.6882854700088501,0.5587316751480103,-0.0027048899792134,0.6680563688278198,0.5259875059127808,-0.0100308619439601,0.6422759294509888,0.512462317943573,-0.012413770891726
2023-08-01 16:25:01.545846,42,446,0.9988365769386292,-0.004839863628149,-0.0433255173265934,0.0206150468438863,0.1064453125,0.99267578125,0.17431640625,0.6094553470611572,0.772567629814148,-1.9644863868961693e-07,0.5778571367263794,0.7089511156082153,-0.0009563842322677,0.5663487315177917,0.6261890530586243,0.0005092014907859,0.559812605381012,0.5625211000442505,-0.0032864643726497,0.5748480558395386,0.5160477161407471,-0.006150163244456,0.6194140911102295,0.5892987847328186,0.0335549674928188,0.6277215480804443,0.5350037217140198,0.0224438812583684,0.6194795966148376,0.5077065229415894,0.0083904024213552,0.6089733242988586,0.4997408390045166,-0.0001166373622254,0.6443144679069519,0.5928499698638916,0.0249288119375705,0.6607937216758728,0.523338258266449,0.0109484167769551,0.6444934010505676,0.497859239578247,-0.0052799289114773,0.6191237568855286,0.501653790473938,-0.0128347696736454,0.6679959297180176,0.604828953742981,0.0122214294970035,0.6904182434082031,0.5307744741439819,-0.0015051605878397,0.6691028475761414,0.5039539337158203,-0.012055960483849,0.640776515007019,0.5065686106681824,-0.015020664781332,0.687336266040802,0.6234776377677917,-0.0013594629708677,0.6862753033638,0.5618797540664673,-0.0131971025839447,0.6656665205955505,0.5295857191085815,-0.0198729857802391,0.6419010758399963,0.517895519733429,-0.0215322151780128
2023-08-01 16:25:01.622969,43,447,0.9988713264465332,-0.0041235098615288,-0.0428124591708183,0.0201567132025957,0.11083984375,0.97021484375,0.1220703125,0.6107265949249268,0.7758499383926392,-2.10997100680288e-07,0.5791116952896118,0.7122983932495117,-0.0004730504297185,0.5677974224090576,0.6290403604507446,0.0010118290083482,0.5606735944747925,0.564559280872345,-0.0030806744471192,0.5768232941627502,0.5181468725204468,-0.0061584939248859,0.6206749081611633,0.5920209884643555,0.0349880158901214,0.6298215389251709,0.535671055316925,0.0241054594516754,0.6210353374481201,0.5089548230171204,0.010459117591381,0.6104154586791992,0.5013020634651184,0.0021111625246703,0.6455689668655396,0.5960203409194946,0.025795467197895,0.662541925907135,0.5247892141342163,0.0110925994813442,0.644794225692749,0.4992043673992157,-0.0057380311191082,0.6187118887901306,0.5022133588790894,-0.0134789198637008,0.6694731712341309,0.6082414388656616,0.0124713443219661,0.6930661201477051,0.5318271517753601,-0.0026253529358655,0.669684648513794,0.5065855383872986,-0.0142940813675522,0.6404139399528503,0.5102641582489014,-0.0176015328615903,0.6891810894012451,0.6263712048530579,-0.0015601420309394,0.6877260804176331,0.5634909272193909,-0.0147231165319681,0.665015459060669,0.5318954586982727,-0.0225398130714893,0.6398874521255493,0.5208742022514343,-0.0248319078236818
2023-08-01 16:25:01.695030,44,448,0.9988828301429749,-0.0041742254979908,-0.0421325638890266,0.0209931395947933,0.1279296875,0.96142578125,0.09765625,0.6129432320594788,0.7806228399276733,-2.0402259792717814e-07,0.5813139081001282,0.7158260941505432,0.0001757039426593,0.5697856545448303,0.6324107646942139,0.0030305937398225,0.5627343058586121,0.5659799575805664,3.199585262336768e-05,0.5794516801834106,0.5196399092674255,-0.0020632031373679,0.6208056807518005,0.5971577763557434,0.0395607277750968,0.6287608742713928,0.5441054701805115,0.0314258858561515,0.6222801804542542,0.5171265602111816,0.0191409029066562,0.614525318145752,0.5056973099708557,0.0110993748530745,0.6470834016799927,0.6011041402816772,0.0302923209965229,0.6643354892730713,0.5322731733322144,0.017758110538125,0.6487823724746704,0.5064464211463928,0.0016992320306599,0.6239229440689087,0.5084809064865112,-0.0057432204484939,0.6719140410423279,0.6127642393112183,0.0167419891804456,0.6951912641525269,0.5389435291290283,0.0028435171116143,0.6731733679771423,0.5115514993667603,-0.0086755314841866,0.6442676782608032,0.5129486918449402,-0.0119971064850687,0.6922177076339722,0.6296199560165405,0.0024659549817442,0.6898040771484375,0.5668675899505615,-0.0098406337201595,0.6667512059211731,0.5351355075836182,-0.0172760300338268,0.6409790515899658,0.5243557691574097,-0.0194340590387582
2023-08-01 16:25:01.769918,45,449,0.9988844394683838,-0.0046355011872947,-0.0421948693692684,0.020686799660325,0.1259765625,0.95703125,0.12890625,0.6128754615783691,0.777015209197998,-1.9014682095530588e-07,0.5812265872955322,0.7135937213897705,-0.0017175141256302,0.5695779323577881,0.6306362152099609,-0.0002474039793014,0.5633434057235718,0.5653080344200134,-0.0039235926233232,0.5801635980606079,0.5189324617385864,-0.0063684172928333,0.6232123970985413,0.5949390530586243,0.0353090576827526,0.6306785941123962,0.5411937832832336,0.0253426600247621,0.6225689053535461,0.514477550983429,0.0117463767528533,0.6124134659767151,0.5051703453063965,0.0032957408111542,0.6481838822364807,0.5975921154022217,0.0273117925971746,0.6639895439147949,0.5298961997032166,0.0148578016087412,0.6479343175888062,0.5036078691482544,-0.0009084566263481,0.6231237053871155,0.5046736001968384,-0.0085723726078867,0.6718180179595947,0.609260082244873,0.0150324627757072,0.694455623626709,0.5366075038909912,0.0020746854133903,0.6738495826721191,0.5101754665374756,-0.0080710323527455,0.6464467644691467,0.5124866366386414,-0.0108384089544415,0.6908574104309082,0.6274919509887695,0.0017609548522159,0.6916407942771912,0.5651562213897705,-0.0095562376081943,0.6718732714653015,0.5327731370925903,-0.0158000048249959,0.6487565636634827,0.5216915011405945,-0.0171754751354455
