Timestamp,Index,Frame ID,w,x,y,z,ax,ay,az,x_0,y_0,z_0,x_1,y_1,z_1,x_2,y_2,z_2,x_3,y_3,z_3,x_4,y_4,z_4,x_5,y_5,z_5,x_6,y_6,z_6,x_7,y_7,z_7,x_8,y_8,z_8,x_9,y_9,z_9,x_10,y_10,z_10,x_11,y_11,z_11,x_12,y_12,z_12,x_13,y_13,z_13,x_14,y_14,z_14,x_15,y_15,z_15,x_16,y_16,z_16,x_17,y_17,z_17,x_18,y_18,z_18,x_19,y_19,z_19,x_20,y_20,z_20
2023-08-01 16:25:01.847958,0,450,0.998980700969696,-0.006001035682857,-0.0408818498253822,0.0181712731719017,0.16455078125,0.9990234375,0.06640625,0.6130809783935547,0.7738056778907776,-1.920869436844441e-07,0.5815197825431824,0.7105604410171509,-0.0026497244834899,0.5693329572677612,0.6266582608222961,-0.0018332502804696,0.5633941292762756,0.5607617497444153,-0.0058073233813047,0.5807724595069885,0.5148740410804749,-0.00864870660007,0.6221612095832825,0.5930240750312805,0.0325048379600048,0.6300012469291687,0.5396643877029419,0.022131634876132,0.6223114728927612,0.5126506686210632,0.008536179549992,0.6129798293113708,0.5022478699684143,-2.367326669627801e-05,0.647350013256073,0.595770001411438,0.0250809751451015,0.6631237864494324,0.5280007123947144,0.0122471610084176,0.6474450826644897,0.5017542839050293,-0.0034334552474319,0.6235767006874084,0.5019832849502563,-0.0111564267426729,0.6714611053466797,0.607226550579071,0.0134800095111131,0.6938867568969727,0.53386390209198,2.1731866581831127e-05,0.6736382246017456,0.5075819492340088,-0.0102896755561232,0.6467025876045227,0.5095412731170654,-0.0132088521495461,0.6913273334503174,0.625129759311676,0.0009309294400736,0.6911589503288269,0.5619620680809021,-0.0107015203684568,0.6713570952415466,0.5292665958404541,-0.0171618163585662,0.6484677791595459,0.5174285769462585,-0.0188022460788488
2023-08-01 16:25:01.926948,1,451,0.999179482460022,-0.0091666672378778,-0.0370551235973835,0.013537754304707,0.173828125,0.99072265625,0.0478515625,0.6153912544250488,0.7724877595901489,-1.960454341087825e-07,0.5820789933204651,0.7111159563064575,-0.0018446641042828,0.5701172351837158,0.6266258358955383,-0.0001734671823214,0.5647605657577515,0.56000816822052,-0.0035397221799939,0.5826920866966248,0.5143288373947144,-0.0058628995902836,0.6235796809196472,0.5904017090797424,0.0342954769730567,0.6309833526611328,0.5364571213722229,0.0245752669870853,0.6231642365455627,0.510234534740448,0.0114871775731444,0.613890528678894,0.5019004344940186,0.0032234694808721,0.6490328311920166,0.5936054587364197,0.0263308100402355,0.6651071310043335,0.5244561433792114,0.0135344322770833,0.6496339440345764,0.4989888072013855,-0.0024736069608479,0.6255079507827759,0.5015832781791687,-0.0101955477148294,0.6730036735534668,0.6060068607330322,0.014199842698872,0.6958544254302979,0.5316607356071472,0.0004237153916619,0.6747727990150452,0.505531370639801,-0.011195414699614,0.6469424366950989,0.5080296993255615,-0.0150063885375857,0.6928133368492126,0.6249530911445618,0.0012561924522742,0.6910173892974854,0.5632253289222717,-0.011517028324306,0.6695138812065125,0.5318503379821777,-0.0194769445806741,0.6452482342720032,0.5211403369903564,-0.0221241749823093
2023-08-01 16:25:01.991504,2,452,0.9993141293525696,-0.015083017759025,-0.0332405976951122,0.0062314309179782,0.146484375,0.98876953125,0.05517578125,0.6142401695251465,0.7695746421813965,-1.939068852152559e-07,0.5814384818077087,0.7095199823379517,-0.0039135552942752,0.5693613886833191,0.6235640645027161,-0.0031567332334816,0.5640090703964233,0.5573588609695435,-0.0068558938801288,0.5796863436698914,0.5099037885665894,-0.0091908061876893,0.6229748725891113,0.5864003896713257,0.0303808003664016,0.6304792165756226,0.5301114320755005,0.0184647310525178,0.6215962767601013,0.504080057144165,0.0043776873499155,0.6113422513008118,0.4989807903766632,-0.0037499200552701,0.6487563848495483,0.589501678943634,0.0235838647931814,0.6635061502456665,0.5196911692619324,0.0101756062358617,0.6472272276878357,0.4937463998794555,-0.005321582313627,0.6230762004852295,0.4982641637325287,-0.0124402604997158,0.6729307174682617,0.6020952463150024,0.0124654173851013,0.6952332258224487,0.5277843475341797,-0.0014865259872749,0.6745296716690063,0.5009400248527527,-0.0117370728403329,0.6472780704498291,0.504507303237915,-0.0143600236624479,0.6925910115242004,0.6216518878936768,0.0003074015839956,0.6915655732154846,0.5599955320358276,-0.0125252734869718,0.6713259220123291,0.5275027751922607,-0.0195816941559314,0.6480458378791809,0.5166192650794983,-0.0211461763828992
2023-08-01 16:25:02.050928,3,453,0.999334454536438,-0.0212312303483486,-0.0296548698097467,-0.0006677750498056,0.115234375,0.9873046875,0.13037109375,0.61272794008255,0.7685976624488831,-2.0727814842302905e-07,0.5808891654014587,0.7059704065322876,-0.0019841403700411,0.5696492791175842,0.6209201216697693,-0.0007070712163113,0.564704179763794,0.5544368028640747,-0.0045617627911269,0.5811760425567627,0.5050983428955078,-0.0072130337357521,0.6252886056900024,0.5845205783843994,0.0345778875052928,0.6335685849189758,0.5275917649269104,0.0232330840080976,0.6232911944389343,0.5015857219696045,0.0089602163061499,0.6112632751464844,0.4960971772670746,0.0004927914706058,0.6508495807647705,0.5881699323654175,0.0263863392174243,0.66788649559021,0.5174641013145447,0.0129601964727044,0.6499515175819397,0.4905928075313568,-0.0033635848667472,0.6234835982322693,0.4934951663017273,-0.0110759604722261,0.6748635768890381,0.601344645023346,0.0137916198000311,0.6986900568008423,0.525651752948761,-0.00033193451236,0.6762897372245789,0.4980908036231994,-0.0114942695945501,0.6474378108978271,0.5000640749931335,-0.0147293331101536,0.6943332552909851,0.6211273670196533,0.0003019574214704,0.6927958130836487,0.5578961372375488,-0.0126831186935305,0.6702831983566284,0.5253663063049316,-0.0202601961791515,0.6452001929283142,0.514080286026001,-0.0223375037312507
2023-08-01 16:25:02.120095,4,454,0.9991936683654784,-0.0309254992753267,-0.021534601226449,-0.013852066360414,0.162109375,0.97412109375,0.08984375,0.6136730909347534,0.7665451765060425,-2.110902244112367e-07,0.5813472270965576,0.7035617232322693,-0.002931616269052,0.5698394179344177,0.6175097227096558,-0.0021579803433269,0.564311146736145,0.550761342048645,-0.0062421835027635,0.5799821019172668,0.5031082034111023,-0.0090138856321573,0.6242874264717102,0.5805243849754333,0.0328707695007324,0.6327863931655884,0.5233200788497925,0.0210275072604417,0.6236227750778198,0.4980981051921844,0.0064122220501303,0.6125227212905884,0.4937766194343567,-0.0020818458870053,0.6496899127960205,0.5845522284507751,0.0255653131753206,0.6657923460006714,0.5142571926116943,0.0119430525228381,0.648841917514801,0.4889714121818542,-0.0043900487944483,0.6236623525619507,0.4921473264694214,-0.0121064949780702,0.6739317774772644,0.5973670482635498,0.01390768494457,0.6975196599960327,0.5222704410552979,9.096845315070824e-05,0.6765000820159912,0.4953999519348144,-0.0104852011427283,0.6485390663146973,0.4974754154682159,-0.0133723821491003,0.6938319802284241,0.6167376041412354,0.001265552942641,0.6933320164680481,0.5530471205711365,-0.0106356739997863,0.6728324890136719,0.5204077363014221,-0.0172061566263437,0.649299144744873,0.5083358287811279,-0.0186700839549303
2023-08-01 16:25:02.181055,5,455,0.9984800219535828,-0.0431756898760795,-0.0105614382773637,-0.0325891822576522,0.08154296875,0.95263671875,0.1513671875,0.6133206486701965,0.764950692653656,-2.235269249695193e-07,0.5815447568893433,0.7027056217193604,-0.0015367756132036,0.5699211955070496,0.615641713142395,-6.473901157733053e-05,0.5638209581375122,0.5496193170547485,-0.0036473849322646,0.5782991647720337,0.5005791783332825,-0.0059517123736441,0.6268107891082764,0.5768371224403381,0.0331771932542324,0.6359594464302063,0.520015299320221,0.0215396340936422,0.6256068348884583,0.4942114949226379,0.0071657761000096,0.6132012605667114,0.488705426454544,-0.0012312240432947,0.6515428423881531,0.5816032290458679,0.0248144716024398,0.6680580377578735,0.5106853246688843,0.0115280859172344,0.6500838994979858,0.4842860102653503,-0.0043910718522965,0.6240131258964539,0.4864158630371094,-0.0119530968368053,0.675197958946228,0.5949677228927612,0.0121767250820994,0.6986382603645325,0.5193563103675842,-0.0013461505295708,0.67616206407547,0.4905174970626831,-0.0115219121798872,0.6472298502922058,0.4906394779682159,-0.014295844361186,0.6944205164909363,0.6146925687789917,-0.0013869778485968,0.6946500539779663,0.5489366054534912,-0.0133933080360293,0.6735568642616272,0.5147415995597839,-0.0198057852685451,0.649432361125946,0.5016607642173767,-0.0212042704224586
2023-08-01 16:25:02.241208,6,456,0.9970988631248474,-0.0567810237407684,-0.007700549904257,-0.0501029826700687,-0.02001953125,0.92919921875,0.24267578125,0.6117276549339294,0.7420140504837036,-1.976859209662507e-07,0.5792489647865295,0.6758944988250732,-0.0009735360508784,0.5688671469688416,0.5891002416610718,0.0005329666892066,0.5634976029396057,0.5216049551963806,-0.0032236489932984,0.574446976184845,0.4695523381233215,-0.0057448777370154,0.6308225989341736,0.5530079007148743,0.0341825895011425,0.6405749917030334,0.4913598895072937,0.0228520110249519,0.6297787427902222,0.4651291370391845,0.0084040984511375,0.61607825756073,0.4611526727676391,-0.0002440915413899,0.6569273471832275,0.5576292276382446,0.0253598932176828,0.6710400581359863,0.4836999177932739,0.0120176682248711,0.6526889801025391,0.456412672996521,-0.0047060856595635,0.6260227560997009,0.4594568014144897,-0.0130950277671217,0.6811754703521729,0.5712552666664124,0.0121521381661295,0.704586386680603,0.4895628690719604,-0.0024910883512347,0.6810722947120667,0.4610772728919983,-0.0148729374632239,0.6509230136871338,0.4634259343147278,-0.0192163195461034,0.7012020349502563,0.5918533802032471,-0.0017993088113144,0.6987916231155396,0.5242417454719543,-0.0170416217297315,0.6749887466430664,0.4892444312572479,-0.0267973728477954,0.6482272744178772,0.4758350849151611,-0.0303104314953088
2023-08-01 16:25:02.300904,7,457,0.995031714439392,-0.0706632733345031,0.0002458029193803,-0.0701323747634887,-0.07080078125,0.951171875,0.21923828125,0.614517867565155,0.7416562438011169,-2.637199543187308e-07,0.580358624458313,0.6727443933486938,-0.0016290333587676,0.5687094926834106,0.5831697583198547,-0.000903746287804,0.561773955821991,0.5152011513710022,-0.0058563714846968,0.574583888053894,0.4636777937412262,-0.0092589044943451,0.6338143944740295,0.5430082678794861,0.0357596799731254,0.6429203748703003,0.477688729763031,0.0215904153883457,0.6285318732261658,0.4531900286674499,0.0050209099426865,0.6131865382194519,0.4545517563819885,-0.0041829403489828,0.6603493094444275,0.5482595562934875,0.0266492757946252,0.6757181286811829,0.470753014087677,0.0117480792105197,0.6546026468276978,0.4451994895935058,-0.0058319452218711,0.6270209550857544,0.4520801305770874,-0.0141389137133955,0.6852983832359314,0.5636165142059326,0.0127846673130989,0.7095996737480164,0.4792512655258178,-0.0022281571291387,0.6833940744400024,0.4516681730747223,-0.0131650613620877,0.6519949436187744,0.4572578966617584,-0.0159687623381614,0.7055811882019043,0.5868175029754639,-0.0020772845018655,0.702559769153595,0.5144533514976501,-0.0159437805414199,0.6774033308029175,0.479129821062088,-0.0232072453945875,0.6503465175628662,0.4677602350711822,-0.0245688371360301
2023-08-01 16:25:02.361023,8,458,0.9927110075950624,-0.0837500467896461,0.0019028066890314,-0.0866439566016197,-0.2021484375,0.96435546875,0.28125,0.6156973838806152,0.737291157245636,-2.674032089089451e-07,0.5814584493637085,0.6668315529823303,-0.0038082168903201,0.5691328048706055,0.5766586661338806,-0.0051599210128188,0.5627997517585754,0.5065907835960388,-0.0116842668503522,0.5755005478858948,0.4530620276927948,-0.0165104772895574,0.6328460574150085,0.5323496460914612,0.0286632198840379,0.6421462893486023,0.4619852304458618,0.0103825712576508,0.6267728209495544,0.435362696647644,-0.0076632923446595,0.6104487776756287,0.4365510642528534,-0.0171956177800893,0.6615238785743713,0.5376393795013428,0.0198630150407552,0.6759603023529053,0.4529276192188263,0.0009563939529471,0.6525647640228271,0.4273263812065124,-0.016713697463274,0.6237090229988098,0.4357090592384338,-0.0242284014821052,0.6879628300666809,0.5543155670166016,0.006280108820647,0.7128840684890747,0.4668383598327636,-0.0118417488411068,0.6848405003547668,0.4412508010864258,-0.0220733005553483,0.6515334248542786,0.4479246735572815,-0.0236734524369239,0.7090356349945068,0.5808383822441101,-0.0083916541188955,0.7068229913711548,0.5107883810997009,-0.0238136202096939,0.6828104257583618,0.4748993217945099,-0.0310759861022233,0.6559805274009705,0.4605679512023926,-0.0320065543055534
2023-08-01 16:25:02.425634,9,459,0.9900100231170654,-0.0972963944077491,0.0033358575310558,-0.1019924134016037,-0.11669921875,0.92724609375,0.35205078125,0.6289603114128113,0.7241105437278748,-1.7356269665924628e-07,0.5905531644821167,0.6554309725761414,-0.0029600888956338,0.5769867897033691,0.5553918480873108,-0.0011037845397368,0.5705245137214661,0.4780470132827759,-0.0047816890291869,0.5802356600761414,0.4168225526809692,-0.0074590295553207,0.6433872580528259,0.5019766092300415,0.0386447012424469,0.6569716930389404,0.4382584989070892,0.0272334050387144,0.6484567523002625,0.4060960412025451,0.0109895169734954,0.6340336799621582,0.3953823447227478,0.0006490212399512,0.6760570406913757,0.5092803239822388,0.0284158531576395,0.6979144811630249,0.4290241599082947,0.0131077542901039,0.6790633201599121,0.3924927413463592,-0.0074703018181025,0.6463117599487305,0.3902231454849243,-0.01788798160851,0.705086350440979,0.5273844599723816,0.0132000390440225,0.7356740236282349,0.4383480846881866,-0.0044882805086672,0.7106245756149292,0.4024091064929962,-0.0206835269927978,0.6751652359962463,0.4009779989719391,-0.0267895516008138,0.7283546924591064,0.5534139275550842,-0.0028822412714362,0.7268823385238647,0.4748625755310058,-0.0220724921673536,0.7002511620521545,0.4339127242565155,-0.0343874543905258,0.6690243482589722,0.4175561964511871,-0.0390475094318389
2023-08-01 16:25:02.487703,10,460,0.98738431930542,-0.1091573163866996,0.0029519414529204,-0.1146650686860084,-0.11376953125,0.9169921875,0.34521484375,0.6288811564445496,0.7257587313652039,-2.1064239774659654e-07,0.5892384648323059,0.6531715989112854,-0.0031880473252385,0.5760657787322998,0.5469332933425903,-0.0018367521697655,0.5692869424819946,0.4672333300113678,-0.0061543593183159,0.5832501649856567,0.4075802564620971,-0.0089777372777462,0.6492958664894104,0.4922789931297302,0.037316408008337,0.6618560552597046,0.4230728149414062,0.0236629676073789,0.6522045731544495,0.388682097196579,0.0067159673199057,0.637958824634552,0.3802514970302582,-0.0032579626422375,0.6821572780609131,0.5004679560661316,0.0267335083335638,0.7061258554458618,0.4140649735927582,0.009897363372147,0.6854395866394043,0.3789642453193664,-0.0096454825252294,0.6515507698059082,0.3838731050491333,-0.0182603430002927,0.711527407169342,0.5199488401412964,0.0111036282032728,0.7433747053146362,0.4270968437194824,-0.006148625165224,0.7165818214416504,0.3896935880184173,-0.0190540328621864,0.6801677346229553,0.3912127614021301,-0.0222552046179771,0.7339608669281006,0.547966718673706,-0.0056478520855307,0.7330303192138672,0.4661111831665039,-0.0225991141051054,0.7081118822097778,0.4231154322624206,-0.0315442457795143,0.6788380146026611,0.407720685005188,-0.0332512035965919
2023-08-01 16:25:02.551136,11,461,0.9850806593894958,-0.1165358498692512,0.0103191034868359,-0.1262097954750061,-0.30810546875,0.8955078125,0.3720703125,0.6294338703155518,0.7281957268714905,-2.6991244794771774e-07,0.590286374092102,0.6475332975387573,-0.0035203078296035,0.5763174891471863,0.5388935804367065,-0.0031123713124543,0.5689783692359924,0.4573028087615967,-0.0087546957656741,0.5820072293281555,0.396778404712677,-0.0128987878561019,0.6511175036430359,0.4878056347370147,0.0385566763579845,0.662533164024353,0.4126792848110199,0.022294333204627,0.6502013802528381,0.3802547454833984,0.0024066581390798,0.6338511109352112,0.3758798837661743,-0.0095430165529251,0.6840202212333679,0.4944301247596741,0.0277713537216186,0.7069846391677856,0.4063753485679626,0.0089998105540871,0.684827446937561,0.3714650273323059,-0.0135130137205123,0.6497890949249268,0.3744109272956848,-0.0247452910989522,0.7143461108207703,0.5138611197471619,0.0116415964439511,0.7471677660942078,0.4176232516765594,-0.0069454135373234,0.7197597026824951,0.3776527643203735,-0.0226128138601779,0.6815974712371826,0.3759797215461731,-0.0283607151359319,0.7379410266876221,0.543714702129364,-0.0056332885287702,0.7369661331176758,0.4608680307865143,-0.0231728460639715,0.7100114822387695,0.4171302914619446,-0.0335072055459022,0.6781747937202454,0.4000428318977356,-0.0368204377591609
2023-08-01 16:25:02.614464,12,462,0.9816242456436156,-0.1301440596580505,0.0105816917493939,-0.139155775308609,-0.27783203125,0.857421875,0.4296875,0.6312183737754822,0.7268691658973694,-2.642182437284646e-07,0.590671181678772,0.6465525031089783,-0.0056321783922612,0.5752920508384705,0.534164309501648,-0.0053255883976817,0.5673505067825317,0.4494094848632812,-0.0109159471467137,0.580247163772583,0.3874601125717163,-0.0146861262619495,0.6499318480491638,0.4802112579345703,0.0383275412023067,0.6611244082450867,0.4059150218963623,0.0215608719736337,0.6504009962081909,0.3727701306343078,0.0016395911807194,0.6360888481140137,0.3660497665405273,-0.0101765319705009,0.6842523813247681,0.4853350222110748,0.0284956078976392,0.7067094445228577,0.3956301510334015,0.0096414135769009,0.6851298213005066,0.361076295375824,-0.0115205366164445,0.6510671377182007,0.3648736476898193,-0.0213968474417924,0.7156727313995361,0.5032418966293335,0.0128609854727983,0.7484700679779053,0.4058191776275635,-0.0060063046403229,0.7218142151832581,0.367116630077362,-0.0197721011936664,0.6844536066055298,0.3681531548500061,-0.0236048512160778,0.7405040264129639,0.532231330871582,-0.0043311109766364,0.7416016459465027,0.4487673044204712,-0.0216934606432914,0.7147599458694458,0.4044390320777893,-0.0308724399656057,0.6822246313095093,0.3882555365562439,-0.032926045358181
2023-08-01 16:25:02.676982,13,463,0.9780054688453674,-0.1440944671630859,0.0036589340306818,-0.1507601737976074,-0.10791015625,0.8486328125,0.41259765625,0.6343201994895935,0.7132058143615723,-1.9946169516060766e-07,0.5868517756462097,0.6339972019195557,-0.0052060857415199,0.5692501068115234,0.5091117024421692,-0.004364937543869,0.5601477026939392,0.4163677990436554,-0.0091420449316501,0.5741941928863525,0.3460869193077087,-0.0119687113910913,0.6538001894950867,0.4487519562244415,0.0401340015232563,0.666322648525238,0.3656708300113678,0.0258275214582681,0.6525220274925232,0.3240657746791839,0.0069647934287786,0.6325677633285522,0.3100553750991821,-0.0051837228238582,0.6920951008796692,0.4554382860660553,0.0287374947220087,0.7137932777404785,0.3542217016220093,0.0117853330448269,0.6902074813842773,0.3082065284252167,-0.0097189433872699,0.6507383584976196,0.3043566942214966,-0.0208167750388383,0.7240518927574158,0.4776853322982788,0.0113813579082489,0.7606164216995239,0.3658649325370788,-0.008318536914885,0.7305329442024231,0.3204644322395324,-0.0252059809863567,0.6878002882003784,0.3157374262809753,-0.0318701453506946,0.7471150159835815,0.5108886361122131,-0.0071899783797562,0.7485834360122681,0.4180030524730682,-0.0296289473772048,0.7185461521148682,0.3673248887062073,-0.043650884181261,0.6820361018180847,0.345248818397522,-0.0492918454110622
2023-08-01 16:25:02.741667,14,464,0.974682629108429,-0.1541309654712677,0.0033061373978853,-0.1619460135698318,-0.2783203125,0.80859375,0.47705078125,0.632468044757843,0.7209305763244629,-2.6668541863728024e-07,0.5843943357467651,0.6340744495391846,-0.0091889621689915,0.5673971772193909,0.5049986243247986,-0.0113736689090728,0.5571234226226807,0.4074269235134125,-0.0191264823079109,0.5724444389343262,0.334961473941803,-0.0243131034076213,0.6476357579231262,0.4391317069530487,0.0366623178124427,0.6590454578399658,0.3498427271842956,0.0146137187257409,0.646331787109375,0.3090933561325073,-0.0087719289585947,0.6293213367462158,0.3029396533966064,-0.0220361519604921,0.6887110471725464,0.4472659826278686,0.0261576324701309,0.7151802182197571,0.3415929973125458,0.0018878004048019,0.6893911957740784,0.3009594976902008,-0.0221961364150047,0.6494097709655762,0.3068687915802002,-0.0327145457267761,0.7249162793159485,0.4701501727104187,0.0090677272528409,0.7650211453437805,0.3551726341247558,-0.0143121918663382,0.7333191633224487,0.3092786371707916,-0.02906946092844,0.6900782585144043,0.309377372264862,-0.0324321016669273,0.7525714635848999,0.5043294429779053,-0.0098242871463298,0.7509124279022217,0.4085684716701507,-0.0318515338003635,0.7186068296432495,0.358884185552597,-0.0429933965206146,0.6818721294403076,0.3407225608825683,-0.0452814474701881
2023-08-01 16:25:02.804668,15,465,0.9713184833526612,-0.1636441051959991,0.0016694384394213,-0.1725057959556579,-0.27734375,0.75390625,0.49169921875,0.6326972842216492,0.7258626222610474,-2.745845222307253e-07,0.5836837887763977,0.6345330476760864,-0.0077920774929225,0.5653595924377441,0.4993056654930115,-0.0085009913891553,0.5549206733703613,0.3994333446025848,-0.0157311707735061,0.571438729763031,0.323984682559967,-0.0203083977103233,0.6500183939933777,0.4326066970825195,0.0422068051993846,0.6632185578346252,0.3428359627723694,0.0200168956071138,0.64805006980896,0.3016091585159302,-0.0037306365557014,0.6286909580230713,0.2975670099258423,-0.0167502202093601,0.6916405558586121,0.4397757053375244,0.0304078962653875,0.7195154428482056,0.3286892771720886,0.0056353881955146,0.6921133399009705,0.2851601243019104,-0.0190474446862936,0.6510027647018433,0.2939061522483825,-0.0292589254677295,0.7280288934707642,0.4619949758052826,0.0115682994946837,0.7685397267341614,0.3421557545661926,-0.0127858435735106,0.7342774271965027,0.2957701981067657,-0.0280737522989511,0.6892269849777222,0.2999761998653412,-0.0309530850499868,0.7556634545326233,0.4957585632801056,-0.0091020809486508,0.7547553181648254,0.3965853452682495,-0.0318179056048393,0.7213035821914673,0.3450414538383484,-0.0432728305459022,0.6829515099525452,0.3274369835853576,-0.0452888682484626
2023-08-01 16:25:02.860651,16,466,0.9683789610862732,-0.1701636165380478,0.0010620761895552,-0.1824428290128708,-0.25,0.83544921875,0.4853515625,0.6461840867996216,0.7219538688659668,-2.1621410439820465e-07,0.5884909629821777,0.6226909756660461,-0.0112560894340276,0.5646883249282837,0.479598194360733,-0.0136997383087873,0.5527406930923462,0.3702676892280578,-0.0221093278378248,0.5704696774482727,0.285718560218811,-0.0281761568039655,0.6542418599128723,0.4042471051216125,0.0451514795422554,0.6700134873390198,0.3136911690235138,0.0252760332077741,0.6586799621582031,0.2694935798645019,7.012364221736789e-05,0.6395826935768127,0.2532261312007904,-0.0160389076918363,0.6997478008270264,0.4124350547790527,0.0339149050414562,0.7288085222244263,0.3013949394226074,0.0092410445213317,0.7024641633033752,0.2560568451881408,-0.0199232511222362,0.6585627794265747,0.2555171847343445,-0.0344699099659919,0.7396940588951111,0.4373621642589569,0.0152969108894467,0.7847334146499634,0.3129197359085083,-0.0112819606438279,0.7525975108146667,0.2676086127758026,-0.0325364246964454,0.7067115306854248,0.2707604467868805,-0.0397447198629379,0.770842969417572,0.4752355515956878,-0.0050935889594256,0.7708610892295837,0.3675698935985565,-0.0318193696439266,0.7368788123130798,0.3105659484863281,-0.0477161444723606,0.6974095702171326,0.2888165116310119,-0.0530300252139568
2023-08-01 16:25:02.929201,17,467,0.965420424938202,-0.1760580092668533,0.0043204738758504,-0.1922196149826049,-0.341796875,0.81103515625,0.52587890625,0.6453924775123596,0.7316995859146118,-2.54991533665816e-07,0.5895237326622009,0.6350371837615967,-0.0124799273908138,0.565575897693634,0.4835095405578613,-0.0151233067736029,0.5535990595817566,0.3675212562084198,-0.0243628621101379,0.5739343762397766,0.279619038105011,-0.0307635050266981,0.6557337045669556,0.3983253240585327,0.0487381853163242,0.6725284457206726,0.3050222992897033,0.0249858293682336,0.6612361073493958,0.2596879005432129,-0.003373468760401,0.6417710185050964,0.2492597699165344,-0.0205742232501506,0.7042873501777649,0.4064342975616455,0.0371105782687664,0.7340171933174133,0.289596676826477,0.0084150414913892,0.7084488272666931,0.2454491406679153,-0.0234986655414104,0.6634370684623718,0.2571419477462768,-0.0383405238389968,0.7467575669288635,0.4312538504600525,0.0174154844135046,0.7895212769508362,0.3032719492912292,-0.0099021848291158,0.7585639357566833,0.2524570822715759,-0.0308140963315963,0.7108080983161926,0.257732480764389,-0.0370885021984577,0.7820174694061279,0.4708291888236999,-0.0046381563879549,0.7839893698692322,0.3611294031143188,-0.0308610089123249,0.7514142394065857,0.3036428689956665,-0.0459267422556877,0.7097666263580322,0.2859848439693451,-0.0500872954726219
2023-08-01 16:25:02.995866,18,468,0.9631494283676147,-0.1811302751302719,0.005041807424277,-0.1987701803445816,-0.3203125,0.82470703125,0.5029296875,0.6483363509178162,0.746687650680542,-3.107280974745663e-07,0.5923231840133667,0.6400407552719116,-0.0107348738238215,0.5691311955451965,0.4848562479019165,-0.0119720576331019,0.5575397610664368,0.3671315312385559,-0.0204303413629531,0.5763404369354248,0.2778692245483398,-0.0258553531020879,0.6598284840583801,0.4009933173656463,0.0520344674587249,0.6776418685913086,0.3012732267379761,0.0270406324416399,0.664779782295227,0.2562083005905151,-0.0026862455997616,0.642346203327179,0.2462244182825088,-0.0205020774155855,0.7079703211784363,0.4085403680801391,0.0394096300005912,0.7402405142784119,0.2880566716194153,0.0096497265622019,0.7133690118789673,0.2423665076494217,-0.0237769745290279,0.6653048992156982,0.2509283721446991,-0.0395991653203964,0.7507195472717285,0.4331926107406616,0.0186030715703964,0.7977941036224365,0.3012142181396484,-0.0091716116294264,0.7675232291221619,0.248428389430046,-0.0311802495270967,0.7182345986366272,0.252326488494873,-0.0383859723806381,0.785797119140625,0.4732495248317718,-0.0045671444386243,0.7898268103599548,0.3633750975131988,-0.0305930376052856,0.7575105428695679,0.3050664663314819,-0.0460749641060829,0.7150112986564636,0.2856361269950866,-0.0507366433739662
2023-08-01 16:25:03.076043,19,469,0.9610341787338256,-0.1860913187265396,0.0060292477719485,-0.2043207585811615,-0.34033203125,0.806640625,0.52587890625,0.6538679003715515,0.7666668891906738,-2.246959951435201e-07,0.5958659052848816,0.6612287163734436,-0.0127411354333162,0.5740715265274048,0.4969241917133331,-0.0130051216110587,0.5627802014350891,0.3712766170501709,-0.0210885405540466,0.5833181142807007,0.2766201198101043,-0.0261871218681335,0.6675325632095337,0.4001407623291015,0.0567190460860729,0.6850919127464294,0.3032589554786682,0.0341044552624225,0.6758365035057068,0.2518979609012604,0.0059769223444163,0.6578267216682434,0.2339197248220443,-0.0117240436375141,0.7215914130210876,0.4078208804130554,0.0430462211370468,0.7550913691520691,0.2836483716964721,0.0161052923649549,0.731884777545929,0.2247784733772277,-0.0157981384545564,0.6856583952903748,0.2254599183797836,-0.0313188843429088,0.7682009935379028,0.4369660317897796,0.0201425217092037,0.8179648518562317,0.2999220192432403,-0.0102373482659459,0.7851181626319885,0.2426469027996063,-0.0329886861145496,0.7328790426254272,0.2475010454654693,-0.039815180003643,0.8052328824996948,0.4812474548816681,-0.0053178239613771,0.8078785538673401,0.3629850447177887,-0.0375013016164302,0.769750714302063,0.3057951927185058,-0.0554338656365871,0.7206833958625793,0.2945674061775207,-0.0604882203042507
2023-08-01 16:25:03.147899,20,470,0.9605514407157898,-0.185850128531456,0.0068625938147306,-0.2067692726850509,-0.36865234375,0.85205078125,0.52001953125,0.657002866268158,0.7809416055679321,-2.671767447282037e-07,0.5982577800750732,0.6647409200668335,-0.0121980719268321,0.574149489402771,0.4980008006095886,-0.0147022940218448,0.5615497827529907,0.371450662612915,-0.0248056408017873,0.5823395252227783,0.28184574842453,-0.0323028415441513,0.6673979163169861,0.4044788181781769,0.0506322905421257,0.6860200762748718,0.3032616376876831,0.0252105649560689,0.6795423030853271,0.2510439753532409,-0.0049314759671688,0.6649938225746155,0.2316071987152099,-0.024179758504033,0.7226350903511047,0.415274441242218,0.036265805363655,0.7594777345657349,0.2836534976959228,0.0017325853696092,0.734099268913269,0.2361266762018203,-0.0338224470615386,0.6860097646713257,0.2483498901128769,-0.0499143339693546,0.770393431186676,0.4447124600410461,0.0137215983122587,0.8213534951210022,0.2987276315689087,-0.0182059202343225,0.7874546051025391,0.2451426982879638,-0.0411548353731632,0.7342708110809326,0.253129243850708,-0.0478400699794292,0.808586597442627,0.4909981787204742,-0.0112311234697699,0.8094296455383301,0.3703934550285339,-0.0400829948484897,0.7732078433036804,0.3083276152610779,-0.0566244721412658,0.7274874448776245,0.2883155643939972,-0.0614471472799778
2023-08-01 16:25:03.204210,21,471,0.960752248764038,-0.1837539821863174,0.0084072789177298,-0.207651138305664,-0.3369140625,0.814453125,0.48193359375,0.6582310199737549,0.7955319285392761,-2.909435465880961e-07,0.5990939140319824,0.6763734817504883,-0.0096083553507924,0.5756227970123291,0.5076798796653748,-0.0108533529564738,0.5636335015296936,0.3803454637527466,-0.0205167550593614,0.584223747253418,0.2876443564891815,-0.0274610705673694,0.6686180233955383,0.4097597897052765,0.0541947446763515,0.6869654655456543,0.3063734769821167,0.0289496034383773,0.6819611191749573,0.2538530528545379,-0.0010311894584447,0.6673389077186584,0.2370533347129821,-0.0198648963123559,0.7251420021057129,0.4214484691619873,0.0380821675062179,0.7619022130966187,0.2886569499969482,0.002251191297546,0.7377181053161621,0.2432775199413299,-0.0347641296684742,0.6895248889923096,0.261601448059082,-0.0511454381048679,0.773292601108551,0.451445609331131,0.0139663089066743,0.827130913734436,0.3031023740768432,-0.0184558667242527,0.7935082316398621,0.2487354129552841,-0.041194561868906,0.7393189072608948,0.2584164142608642,-0.0473862923681736,0.811894416809082,0.4979974031448364,-0.012419156730175,0.8134589195251465,0.3774649798870086,-0.0421366170048713,0.7769634127616882,0.313950777053833,-0.0589571855962276,0.7301677465438843,0.2929314076900482,-0.0634631812572479
2023-08-01 16:25:03.283531,22,472,0.9614894986152648,-0.1840802431106567,0.0079218205064535,-0.2039356678724289,-0.3212890625,0.82470703125,0.50732421875,0.6596638560295105,0.8123579025268555,-2.697736647405691e-07,0.6007218360900879,0.6907448172569275,-0.0123101361095905,0.5790464878082275,0.5225220322608948,-0.0161770265549421,0.5677251219749451,0.3935701251029968,-0.0280476529151201,0.5899307131767273,0.2987600564956665,-0.0370103232562541,0.6765440106391907,0.421926200389862,0.0499194338917732,0.6997378468513489,0.3124251961708069,0.0202455148100852,0.6930249333381653,0.2624056041240692,-0.0126964068040251,0.6777074337005615,0.252091497182846,-0.0325858667492866,0.7335172295570374,0.4347741603851318,0.034454520791769,0.776192307472229,0.2952958047389984,-0.0030328042339533,0.7532166838645935,0.2497995793819427,-0.0405567325651645,0.7065234184265137,0.2715156376361847,-0.0574527829885482,0.7815183997154236,0.4669942259788513,0.0105745401233434,0.8402228951454163,0.3154065012931824,-0.0231260191649198,0.8046538233757019,0.2618606090545654,-0.046295903623104,0.7491374015808105,0.2729129493236542,-0.0531047582626342,0.8190012574195862,0.5172576904296875,-0.0157560929656028,0.8230534791946411,0.3962000012397766,-0.0462000705301761,0.7876356840133667,0.3353394865989685,-0.0632512047886848,0.7429088354110718,0.3165440261363983,-0.0681592971086502
2023-08-01 16:25:03.365577,23,473,0.962633490562439,-0.1810050010681152,0.009180954657495,-0.2012202441692352,-0.3935546875,0.8095703125,0.5322265625,0.6596621870994568,0.815131664276123,-2.9242667665130284e-07,0.6021918058395386,0.6854258179664612,-0.0115451170131564,0.577692449092865,0.5205704569816589,-0.016780100762844,0.5655274987220764,0.393377274274826,-0.0305182076990604,0.592814564704895,0.3005095720291137,-0.0416876785457134,0.6741557717323303,0.4223477244377136,0.0531270764768123,0.693219780921936,0.318107932806015,0.0254997480660676,0.6892789602279663,0.2706615924835205,-0.0075129019096493,0.6777194142341614,0.2557690143585205,-0.0283183492720127,0.7315900921821594,0.4366655647754669,0.0375480651855468,0.7689061164855957,0.3023245930671692,-0.0011741803027689,0.7428162097930908,0.2644256949424743,-0.041528508067131,0.6950109004974365,0.2864725589752197,-0.0599257610738277,0.7805091142654419,0.4681834578514099,0.0139912422746419,0.836717963218689,0.3174806833267212,-0.0197911690920591,0.8014188408851624,0.2672973275184631,-0.0446267053484916,0.7473616600036621,0.280259370803833,-0.0521344505250453,0.8186249136924744,0.517179548740387,-0.0117554198950529,0.8225947618484497,0.3946621119976043,-0.0398792214691638,0.7861694097518921,0.3293789327144623,-0.0558589696884155,0.7406460046768188,0.3067656755447387,-0.0601337142288684
2023-08-01 16:25:03.444425,24,474,0.9657519459724426,-0.1736616045236587,0.0100157298147678,-0.1925213485956192,-0.3701171875,0.82080078125,0.49951171875,0.6551010012626648,0.8104482889175415,-3.180761609655747e-07,0.599989116191864,0.6791915893554688,-0.0105350809171795,0.5746907591819763,0.5157262682914734,-0.0143559519201517,0.5613787770271301,0.3907986283302307,-0.0267096105962991,0.5837345719337463,0.2972636818885803,-0.0361127890646457,0.6692707538604736,0.4189581274986267,0.0539692193269729,0.6886346936225891,0.3160214424133301,0.0255692638456821,0.6812736392021179,0.2701807916164398,-0.0071781147271394,0.6653619408607483,0.257993072271347,-0.0270041581243276,0.7245175838470459,0.4289304316043854,0.0389206819236278,0.7597116827964783,0.2955911159515381,0.0040004081092774,0.7334931492805481,0.2559495270252228,-0.0320760607719421,0.6855076551437378,0.2737849354743957,-0.0486179627478122,0.7726445198059082,0.4577438235282898,0.0153031889349222,0.8279538750648499,0.3120638728141784,-0.0164707619696855,0.792785108089447,0.2618675827980041,-0.0399722084403038,0.7381400465965271,0.272962749004364,-0.0473194308578968,0.8100341558456421,0.5053865909576416,-0.0106578888371586,0.8143116235733032,0.3898612856864929,-0.0371645726263523,0.7769647836685181,0.3289622664451599,-0.0526683069765567,0.7294924855232239,0.3086645007133484,-0.0571138001978397
2023-08-01 16:25:03.527304,25,475,0.969844937324524,-0.1634735316038131,0.0094757555052638,-0.180519625544548,-0.34228515625,0.8125,0.4794921875,0.6500195264816284,0.8129829168319702,-3.3545504152243666e-07,0.5949261784553528,0.6830383539199829,-0.0047786836512386,0.5734655261039734,0.5192888975143433,-0.0060823876410722,0.5623718500137329,0.3971185088157654,-0.0173917021602392,0.5840975642204285,0.3036438226699829,-0.0264876279979944,0.670349657535553,0.4220785498619079,0.0580163225531578,0.6896917223930359,0.3175772428512573,0.0312766283750534,0.6823222041130066,0.2699860632419586,-0.0005944584845565,0.6659060120582581,0.2588707208633423,-0.0200165528804063,0.7258564233779907,0.4361575543880462,0.0384436398744583,0.7674722671508789,0.3000786602497101,0.002146735554561,0.7390425801277161,0.2575562298297882,-0.0352903455495834,0.6879411339759827,0.2786495089530945,-0.0520048066973686,0.7725586295127869,0.468243658542633,0.0109673496335744,0.8288446664810181,0.3171215951442718,-0.0215260405093431,0.7877328991889954,0.268549770116806,-0.0449581928551197,0.7300040125846863,0.2831805944442749,-0.0517985038459301,0.8084056973457336,0.5165438055992126,-0.0184040609747171,0.8126943707466125,0.3930293321609497,-0.0455988906323909,0.7692363262176514,0.3312608599662781,-0.0605719275772571,0.7178048491477966,0.3121511340141296,-0.064534343779087
2023-08-01 16:25:03.601133,26,476,0.9746733903884888,-0.1511708796024322,0.0060404380783438,-0.1646896749734878,-0.25830078125,0.82177734375,0.4521484375,0.6457818746566772,0.7962867021560669,-3.820233587248367e-07,0.5926594734191895,0.6673955917358398,-0.008776499889791,0.5663764476776123,0.5101283192634583,-0.0123748937621712,0.5538808703422546,0.3897356986999511,-0.0251076649874448,0.5748416185379028,0.3011722266674042,-0.0343464389443397,0.6567471623420715,0.4182765185832977,0.0549684166908264,0.6785831451416016,0.3090925216674804,0.0235978886485099,0.6641903519630432,0.2682863473892212,-0.0107017569243907,0.6404520273208618,0.268645316362381,-0.0294876061379909,0.7064889669418335,0.4274423122406006,0.0403226837515831,0.7443779706954956,0.2973813712596893,0.0057424674741923,0.7148948907852173,0.2619607448577881,-0.0283240247517824,0.6658768653869629,0.2835365533828735,-0.043660718947649,0.7517885565757751,0.4523411095142364,0.0167313162237405,0.8031216263771057,0.3173529505729675,-0.011549019254744,0.7670666575431824,0.2731015384197235,-0.0324137061834335,0.7138156890869141,0.2872112989425659,-0.0389030426740646,0.7882466912269592,0.4933363497257232,-0.0095650311559438,0.7944803237915039,0.3848353326320648,-0.0282021723687648,0.7593579292297363,0.3289744257926941,-0.0395073853433132,0.714154064655304,0.3116821050643921,-0.0426597371697425
2023-08-01 16:25:03.680420,27,477,0.9797930121421814,-0.1366307586431503,-0.0025206105783581,-0.1460529565811157,-0.16455078125,0.755859375,0.47314453125,0.6373238563537598,0.7884804010391235,-3.9741561863593233e-07,0.5888888835906982,0.6632177233695984,-0.0044809468090534,0.5671957731246948,0.5107609629631042,-0.0056540733203291,0.5574609637260437,0.3987593650817871,-0.0160418227314949,0.573584794998169,0.3087060749530792,-0.0240590367466211,0.6579189300537109,0.421253889799118,0.0540872290730476,0.6765769124031067,0.3188213109970093,0.0270488392561674,0.6620734333992004,0.2770620584487915,-0.0042580673471093,0.6391149759292603,0.2680537700653076,-0.0227017272263765,0.7059148550033569,0.431217223405838,0.0367711186408996,0.7414766550064087,0.3026477098464966,0.0029420363716781,0.7094569802284241,0.2668409049510956,-0.0318195261061191,0.6593429446220398,0.2829936742782593,-0.0476167201995849,0.7474849224090576,0.4568538963794708,0.0118025140836834,0.7991913557052612,0.3207046389579773,-0.0167457778006792,0.7610659003257751,0.274756371974945,-0.0388394780457019,0.7074825167655945,0.2837125957012176,-0.0461241453886032,0.7793397903442383,0.5001561045646667,-0.0151886753737926,0.7896538972854614,0.3913051187992096,-0.0355592630803585,0.7550239562988281,0.3304685950279236,-0.0478484965860843,0.7104672193527222,0.3062067627906799,-0.051565047353506
2023-08-01 16:25:03.750960,28,478,0.984178066253662,-0.1208985075354576,-0.0084362691268324,-0.129251629114151,-0.18798828125,0.91796875,0.37890625,0.6378254294395447,0.7854359149932861,-3.943840169995383e-07,0.5891242623329163,0.6589052081108093,-0.0022925517987459,0.5667175054550171,0.5090367197990417,-0.0001988572184927,0.5543376207351685,0.3953132629394531,-0.0080616325139999,0.5721836090087891,0.3092167973518371,-0.0137928929179906,0.6550504565238953,0.4282680749893188,0.0649034231901168,0.6708855032920837,0.3338374495506286,0.044180504977703,0.6588630676269531,0.2900778651237488,0.0161254722625017,0.6386501789093018,0.2712427973747253,-0.0016081520589068,0.7011520862579346,0.4354699552059173,0.0484854616224765,0.7300079464912415,0.3140371143817901,0.0205499436706304,0.7012423276901245,0.2760974764823913,-0.0125045906752347,0.6544891595840454,0.2831291258335113,-0.0286502949893474,0.7424465417861938,0.4578026235103607,0.0242624878883361,0.7904737591743469,0.327206403017044,-0.0011753996368497,0.7563484907150269,0.2802041172981262,-0.023236421868205,0.704744279384613,0.2838389575481415,-0.03124282322824,0.7751731872558594,0.4964527487754822,-0.0018606855301186,0.7850568294525146,0.3892346024513244,-0.0203745495527982,0.7517929673194885,0.3323690295219421,-0.0321452319622039,0.70748370885849,0.3111789226531982,-0.0359970889985561
2023-08-01 16:25:03.809380,29,479,0.9874786734580994,-0.1090622618794441,-0.0140690989792346,-0.1131072863936424,-0.16015625,0.943359375,0.3154296875,0.6339949369430542,0.7932949066162109,-4.505341735239199e-07,0.5844356417655945,0.6749736070632935,4.072584488312714e-05,0.5660955905914307,0.5348755121231079,0.0042326604016125,0.5582084655761719,0.4316785037517547,-0.0013714766828343,0.5655691623687744,0.3545887470245361,-0.0039376788772642,0.6464866399765015,0.454436182975769,0.0613723061978817,0.6645240187644958,0.3491100966930389,0.0377310998737812,0.6451388001441956,0.3135674595832824,0.0100303329527378,0.6198908090591431,0.3218436539173126,-0.0039950283244252,0.6828787326812744,0.4591798484325409,0.046220276504755,0.709028959274292,0.3358190059661865,0.020131791010499,0.6808942556381226,0.3071453273296356,-0.008151869289577,0.6409108638763428,0.3371961712837219,-0.0198254417628049,0.718320906162262,0.4761326313018799,0.0233932975679636,0.7493168711662292,0.356503814458847,0.0040270527824759,0.7178877592086792,0.3242983520030975,-0.0121374344453215,0.6777786016464233,0.3501616716384887,-0.0162721332162618,0.7515462040901184,0.5074394941329956,-0.0018104531336575,0.7616687417030334,0.4084067046642303,-0.0104830218479037,0.7389315366744995,0.3581110835075378,-0.015849083662033,0.7073683142662048,0.3493246436119079,-0.0158983655273914
2023-08-01 16:25:03.875571,30,480,0.9909557104110718,-0.0938377752900123,-0.0158168580383062,-0.0946103632450103,-0.10107421875,0.91552734375,0.36328125,0.6301730275154114,0.7990617156028748,-4.090072991402849e-07,0.5844127535820007,0.6814484000205994,0.0066364887170493,0.5656881332397461,0.5440155267715454,0.0156759619712829,0.5584633946418762,0.4406812787055969,0.0135416118428111,0.5697736740112305,0.3626102209091186,0.0134255811572074,0.6389384865760803,0.4712594151496887,0.0737893655896186,0.6548818945884705,0.3790237009525299,0.0589006841182708,0.6402355432510376,0.342111736536026,0.0356903560459613,0.6184473037719727,0.3394574522972107,0.0224406346678733,0.6763102412223816,0.475097507238388,0.0567237734794616,0.701353907585144,0.3635509610176086,0.0369976423680782,0.6784020066261292,0.3320000469684601,0.0098066926002502,0.6405681371688843,0.3525319993495941,-0.0027194831054657,0.7117904424667358,0.4913541972637176,0.0324871502816677,0.7422147989273071,0.377882182598114,0.0164825599640607,0.7123719453811646,0.3424307405948639,-0.0007573904003947,0.6710114479064941,0.3598021864891052,-0.006836618296802,0.7440661191940308,0.5198332667350769,0.0065660951659083,0.7523041367530823,0.4233530759811401,-0.0024201497435569,0.723972737789154,0.376447856426239,-0.0092606041580438,0.6862906813621521,0.3677658438682556,-0.0109183127060532
2023-08-01 16:25:03.937959,31,481,0.9933995604515076,-0.0819352567195892,-0.0157442018389701,-0.0787152424454689,-0.02001953125,0.9658203125,0.28564453125,0.625613272190094,0.8017207384109497,-4.114000375921023e-07,0.5795719623565674,0.6834652423858643,0.0050031119026243,0.5609788298606873,0.5613954663276672,0.0123510956764221,0.552568256855011,0.467416763305664,0.0087483590468764,0.5651922821998596,0.395918607711792,0.0071524111554026,0.6307762265205383,0.4983586072921753,0.0747826918959617,0.6399506330490112,0.4125735759735107,0.0611554868519306,0.6232545375823975,0.3801988065242767,0.0380192287266254,0.6021057367324829,0.3749787211418152,0.0242608394473791,0.6643027663230896,0.4997757971286773,0.0596474185585975,0.6814203858375549,0.3974688649177551,0.0411458574235439,0.6567856073379517,0.370645523071289,0.0136909466236829,0.6217265129089355,0.3859933018684387,0.0002468243765179,0.6974856853485107,0.5111510157585144,0.0372418500483036,0.721065878868103,0.4059062898159027,0.0220366902649402,0.69193035364151,0.3758277893066406,0.005396646913141,0.6543586254119873,0.3916682004928589,-0.0002710227854549,0.7291175127029419,0.5331716537475586,0.0129870865494012,0.7395749092102051,0.4406636953353882,0.0067853732034564,0.7136768698692322,0.3966352939605713,0.0020322818309068,0.6780524849891663,0.3895214200019836,0.001470502698794
2023-08-01 16:25:03.997867,32,482,0.995072901248932,-0.0711723491549491,-0.0161433387547731,-0.0671099871397018,0.0107421875,0.98046875,0.19677734375,0.6191402077674866,0.7848564386367798,-3.316127106245404e-07,0.5772626996040344,0.6809991598129272,0.0028963482473045,0.5593958497047424,0.5651302337646484,0.0070048482157289,0.5518613457679749,0.4790401458740234,0.001820572768338,0.5617269277572632,0.4109734296798706,-0.0014604005264118,0.6271493434906006,0.5008658170700073,0.0583204552531242,0.6394871473312378,0.4198856949806213,0.0416319407522678,0.6251195669174194,0.3908581137657165,0.0196769088506698,0.6064751148223877,0.3879526257514953,0.0072343400679528,0.6606442928314209,0.5029329657554626,0.0441472977399826,0.6811693906784058,0.4035202860832214,0.0227086916565895,0.6579172611236572,0.3811793923377991,-0.0021921978332102,0.6250901222229004,0.3999730944633484,-0.0131112169474363,0.6917435526847839,0.5153965353965759,0.023727698251605,0.7181462645530701,0.4147570133209228,0.0069244857877492,0.689321756362915,0.3862692713737488,-0.0072420462965965,0.6529417634010315,0.3992071151733398,-0.0109821883961558,0.7200625538825989,0.5397312641143799,0.0016709214542061,0.7299821376800537,0.4527603089809418,-0.0068338168784976,0.7067105174064636,0.4078152775764465,-0.0120185697451233,0.675018310546875,0.392936497926712,-0.0124239530414342
2023-08-01 16:25:04.061863,33,483,0.9962326288223268,-0.0620828121900558,-0.0217640753835439,-0.0565032139420509,-0.009765625,0.97412109375,0.228515625,0.6184706687927246,0.775050938129425,-3.570857245449588e-07,0.5772979259490967,0.6795957088470459,0.0028699515387415,0.558048665523529,0.5712911486625671,0.0064014387317001,0.5499669313430786,0.4873159527778625,0.0007904152153059,0.564164400100708,0.4225977063179016,-0.002914396347478,0.6250841617584229,0.5073955655097961,0.0571270622313022,0.6393588781356812,0.4279650449752807,0.0414428524672985,0.6229808330535889,0.401992529630661,0.0206941440701484,0.6033792495727539,0.4005286693572998,0.008866686373949,0.6566334962844849,0.5107594728469849,0.0431149899959564,0.6769150495529175,0.4148427248001098,0.0227105375379323,0.6517434120178223,0.3942515850067138,-0.0007725539035163,0.6185040473937988,0.4111725687980652,-0.0110850622877478,0.6867004632949829,0.5226969718933105,0.0228877253830432,0.7100780010223389,0.4249167144298553,0.0059379357844591,0.6796973943710327,0.3995001912117004,-0.0077524567022919,0.6432544589042664,0.4122401773929596,-0.0113868620246648,0.7149722576141357,0.5441333651542664,0.0011659151641651,0.7223718762397766,0.4586494863033294,-0.0083618452772498,0.6968811750411987,0.4195802211761474,-0.01364585198462,0.6643596887588501,0.409168541431427,-0.0142643339931964
2023-08-01 16:25:04.126202,34,484,0.9974387884140016,-0.0506298206746578,-0.0224063862115144,-0.0452805869281291,0.02392578125,0.98974609375,0.17333984375,0.6175865530967712,0.7754488587379456,-3.296345312264748e-07,0.5775321125984192,0.6820647120475769,0.005364438984543,0.5594059824943542,0.5770163536071777,0.0112999947741627,0.5514206886291504,0.4937960207462311,0.0076913889497518,0.5640647411346436,0.4294409453868866,0.0053957882337272,0.6236593723297119,0.520899772644043,0.0633542239665985,0.6338326334953308,0.4460530281066894,0.0510427691042423,0.6206160187721252,0.4174290299415588,0.0315898992121219,0.6040616035461426,0.4132017493247986,0.0199773646891117,0.6548320055007935,0.5231671929359436,0.0486423149704933,0.6732105612754822,0.431269109249115,0.0296293813735246,0.6509027481079102,0.406808078289032,0.0046025495976209,0.6184908747673035,0.4211229383945465,-0.0068548466078937,0.6846848726272583,0.5336564779281616,0.0279795508831739,0.7071037292480469,0.4385382831096649,0.0109498165547847,0.6789731383323669,0.4093995094299316,-0.004921487532556,0.6428402662277222,0.419450581073761,-0.0097897564992308,0.7123595476150513,0.5530570149421692,0.006256730761379,0.7162308692932129,0.4698375463485718,-0.004484249278903,0.6919913291931152,0.4296236634254455,-0.011249023489654,0.6608554124832153,0.4177637100219726,-0.0126922354102134
2023-08-01 16:25:04.195432,35,485,0.998108685016632,-0.044075671583414,-0.0278820395469665,-0.0325414091348648,0.0927734375,0.95849609375,0.17138671875,0.6183423399925232,0.7757085561752319,-2.863084773707669e-07,0.578959584236145,0.6883923411369324,0.0012801238335669,0.560825526714325,0.58441561460495,0.0051012812182307,0.5509777069091797,0.5046663880348206,0.0010916717583313,0.5615015029907227,0.4444639980792999,-0.0018830547342076,0.6223997473716736,0.5302596092224121,0.0510452389717102,0.6308147311210632,0.4614821374416351,0.0381696000695228,0.6214618682861328,0.4297257363796234,0.0197373162955045,0.6090579032897949,0.4207958281040191,0.0083714444190263,0.6553215980529785,0.5337051749229431,0.0382374562323093,0.6757817268371582,0.446120947599411,0.0185409076511859,0.6551478505134583,0.4202950596809387,-0.0045688319951295,0.6225986480712891,0.4337794482707977,-0.0147310085594654,0.6855169534683228,0.546057403087616,0.0199872106313705,0.7125715017318726,0.4548684060573578,0.0024125347845256,0.6857917904853821,0.4216862320899963,-0.0127436649054288,0.6494313478469849,0.4278729259967804,-0.0173910688608884,0.7097420692443848,0.5675580501556396,0.0005703709903173,0.7084012627601624,0.4917968213558197,-0.012199125252664,0.6831794381141663,0.4525797069072723,-0.0201914776116609,0.652681827545166,0.4397661089897156,-0.0222320258617401
2023-08-01 16:25:04.277814,36,486,0.9985886812210084,-0.0372132211923599,-0.0330531001091003,-0.018530199304223,0.052734375,0.98388671875,0.18798828125,0.6218705773353577,0.7929887771606445,-3.6180389884066244e-07,0.5830643773078918,0.7054928541183472,0.0041124308481812,0.5675557851791382,0.608852207660675,0.0101252114400267,0.5590080618858337,0.5347611308097839,0.0079946694895625,0.5666213035583496,0.4796352088451385,0.0071335965767502,0.6268412470817566,0.5647256970405579,0.0553949028253555,0.633599042892456,0.4989991784095764,0.0449199602007865,0.6218324899673462,0.4714695513248443,0.0276369322091341,0.6056711077690125,0.4658427536487579,0.0175132974982261,0.6536558866500854,0.5661191940307617,0.0435201562941074,0.6662783622741699,0.4856321811676025,0.0280795712023973,0.6479218602180481,0.4630788266658783,0.0055371136404573,0.619261622428894,0.472916692495346,-0.0053855418227612,0.6805142164230347,0.5739433169364929,0.0265571363270282,0.7000707983970642,0.4893933236598968,0.0128249190747737,0.6774640083312988,0.4644790291786194,-0.0018156743608415,0.6454323530197144,0.4762924909591675,-0.0067838374525308,0.7043320536613464,0.5890172123908997,0.0086421398445963,0.7048299312591553,0.5181102156639099,0.0005785793764516,0.6846656203269958,0.4814191162586212,-0.0054324036464095,0.6578108072280884,0.4711717367172241,-0.0068354350514709
2023-08-01 16:25:04.362471,37,487,0.9990938901901244,-0.0240169465541839,-0.0350449308753013,-0.0025268360041081,0.14501953125,0.96923828125,0.1201171875,0.6195428967475891,0.7807134985923767,-2.8116568273617304e-07,0.5832549333572388,0.7015226483345032,0.004041938111186,0.5667808055877686,0.6104047298431396,0.0096429912373423,0.5575329065322876,0.5409079194068909,0.0075019258074462,0.5670856237411499,0.4872565269470215,0.0062363571487367,0.6243475675582886,0.5666567087173462,0.0519733950495719,0.631363034248352,0.5057679414749146,0.0426289401948452,0.6189665794372559,0.4789620637893677,0.0271335560828447,0.6031136512756348,0.4712463021278381,0.0176516454666852,0.6513664722442627,0.5674552917480469,0.0402718819677829,0.6659964323043823,0.4893596172332763,0.0268272031098604,0.6461696028709412,0.4673500061035156,0.0072687300853431,0.6173614263534546,0.4761870503425598,-0.002338673453778,0.6775795221328735,0.5767984986305237,0.0236581042408943,0.6992198824882507,0.4932132661342621,0.0106129003688693,0.6750158071517944,0.4670712351799011,-0.0023186183534562,0.643360435962677,0.4730404913425445,-0.0067574768327176,0.6997599601745605,0.5934077501296997,0.0061971298418939,0.6991596221923828,0.5217438340187073,-0.0030708608683198,0.6753029823303223,0.4888672232627868,-0.0090437140315771,0.6469435691833496,0.479176789522171,-0.0105818985030055
2023-08-01 16:25:04.446992,38,488,0.9992427825927734,-0.0183595102280378,-0.0337319299578666,0.0062445672228932,0.20849609375,0.96875,0.0966796875,0.6246960163116455,0.7885345220565796,-2.414240043435712e-07,0.5857328772544861,0.714314341545105,0.0009370123152621,0.5674663186073303,0.6251243948936462,0.0063700634054839,0.5574558973312378,0.5528843998908997,0.0048093441873788,0.5688478350639343,0.5023245811462402,0.0044747772626578,0.6203386783599854,0.5834843516349792,0.0530769824981689,0.6229063868522644,0.5239724516868591,0.0457562580704689,0.6133253574371338,0.4955672025680542,0.0313155949115753,0.6026080846786499,0.4856227040290832,0.0221719034016132,0.6455727815628052,0.5825803875923157,0.0439606942236423,0.6542508006095886,0.509360134601593,0.030818210914731,0.6370477676391602,0.4845449924468994,0.0101255355402827,0.6121680736541748,0.4905886054039001,-0.000178717134986,0.6710121631622314,0.588128924369812,0.0297000966966152,0.6841999888420105,0.5130966901779175,0.0165977273136377,0.6629076600074768,0.4876852333545685,0.0012902017915621,0.6344648599624634,0.4954509735107422,-0.0044098906219005,0.6950428485870361,0.6000422835350037,0.0144215449690818,0.694561779499054,0.5343632102012634,0.0061129061505198,0.6758213043212891,0.5016578435897827,-0.0008638978470116,0.6514606475830078,0.493534505367279,-0.0032768773380666
2023-08-01 16:25:04.525515,39,489,0.9993481636047364,-0.0189498849213123,-0.0296436678618192,0.0080880848690867,0.05126953125,0.95947265625,0.1630859375,0.6196460723876953,0.7853519320487976,-1.8936512446998682e-07,0.5834884643554688,0.7138105630874634,0.0018198889447376,0.5660048127174377,0.6298251748085022,0.0068474505096673,0.5562256574630737,0.564293622970581,0.0052297040820121,0.5687315464019775,0.5149557590484619,0.0047686630859971,0.6165256500244141,0.5910974740982056,0.0499450378119945,0.6206214427947998,0.534790575504303,0.0437208898365497,0.6111694574356079,0.5097542405128479,0.0306921433657407,0.6003065705299377,0.5006999969482422,0.022334074601531,0.6419165730476379,0.5911253690719604,0.0410848557949066,0.6526997685432434,0.5193515419960022,0.0301790777593851,0.636301577091217,0.4975600838661194,0.0116678168997168,0.6123340129852295,0.504451334476471,0.0023231792729347,0.666755735874176,0.5978695750236511,0.0275896433740854,0.6824806928634644,0.5244215130805969,0.0167759712785482,0.6607972979545593,0.5007210373878479,0.0036281272768974,0.6323598623275757,0.5066004395484924,-0.0012527891667559,0.6886438727378845,0.6100819706916809,0.013245646841824,0.6865243315696716,0.5470399260520935,0.0063226958736777,0.6667042970657349,0.5171804428100586,0.0005145238828845,0.6424773335456848,0.5088168978691101,-0.0013144176919013
2023-08-01 16:25:04.592627,40,490,0.9993335604667664,-0.0174407567828893,-0.0298115666955709,0.0118149491026997,0.1650390625,0.9912109375,0.123046875,0.6186235547065735,0.7849310636520386,-1.862279646047682e-07,0.583034873008728,0.7208291292190552,-0.0018270298605784,0.5655664801597595,0.6366536021232605,0.0006846007308922,0.5556458830833435,0.5705621838569641,-0.00249615451321,0.5694180130958557,0.5221180319786072,-0.0043758135288953,0.6152787804603577,0.597994863986969,0.0400198735296726,0.6200782656669617,0.5419583916664124,0.0303223058581352,0.610804557800293,0.5150525569915771,0.0163712911307811,0.6001478433609009,0.506456196308136,0.007764836307615,0.6407219171524048,0.5974253416061401,0.0319111905992031,0.6536053419113159,0.5250505208969116,0.0175672825425863,0.6357643008232117,0.5010564923286438,-0.0003830622299574,0.6103952527046204,0.5091177225112915,-0.0085865752771496,0.6655651330947876,0.6045899391174316,0.0192292965948581,0.6827691793441772,0.529066801071167,0.0050258138217031,0.6600542664527893,0.5054819583892822,-0.0074297157116234,0.6320379376411438,0.5140164494514465,-0.0110206454992294,0.6872660517692566,0.618171751499176,0.0055067632347345,0.6855391263961792,0.5557292103767395,-0.0055071855895221,0.6641871333122253,0.525518536567688,-0.0125279426574707,0.6395183205604553,0.5188645124435425,-0.0143796214833855
2023-08-01 16:25:04.658146,41,491,0.9993194341659546,-0.016194462776184,-0.0301168505102396,0.0138352885842323,0.181640625,0.96875,0.1337890625,0.6168714165687561,0.7812747955322266,-2.0325970240264726e-07,0.5822262167930603,0.7224744558334351,-0.0018942928873002,0.5654581189155579,0.6391391158103943,-7.025957165751606e-05,0.5557727813720703,0.5742456316947937,-0.0035271269734948,0.568993091583252,0.5272433161735535,-0.005762271117419,0.6165691614151001,0.5977076292037964,0.0353038348257541,0.622090756893158,0.5418410897254944,0.0251537002623081,0.6111087203025818,0.5155007243156433,0.0118784140795469,0.5997868180274963,0.5077589154243469,0.0037840625736862,0.6414580941200256,0.5978346467018127,0.0273126363754272,0.6542003154754639,0.5253637433052063,0.0131708271801471,0.6352210640907288,0.5023663640022278,-0.0030614770948886,0.6104038953781128,0.5102871060371399,-0.0102132018655538,0.6658962368965149,0.6060358881950378,0.0150675391778349,0.6839414238929749,0.5291882157325745,0.0008060313994064,0.6597871780395508,0.5067689418792725,-0.010049314238131,0.6316934823989868,0.5150080919265747,-0.0127043630927801,0.6872449517250061,0.6209058165550232,0.0018856473034247,0.684756875038147,0.5585285425186157,-0.0098964655771851,0.6620408892631531,0.5293840765953064,-0.0165986530482769,0.6373692750930786,0.522701621055603,-0.0181321445852518
2023-08-01 16:25:04.724093,42,492,0.9993218183517456,-0.0163336731493473,-0.0301018040627241,0.0135254804044961,0.13134765625,0.9619140625,0.14306640625,0.6181195974349976,0.7828936576843262,-2.0865772398792615e-07,0.582851231098175,0.7236005067825317,-0.0018783228006213,0.5663619041442871,0.6403633952140808,0.0003517527657095,0.5557267069816589,0.5750173926353455,-0.0030256377067416,0.5700077414512634,0.5282213091850281,-0.0052524739876389,0.6168515682220459,0.6012452840805054,0.0376729145646095,0.6223968267440796,0.5456243753433228,0.026889419183135,0.6127133369445801,0.5199178457260132,0.0129198431968688,0.6025469303131104,0.5134724974632263,0.0047336444258689,0.6417916417121887,0.6028021574020386,0.0297472588717937,0.6552165746688843,0.5326128602027893,0.0154832573607563,0.636766791343689,0.5094007253646851,-0.001534171635285,0.6121470928192139,0.5154144763946533,-0.0091842114925384,0.6668038964271545,0.6112766861915588,0.0172244124114513,0.684287965297699,0.5368852019309998,0.002400410361588,0.6591675281524658,0.5138485431671143,-0.0097252298146486,0.630653440952301,0.5200245380401611,-0.0129042593762278,0.6888790130615234,0.6247486472129822,0.0038187161553651,0.6852190494537354,0.5613853335380554,-0.0076103168539702,0.6611666083335876,0.5331351161003113,-0.0143654588609933,0.6357312798500061,0.526984453201294,-0.0159404799342155
2023-08-01 16:25:04.789301,43,493,0.9993537664413452,-0.017388716340065,-0.0294407941401004,0.0110918916761875,0.09228515625,0.97265625,0.1337890625,0.6172783970832825,0.7835985422134399,-1.9583717403293122e-07,0.5818307995796204,0.723564863204956,-0.0020285563077777,0.566723644733429,0.6426073908805847,-0.0007434010040014,0.5570194721221924,0.5797677040100098,-0.0046879723668098,0.571208655834198,0.5338125228881836,-0.0074959672056138,0.6175506114959717,0.6051937937736511,0.0336506180465221,0.623605489730835,0.5489850640296936,0.0220676641911268,0.6138613224029541,0.5238658785820007,0.0080871442332863,0.6041930317878723,0.5188409090042114,-0.0001402710040565,0.6420790553092957,0.6072245836257935,0.0256140995770692,0.6566921472549438,0.5357227325439453,0.0107838688418269,0.6390216946601868,0.5134255886077881,-0.0056281713768839,0.6152380108833313,0.521406888961792,-0.0128777287900447,0.6664685010910034,0.6166465878486633,0.0132727110758423,0.6863954663276672,0.5399159789085388,-0.0016644853167235,0.6624357104301453,0.5164234042167664,-0.0132394479587674,0.6345862746238708,0.5233141183853149,-0.0163420215249061,0.6872738599777222,0.6315593123435974,6.492787360912189e-05,0.6834336519241333,0.56974196434021,-0.0125841470435261,0.659214198589325,0.5411922335624695,-0.0201123282313346,0.633801281452179,0.5344746708869934,-0.0221667140722274
2023-08-01 16:25:04.900976,44,494,0.999334752559662,-0.0180228166282176,-0.0300795137882232,0.0100219016894698,0.11767578125,0.98486328125,0.1591796875,0.6184139251708984,0.7837550640106201,-2.0722447402476973e-07,0.58293217420578,0.7270511984825134,-0.0033853638451546,0.5677652359008789,0.6437991857528687,-0.0031400485895574,0.5570396184921265,0.5795455574989319,-0.0076875807717442,0.5722285509109497,0.5339056849479675,-0.0109643125906586,0.6184958815574646,0.6046749949455261,0.0303076580166816,0.6249658465385437,0.5479465126991272,0.0174744091928005,0.6146694421768188,0.5235300660133362,0.003090672660619,0.6045377850532532,0.52031409740448,-0.00512391095981,0.6427314877510071,0.6061148047447205,0.0230263266712427,0.6568580269813538,0.534630298614502,0.0077906078658998,0.6383207440376282,0.513536274433136,-0.0081707099452614,0.6143959760665894,0.5224354863166809,-0.01503486931324,0.6668787598609924,0.6156793832778931,0.0114600183442235,0.6871584057807922,0.5377888679504395,-0.0035533620975911,0.6623919606208801,0.5162162780761719,-0.0143749667331576,0.6346560716629028,0.5243854522705078,-0.0169572848826646,0.6876296997070312,0.6315702795982361,-0.0010416085133329,0.684238076210022,0.568286657333374,-0.0136648416519165,0.6602684259414673,0.5400635004043579,-0.0208086185157299,0.6356625556945801,0.5333735346794128,-0.0225297976285219
2023-08-01 16:25:04.962012,45,495,0.9994342923164368,-0.0172060970216989,-0.0283604599535465,0.0055426633916795,0.0927734375,0.9931640625,0.08935546875,0.6203286647796631,0.788601279258728,-2.150581792648154e-07,0.5847595930099487,0.729969322681427,0.0009493089746683,0.568356990814209,0.6474975347518921,0.0059590386226773,0.5584309697151184,0.5818073153495789,0.0050618322566151,0.5729329586029053,0.5367806553840637,0.0050073014572262,0.6189581155776978,0.6116332411766052,0.0427843108773231,0.6236199736595154,0.5589357614517212,0.0368101634085178,0.6156572103500366,0.531893789768219,0.0254998318850994,0.6067222952842712,0.5188878774642944,0.0177564211189746,0.6438815593719482,0.6123379468917847,0.0342659130692482,0.6558102965354919,0.5437486171722412,0.023189453408122,0.6390718221664429,0.5189671516418457,0.0067480062134563,0.6147890090942383,0.5201444029808044,-0.0012777815572917,0.6688138842582703,0.6201313138008118,0.0215851869434118,0.6860116720199585,0.5457152724266052,0.0086346417665481,0.6632724404335022,0.5215792655944824,-0.0039011077024042,0.634797990322113,0.5249675512313843,-0.0079879574477672,0.6911824941635132,0.6331623792648315,0.0082828262820839,0.6876639723777771,0.5705106854438782,-0.0030741938389837,0.6644641757011414,0.5415502786636353,-0.0106639582663774,0.6385814547538757,0.5339139699935913,-0.0131606627255678
2023-08-01 16:25:05.019417,46,496,0.9995346069335938,-0.0180943291634321,-0.024361252784729,0.0031080895569175,0.138671875,0.974609375,0.15283203125,0.6194771528244019,0.7841209173202515,-1.8210197083590174e-07,0.5847490429878235,0.7273918390274048,-0.0016838617157191,0.5691264271736145,0.646626353263855,-0.0001682682632235,0.5600560903549194,0.5831794142723083,-0.0034719232935458,0.5730382204055786,0.5360589027404785,-0.0056361015886068,0.6207505464553833,0.6067891120910645,0.0325568616390228,0.6268277168273926,0.5523045659065247,0.0228872578591108,0.6178104281425476,0.527479350566864,0.0101523557677865,0.6084939241409302,0.5211023092269897,0.0023355765733867,0.645348846912384,0.6086472868919373,0.0247893910855054,0.6588928699493408,0.539213240146637,0.0128040900453925,0.6424116492271423,0.5148624181747437,-0.0021995487622916,0.6197185516357422,0.5188282132148743,-0.0095474729314446,0.6694945693016052,0.6186588406562805,0.0129693932831287,0.6897726058959961,0.5425088405609131,-2.533569568186067e-05,0.667542040348053,0.5189240574836731,-0.0102040749043226,0.6408395767211914,0.5243695974349976,-0.0131587628275156,0.6900637149810791,0.6349248886108398,0.0003157481260132,0.6867060661315918,0.5724498629570007,-0.011788697913289,0.6643807888031006,0.5431703925132751,-0.0186132825911045,0.6407460570335388,0.5348120927810669,-0.0204594675451517
