Timestamp,Index,Frame ID,w,x,y,z,ax,ay,az,x_0,y_0,z_0,x_1,y_1,z_1,x_2,y_2,z_2,x_3,y_3,z_3,x_4,y_4,z_4,x_5,y_5,z_5,x_6,y_6,z_6,x_7,y_7,z_7,x_8,y_8,z_8,x_9,y_9,z_9,x_10,y_10,z_10,x_11,y_11,z_11,x_12,y_12,z_12,x_13,y_13,z_13,x_14,y_14,z_14,x_15,y_15,z_15,x_16,y_16,z_16,x_17,y_17,z_17,x_18,y_18,z_18,x_19,y_19,z_19,x_20,y_20,z_20
2023-08-01 16:05:47.964149,0,435,0.6866578459739685,0.2372336238622665,-0.086658276617527,0.6816976070404053,-0.37060546875,0.9169921875,0.078125,0.9124332666397096,0.7124605178833008,-8.284654882118048e-07,0.8436490893363953,0.6347309947013855,-0.009741143323481,0.7920640110969543,0.5488978028297424,-0.0257334783673286,0.7466439604759216,0.4942834973335266,-0.0456799231469631,0.7184860706329346,0.4360259771347046,-0.0641074851155281,0.9050571918487548,0.3968641459941864,-0.0045485845766961,0.8315885066986084,0.3547948002815246,-0.044805072247982,0.7737439870834351,0.3699973523616791,-0.0781023576855659,0.7339761257171631,0.3976054191589355,-0.0979773625731468,0.935312807559967,0.4133839607238769,-0.0199928823858499,0.8382543921470642,0.3651847243309021,-0.0584980212152004,0.7753241658210754,0.3948209881782532,-0.0850319638848304,0.7342593669891357,0.4268875420093536,-0.0992350056767463,0.9525254964828492,0.4521814584732055,-0.0400206185877323,0.8591660857200623,0.4066547751426697,-0.0808227732777595,0.79225754737854,0.4318485260009765,-0.0967262089252471,0.7450413703918457,0.4570933580398559,-0.1007647737860679,0.9527034759521484,0.5087907314300537,-0.0605020001530647,0.8616306781768799,0.490396112203598,-0.0975165292620658,0.8051499724388123,0.496137261390686,-0.111662782728672,0.7615582942962646,0.5011959075927734,-0.1148346066474914
2023-08-01 16:05:48.025315,1,436,0.6871070265769958,0.2302762120962143,-0.0847340896725654,0.6838691830635071,-0.3779296875,0.9013671875,0.09716796875,0.9087334871292114,0.7114680409431458,-8.250850100921525e-07,0.8397085666656494,0.6334410309791565,-0.0086735030636191,0.7878604531288147,0.5452413558959961,-0.0232977047562599,0.740138828754425,0.4913480579853058,-0.0421302169561386,0.7117627263069153,0.4340575635433197,-0.0599360652267932,0.9056954383850098,0.3985041379928589,-0.0025126431137323,0.8319932222366333,0.3525504767894745,-0.042126391083002,0.7724058628082275,0.3682691156864166,-0.0763622522354126,0.7295825481414795,0.3976950347423553,-0.0969881787896156,0.9338964819908142,0.4164522886276245,-0.017575005069375,0.8366514444351196,0.3614077568054199,-0.0554825738072395,0.7716028690338135,0.3907566368579864,-0.0837730392813682,0.7292138934135437,0.4230358004570007,-0.099604457616806,0.9478753209114076,0.4553196430206299,-0.0370768941938877,0.8554434776306152,0.4020667672157287,-0.0771054401993751,0.7872392535209656,0.4247925579547882,-0.094737209379673,0.739904522895813,0.4494594931602478,-0.1002770885825157,0.943644404411316,0.5109003782272339,-0.0567502491176128,0.8532564640045166,0.4850892424583435,-0.0923808589577674,0.7975772023200989,0.489776998758316,-0.1065583750605583,0.7559594511985779,0.4950050711631775,-0.1103123426437377
2023-08-01 16:05:48.092929,2,437,0.6881530284881592,0.2217438369989395,-0.0827480033040046,0.6858774423599243,-0.3740234375,0.87353515625,0.10400390625,0.903906226158142,0.7095912098884583,-8.639059956294659e-07,0.83307284116745,0.6304293274879456,-0.0078048026189208,0.7796473503112793,0.5430378913879395,-0.0223042462021112,0.7346341609954834,0.4895496964454651,-0.0412584505975246,0.7051383256912231,0.4338580965995788,-0.0592875629663467,0.8962554335594177,0.3932323753833771,-0.001489303424023,0.8234433531761169,0.3532063961029053,-0.0425485037267208,0.7632839679718018,0.3703215718269348,-0.0781985968351364,0.7187348008155823,0.398616075515747,-0.0997013971209526,0.9253274202346802,0.4101691544055938,-0.0175968799740076,0.827770471572876,0.3604143261909485,-0.0564771071076393,0.7621294856071472,0.3908135890960693,-0.0857969149947166,0.7187101244926453,0.423608124256134,-0.102261446416378,0.940723180770874,0.4484389424324035,-0.0382292978465557,0.8487038016319275,0.4019451141357422,-0.0788823068141937,0.7802656888961792,0.4267588853836059,-0.0974034219980239,0.7320544719696045,0.4528025984764099,-0.1034460216760635,0.9393829107284546,0.5040582418441772,-0.0590535551309585,0.8490974307060242,0.4828527271747589,-0.0951321870088577,0.7933992743492126,0.4895057380199432,-0.1098246425390243,0.7511178255081177,0.4954352080821991,-0.1138338968157768
2023-08-01 16:05:48.155843,3,438,0.6899181008338928,0.2150365263223648,-0.0795802026987075,0.686614453792572,-0.34521484375,0.876953125,0.10986328125,0.8974526524543762,0.7066707611083984,-8.44155010781833e-07,0.8276140689849854,0.6297379732131958,-0.00823893584311,0.7745143175125122,0.5431719422340393,-0.0233212504535913,0.7285849452018738,0.4894079864025116,-0.0425587408244609,0.6984866857528687,0.4333927929401397,-0.0607666000723838,0.8901947736740112,0.3921297192573547,-0.0034742127172648,0.8159051537513733,0.3503171801567077,-0.044865820556879,0.755275309085846,0.3671387434005737,-0.080252818763256,0.7112718820571899,0.3971626758575439,-0.1011785492300987,0.9194248914718628,0.4085210263729095,-0.0191321615129709,0.8214553594589233,0.3565212488174438,-0.0575249530375003,0.7551921606063843,0.3880920112133026,-0.0853451639413833,0.7125273942947388,0.4235316514968872,-0.1005082353949546,0.934185266494751,0.446804940700531,-0.0392273887991905,0.842059850692749,0.3978166878223419,-0.079160451889038,0.7736440300941467,0.4240638017654419,-0.0957295596599578,0.7268040180206299,0.4524976909160614,-0.1002617105841636,0.931232452392578,0.5023640394210815,-0.0595790930092334,0.8410356640815735,0.480425626039505,-0.0948065742850303,0.7856412529945374,0.4874839782714844,-0.1080565229058265,0.7442235946655273,0.4948258399963379,-0.1108525246381759
2023-08-01 16:05:48.223755,4,439,0.692597508430481,0.2062940448522567,-0.0736283212900161,0.6872629523277283,-0.3984375,0.90234375,0.08984375,0.8687984347343445,0.7029790878295898,-8.071277193266724e-07,0.7938019633293152,0.6218209266662598,-0.0074040293693542,0.7411374449729919,0.5367176532745361,-0.02194344997406,0.6909999847412109,0.4857977032661438,-0.0405964963138103,0.6532645225524902,0.4363062977790832,-0.0590395219624042,0.8574171662330627,0.3882305026054382,-0.0032419548369944,0.7765804529190063,0.3492640554904938,-0.0406480282545089,0.7144166231155396,0.364783227443695,-0.07362662255764,0.6695483326911926,0.391944408416748,-0.0937244594097137,0.8856865167617798,0.4032440781593323,-0.0189120955765247,0.7832942605018616,0.3546616435050964,-0.0545350275933742,0.7147471308708191,0.3837085664272308,-0.0824246332049369,0.6679445505142212,0.418683797121048,-0.0980529636144638,0.8992516994476318,0.4432856142520904,-0.0383124761283397,0.8010678887367249,0.3946827054023742,-0.075723797082901,0.7295534610748291,0.4173206984996795,-0.0934982672333717,0.6789287328720093,0.4443181455135345,-0.0993744134902954,0.8941639065742493,0.5020577311515808,-0.0578126311302185,0.7977772951126099,0.483507752418518,-0.0919970199465751,0.7411623597145081,0.4883240163326263,-0.1058548763394355,0.6987524032592773,0.4951724708080292,-0.1091568693518638
2023-08-01 16:05:48.314290,5,440,0.6956318616867065,0.1955643147230148,-0.068599097430706,0.6878554821014404,-0.41357421875,0.91455078125,0.1005859375,0.8603649735450745,0.7032554745674133,-8.492983738506155e-07,0.7878230214118958,0.6221758127212524,-0.0018723047105595,0.7323490381240845,0.5366630554199219,-0.015679495409131,0.6823702454566956,0.485153317451477,-0.0347427651286125,0.6438509225845337,0.4360721111297607,-0.0535452142357826,0.8517470955848694,0.3853583931922912,-0.0006000254652462,0.7647247910499573,0.3481180369853973,-0.0393431298434734,0.7020257711410522,0.3624513149261474,-0.0734848305583,0.6583588123321533,0.3902930915355682,-0.0942742675542831,0.8781660199165344,0.4023756086826324,-0.019767815247178,0.7681494355201721,0.3550540208816528,-0.054861232638359,0.7008242607116699,0.3867786526679992,-0.0811724439263343,0.6569802761077881,0.4227598905563354,-0.0961047485470771,0.8893969058990479,0.4428751468658447,-0.0424605906009674,0.7845080494880676,0.3967741727828979,-0.0785082057118415,0.7153250575065613,0.4225489795207977,-0.0927284955978393,0.6679941415786743,0.4492219388484955,-0.0967064797878265,0.8817373514175415,0.5015212297439575,-0.0650478973984718,0.7854821681976318,0.4804554283618927,-0.0968772917985916,0.7306174635887146,0.4862388670444488,-0.1076321676373481,0.6900503635406494,0.493515133857727,-0.1092746779322624
2023-08-01 16:05:48.390030,6,441,0.6978943943977356,0.18545763194561,-0.0685168951749801,0.6883707642555237,-0.38330078125,0.908203125,0.1298828125,0.8240422010421753,0.7112994194030762,-8.388964261030196e-07,0.7451148629188538,0.6315256953239441,-0.0050312709063291,0.6915357112884521,0.5451959371566772,-0.0200643707066774,0.6436051726341248,0.4941222965717315,-0.039377886801958,0.604621171951294,0.4534744024276733,-0.0596864372491836,0.8104293346405029,0.3905276656150818,-0.0082909781485795,0.715229868888855,0.3521811962127685,-0.0476340688765049,0.6483217477798462,0.3675266206264496,-0.0828607752919197,0.5996878147125244,0.3924066722393036,-0.1046661883592605,0.8369134664535522,0.4057885706424713,-0.0261132232844829,0.7237054705619812,0.3541162610054016,-0.0607730373740196,0.6515004634857178,0.3834713697433471,-0.088828407227993,0.6022698283195496,0.4154295325279236,-0.106064848601818,0.8476365804672241,0.4476667642593384,-0.0469849407672882,0.7399734854698181,0.3955236673355102,-0.0829647034406662,0.6667511463165283,0.4216024279594421,-0.1009657829999923,0.6160889267921448,0.447658509016037,-0.1084373816847801,0.8393738865852356,0.5101405382156372,-0.0678295418620109,0.7398673295974731,0.4930303394794464,-0.100671075284481,0.6818954944610596,0.4970085322856903,-0.1144730597734451,0.6380172371864319,0.5018115043640137,-0.1188933029770851
2023-08-01 16:05:48.453981,7,442,0.699948787689209,0.1730461716651916,-0.0669408664107322,0.689670741558075,-0.42578125,0.88623046875,0.12744140625,0.8128053545951843,0.7100765705108643,-8.869484986462339e-07,0.733759880065918,0.6283372640609741,-0.0013384454650804,0.6767503619194031,0.5424224734306335,-0.0151476059108972,0.6270796060562134,0.490914523601532,-0.0338987372815609,0.5857141017913818,0.4466519057750702,-0.0528639182448387,0.7970895171165466,0.3876934647560119,-0.0055273976176977,0.7028548717498779,0.3489354848861694,-0.0446964018046855,0.636725902557373,0.3696045279502868,-0.0789349228143692,0.5912327170372009,0.4017164707183838,-0.0999675616621971,0.8229265809059143,0.4053330421447754,-0.025013705715537,0.709123969078064,0.3560580611228943,-0.0593651123344898,0.6378511190414429,0.3899798989295959,-0.0848168209195137,0.5919604897499084,0.42558354139328,-0.1004865542054176,0.8317660093307495,0.4490294456481933,-0.0475929155945777,0.7266333699226379,0.3995751738548279,-0.0833929255604744,0.6552417874336243,0.4273899793624878,-0.0984842181205749,0.6066470742225647,0.4546984732151031,-0.1043116897344589,0.8216984868049622,0.5122029781341553,-0.0697630271315574,0.7236269116401672,0.4925929009914398,-0.1021957546472549,0.6661688685417175,0.4978789687156677,-0.1140817627310752,0.623487114906311,0.5028618574142456,-0.1174368858337402
2023-08-01 16:05:48.513255,8,443,0.701424241065979,0.1606384664773941,-0.0659947395324707,0.6912626624107361,-0.36279296875,0.86669921875,0.12646484375,0.8013650178909302,0.7069888710975647,-8.820244943308353e-07,0.7169911861419678,0.6235586404800415,-0.0030131919775158,0.6587892770767212,0.5399385690689087,-0.0182787887752056,0.6112790703773499,0.4912717938423157,-0.0381353311240673,0.5717533826828003,0.4505109786987304,-0.0584538392722606,0.784454345703125,0.3818849623203277,-0.0090063670650124,0.6874323487281799,0.3449558615684509,-0.0504273399710655,0.6195641756057739,0.3652089238166809,-0.0864376425743103,0.5716279745101929,0.3968722224235534,-0.1082713529467582,0.8093138337135315,0.401630163192749,-0.0283191464841365,0.6950943470001221,0.3535897135734558,-0.0644143745303154,0.6234751343727112,0.3874438107013702,-0.0910032019019126,0.576148509979248,0.4240456223487854,-0.1073936223983764,0.816227912902832,0.4470955431461334,-0.0508455149829387,0.710204005241394,0.399404227733612,-0.0878918841481208,0.6384564638137817,0.4285709261894226,-0.1040189117193222,0.5891739130020142,0.4567486047744751,-0.1106040999293327,0.8052602410316467,0.5120450258255005,-0.0730626359581947,0.704737663269043,0.4962048530578613,-0.1062783971428871,0.6465831995010376,0.5019344091415405,-0.118759661912918,0.6036268472671509,0.5054742693901062,-0.1225642189383506
2023-08-01 16:05:48.573512,9,444,0.7028970122337341,0.1518787890672683,-0.0647496208548545,0.6918642520904541,-0.345703125,0.869140625,0.14501953125,0.788750410079956,0.7098613977432251,-9.176280286737892e-07,0.7055894732475281,0.6239466071128845,0.0005680193426087,0.6463273167610168,0.5397030711174011,-0.0137112746015191,0.5985863208770752,0.491312175989151,-0.0332866460084915,0.5596787929534912,0.4508287310600281,-0.0533063001930713,0.773882269859314,0.3815009593963623,-0.005573883652687,0.6749997138977051,0.3451666831970215,-0.0457965917885303,0.6068140864372253,0.3651037216186523,-0.0807069391012191,0.5588308572769165,0.396863728761673,-0.1020460873842239,0.7978495955467224,0.4003403484821319,-0.026690624654293,0.6809144616127014,0.3544700741767883,-0.0619056932628154,0.6079022884368896,0.3906896114349365,-0.0876716449856758,0.5591714382171631,0.4280173480510711,-0.1034973636269569,0.8050148487091064,0.444372147321701,-0.0506969131529331,0.6962921619415283,0.3991865217685699,-0.0862287729978561,0.6230193972587585,0.429991215467453,-0.1013241410255432,0.5714657306671143,0.4582337439060211,-0.1076822504401207,0.7947331070899963,0.5080072283744812,-0.0742316469550132,0.6920583844184875,0.4980106651782989,-0.1063832938671112,0.6324567794799805,0.5076814889907837,-0.1181495785713195,0.5873655080795288,0.5124379992485046,-0.1216577962040901
2023-08-01 16:05:48.641698,10,445,0.705254077911377,0.1418723165988922,-0.0619978420436382,0.6918419003486633,-0.39404296875,0.8798828125,0.1611328125,0.7599509358406067,0.7182588577270508,-8.449824804301898e-07,0.6562747359275818,0.6315195560455322,0.0042031821794807,0.5942643880844116,0.5470910668373108,-0.0093904128298163,0.5460129976272583,0.4992668330669403,-0.0293086525052785,0.5083874464035034,0.4683466255664825,-0.0507431216537952,0.7204395532608032,0.3865319192409515,-0.0071166916750371,0.6117016077041626,0.3423589169979095,-0.0444240383803844,0.5418143272399902,0.3682224750518799,-0.0758808478713035,0.4937145113945007,0.4044545888900757,-0.0950437933206558,0.7395700812339783,0.4047465324401855,-0.0295895636081695,0.6097705364227295,0.3508510887622833,-0.0630278140306472,0.5368118286132812,0.393601655960083,-0.086147740483284,0.4928434789180755,0.4380751252174377,-0.1005070731043815,0.7407211661338806,0.4484779834747314,-0.0542373210191726,0.6188592314720154,0.3960577249526977,-0.0862792283296585,0.5456781387329102,0.4326606690883636,-0.1003941595554351,0.4990022778511047,0.4682284891605377,-0.1065712943673133,0.7262003421783447,0.5133416652679443,-0.0783331990242004,0.6193258762359619,0.4960680902004242,-0.1064842417836189,0.5579942464828491,0.502640962600708,-0.118116907775402,0.5131093263626099,0.5097403526306152,-0.122387021780014
2023-08-01 16:05:48.702696,11,446,0.7066621780395508,0.1349578499794006,-0.06040059030056,0.6919296383857727,-0.37744140625,0.89794921875,0.162109375,0.7453362345695496,0.7209993004798889,-8.912310249797883e-07,0.6424757838249207,0.6244767308235168,0.015279371291399,0.5807181000709534,0.5448701977729797,0.0027820558752864,0.5286272764205933,0.4977487623691559,-0.0182146150618791,0.4936665892601013,0.4570307433605194,-0.0402326770126819,0.7097790241241455,0.3844876885414123,-0.0008365697576664,0.5979639291763306,0.3473649621009826,-0.0354901067912578,0.5284246802330017,0.3793855309486389,-0.0651406273245811,0.4857559204101562,0.4191750288009643,-0.0836060717701911,0.7244234681129456,0.4008764624595642,-0.0282259788364171,0.5931509733200073,0.3489960432052612,-0.0589417889714241,0.523154079914093,0.3922738432884216,-0.0818461999297142,0.4796809554100036,0.4400963485240936,-0.0972875729203224,0.7232215404510498,0.4434171319007873,-0.0562232509255409,0.5977581739425659,0.4013292789459228,-0.0828541070222854,0.5272833108901978,0.4343812167644501,-0.0958263128995895,0.4791642427444458,0.4691574573516845,-0.1038667485117912,0.7059758901596069,0.5069676041603088,-0.0827753245830535,0.5990167856216431,0.4950178265571594,-0.1051084324717521,0.5396485328674316,0.5020280480384827,-0.1148563846945762,0.4941014349460602,0.5088027119636536,-0.1199316680431366
2023-08-01 16:05:48.757589,12,447,0.7079309821128845,0.1284657418727874,-0.0575838461518287,0.692108690738678,-0.431640625,0.89404296875,0.14111328125,0.7008600234985352,0.7167215347290039,-8.881663688953267e-07,0.5876781940460205,0.6241300106048584,0.0175802092999219,0.5301481485366821,0.5413095355033875,0.0070988438092172,0.4809247851371765,0.48753422498703,-0.0114828944206237,0.4429460167884826,0.4407702982425689,-0.0318259187042713,0.6603128910064697,0.3842584490776062,-0.0059837019070982,0.5380167365074158,0.3487098217010498,-0.0367448553442955,0.4672412872314453,0.3806986212730407,-0.061244748532772,0.4209076166152954,0.4168157577514648,-0.0771057531237602,0.6762173175811768,0.3989800810813904,-0.0334792211651802,0.5307676196098328,0.3496496677398681,-0.0619591884315013,0.4580891728401184,0.3956177234649658,-0.0796388164162635,0.4124653935432434,0.4466820657253265,-0.0921568050980568,0.6728445887565613,0.4421355128288269,-0.0609213523566722,0.5302482843399048,0.4002386331558227,-0.0869429036974906,0.4577226936817169,0.4383434653282165,-0.0971320867538452,0.4102556109428406,0.4767822921276092,-0.103867769241333,0.6523892283439636,0.506370484828949,-0.0867723077535629,0.5383080244064331,0.4995631575584411,-0.1123145520687103,0.4732628166675567,0.5094658136367798,-0.1248669698834419,0.4244216084480285,0.5189432501792908,-0.1319458484649658
2023-08-01 16:05:48.819861,13,448,0.7094892859458923,0.1200101226568222,-0.0553889945149421,0.6922099590301514,-0.39697265625,0.8818359375,0.13232421875,0.6911858320236206,0.725355327129364,-9.187687055600692e-07,0.5824534893035889,0.6326805353164673,0.0193141028285026,0.5211878418922424,0.5464502573013306,0.0089669078588485,0.4676261246204376,0.4950555860996246,-0.0097772236913442,0.4246234893798828,0.4539909362792969,-0.0306551195681095,0.6519842147827148,0.3849483728408813,-0.0060565508902072,0.5253172516822815,0.354634165763855,-0.0366370268166065,0.454780101776123,0.3873130679130554,-0.061677124351263,0.4125781059265136,0.4244765341281891,-0.0782348066568374,0.6631367802619934,0.4020485579967499,-0.0346417129039764,0.5165303349494934,0.3558119535446167,-0.0650908276438713,0.4449562132358551,0.4045463800430298,-0.0863387882709503,0.3995990455150604,0.4570707082748413,-0.1011335253715515,0.6572175621986389,0.4476528167724609,-0.062305923551321,0.5154820084571838,0.4046889245510101,-0.0901422873139381,0.4435464143753052,0.4466675817966461,-0.1034478396177291,0.3950852751731872,0.4873089790344238,-0.1122041642665863,0.6336598992347717,0.5147380232810974,-0.0877892449498176,0.5227041840553284,0.5055050253868103,-0.1142505183815956,0.4626925587654114,0.513902485370636,-0.1279628425836563,0.4169036746025085,0.520589292049408,-0.1361529976129531
2023-08-01 16:05:48.881546,14,449,0.710845947265625,0.1116420328617096,-0.0538548380136489,0.6923393607139587,-0.4365234375,0.87548828125,0.169921875,0.6761728525161743,0.7235463261604309,-9.400840781381704e-07,0.5683777332305908,0.6305704712867737,0.0195886846631765,0.5083995461463928,0.5463312864303589,0.0094727342948317,0.4551188051700592,0.4956903755664825,-0.0093199061229825,0.4135670661926269,0.4536386132240295,-0.030182059854269,0.6399328708648682,0.3868803381919861,-0.0051520313136279,0.5135200023651123,0.356070339679718,-0.0356549844145774,0.4440181851387024,0.3960030972957611,-0.0608560591936111,0.4051384925842285,0.4392638802528381,-0.0779214352369308,0.6513318419456482,0.4017686247825622,-0.0340056121349334,0.5037309527397156,0.3549274206161499,-0.063997134566307,0.4329640865325928,0.4072816967964172,-0.0854031518101692,0.3899006843566894,0.4628376960754394,-0.1007085666060447,0.6453890800476074,0.4460671544075012,-0.0621481575071811,0.5035416483879089,0.3964328169822693,-0.0905716121196746,0.4325425624847412,0.4419096410274505,-0.1046221852302551,0.3853747844696045,0.4859810471534729,-0.1141691356897354,0.6216299533843994,0.5126065611839294,-0.0880239382386207,0.5080707669258118,0.5093210339546204,-0.1172369793057441,0.4456836283206939,0.5207210779190063,-0.133133977651596,0.398310899734497,0.5288556814193726,-0.1427849531173706
2023-08-01 16:05:48.947997,15,450,0.7121302485466003,0.1029008328914642,-0.0521589554846286,0.6925037503242493,-0.45068359375,0.87890625,0.17626953125,0.6655659675598145,0.7219935059547424,-9.01666510344512e-07,0.5572133660316467,0.6320240497589111,0.0182344168424606,0.4973836243152618,0.5483294129371643,0.0068010459654033,0.4429192543029785,0.4978418946266174,-0.0128440428525209,0.3984186053276062,0.4570819735527038,-0.0345811918377876,0.6253558993339539,0.3863956332206726,-0.0068018957972526,0.4988810420036316,0.353363573551178,-0.0375885404646396,0.4298662543296814,0.3920305967330932,-0.0630370378494262,0.392835408449173,0.4342512488365173,-0.0799922198057174,0.6373117566108704,0.401259183883667,-0.0349050089716911,0.4901218116283417,0.3511869311332702,-0.0640280991792678,0.4201500713825226,0.4019649624824524,-0.0847481563687324,0.3797526657581329,0.4561936259269714,-0.0995329022407531,0.6322606801986694,0.4453721344470978,-0.062297161668539,0.4917781054973602,0.3942747712135315,-0.08945894241333,0.4217875599861145,0.4393759965896606,-0.1023809090256691,0.3769851922988891,0.4828841090202331,-0.1111760661005973,0.6092803478240967,0.5115663409233093,-0.0875564292073249,0.4961854219436645,0.5071531534194946,-0.1151041314005851,0.4364618062973022,0.5198383927345276,-0.1293249726295471,0.3921700119972229,0.5289977788925171,-0.1377360522747039
2023-08-01 16:05:49.013824,16,451,0.7129678130149841,0.0948419496417045,-0.0507717803120613,0.6928955316543579,-0.43115234375,0.876953125,0.18701171875,0.6549963355064392,0.7229155898094177,-8.773334343459283e-07,0.5487440228462219,0.6339377164840698,0.0180985834449529,0.4869320094585418,0.5488115549087524,0.0067502502351999,0.4316194057464599,0.4962315261363983,-0.0123125445097684,0.3857160210609436,0.4561519920825958,-0.0333177372813224,0.6120244264602661,0.3839765787124634,-0.0079612685367465,0.4869637489318847,0.3518202900886535,-0.0378804132342338,0.4180393815040588,0.3840011358261108,-0.0625695660710334,0.3780937790870666,0.4185050725936889,-0.0791644677519798,0.6227198839187622,0.4007181525230407,-0.0359200052917003,0.4783554375171661,0.3505746722221374,-0.0633229315280914,0.4101163744926452,0.3970510363578796,-0.0818110108375549,0.3692943453788757,0.4469587206840515,-0.0952068418264389,0.6171366572380066,0.4467980861663818,-0.0630793944001197,0.4794549643993377,0.3986742496490478,-0.0883400663733482,0.4126427173614502,0.438754141330719,-0.0995612442493438,0.3683204054832458,0.4766933917999267,-0.1076692715287208,0.5954415202140808,0.5149845480918884,-0.0881833285093307,0.4868093729019165,0.5098317265510559,-0.1133442968130111,0.4288628101348877,0.5222055315971375,-0.1254218518733978,0.3845842778682709,0.5310066342353821,-0.132678285241127
2023-08-01 16:05:49.070718,17,452,0.7127920985221863,0.0909381508827209,-0.0502515248954296,0.6936371326446533,-0.40234375,0.88720703125,0.18310546875,0.6049567461013794,0.7190537452697754,-7.884266892688174e-07,0.4981308877468109,0.6454362869262695,0.018711170181632,0.4364335834980011,0.5661485195159912,0.00815593264997,0.3758627772331238,0.5235360860824585,-0.0096904430538415,0.3206565976142883,0.5000180602073669,-0.0303342845290899,0.5526263117790222,0.3925079107284546,-0.0089939087629318,0.4239742755889892,0.3562398254871368,-0.0337035246193409,0.3552045822143554,0.3974755406379699,-0.0535113327205181,0.318271666765213,0.4411658048629761,-0.0669022649526596,0.5582515597343445,0.4073250293731689,-0.0344237573444843,0.4104049205780029,0.3550467491149902,-0.0543610975146293,0.3413742184638977,0.3999001979827881,-0.0669927597045898,0.3002568185329437,0.4492319226264953,-0.0782822221517562,0.5471982359886169,0.4531726241111755,-0.0588594526052475,0.4059991240501404,0.405521810054779,-0.0773292109370231,0.3371574282646179,0.4417878091335296,-0.0856346786022186,0.2924695014953613,0.4781090915203094,-0.0936319977045059,0.5233839154243469,0.5194636583328247,-0.0812986567616462,0.4170380234718323,0.5052760243415833,-0.1011473089456558,0.3574761152267456,0.5160147547721863,-0.1113393828272819,0.3116124272346496,0.5251249074935913,-0.1185768693685531
2023-08-01 16:05:49.132962,18,453,0.7117608189582825,0.0847401171922683,-0.0487822629511356,0.6955832839012146,-0.36181640625,0.87548828125,0.20654296875,0.5878188610076904,0.7096070647239685,-8.47375474677392e-07,0.484912246465683,0.6349600553512573,0.020136509090662,0.4184890389442444,0.5582378506660461,0.0088837184011936,0.352845549583435,0.5137526988983154,-0.0100661581382155,0.2959577739238739,0.4856062531471252,-0.0309982225298881,0.5399025678634644,0.3855800032615661,-0.0131075792014598,0.4084540605545044,0.3478213250637054,-0.0390805192291736,0.3406659960746765,0.385666161775589,-0.0581462085247039,0.3067590594291687,0.4269581437110901,-0.071155659854412,0.5465100407600403,0.4030886888504028,-0.0402033254504203,0.3949415683746338,0.3524621427059173,-0.0636138245463371,0.3282604515552521,0.3958092629909515,-0.0774418711662292,0.2889800667762756,0.445279985666275,-0.0893742069602012,0.5370165109634399,0.4500000178813934,-0.0657813847064971,0.3919135630130768,0.4050143361091614,-0.0875585153698921,0.3247332870960235,0.443250447511673,-0.0948079228401184,0.2803915143013,0.4809896349906921,-0.1019139364361763,0.511343240737915,0.5175642967224121,-0.0891730710864067,0.4044961929321289,0.5087188482284546,-0.1132763475179672,0.3436262607574463,0.5155539512634277,-0.1253063082695007,0.2952682673931122,0.5194301605224609,-0.1336189210414886
2023-08-01 16:05:49.193110,19,454,0.7118101119995117,0.0811357870697975,-0.045859444886446,0.6961610913276672,-0.3671875,0.8740234375,0.1484375,0.5606951117515564,0.7073683142662048,-8.956961323747237e-07,0.4508141875267029,0.6250938177108765,0.0226409807801246,0.3846345543861389,0.5489636063575745,0.0145805338397622,0.3225107192993164,0.5049485564231873,-0.0015680245123803,0.2732413411140442,0.4734193086624145,-0.0192826129496097,0.5116983652114868,0.3780679106712341,-0.0080295763909816,0.3747762739658355,0.3485698103904724,-0.0305418223142623,0.3077361285686493,0.3956911861896515,-0.0460844412446022,0.2757869362831116,0.4394632279872894,-0.0568075403571128,0.5179369449615479,0.3943848609924316,-0.0349669940769672,0.3612762987613678,0.3508742451667785,-0.0570446141064167,0.2940439879894256,0.4005824029445648,-0.0698462724685669,0.2559597194194793,0.4530149102210998,-0.0806224197149276,0.5070940256118774,0.4388009309768677,-0.0601175464689731,0.3580851852893829,0.4038536548614502,-0.0800478756427764,0.2904301881790161,0.4449431598186493,-0.0882155299186706,0.2468462884426117,0.4834955334663391,-0.0959147214889526,0.4814257621765136,0.504144012928009,-0.0829253643751144,0.3712927997112274,0.4992063045501709,-0.105796992778778,0.3093813061714172,0.5113410949707031,-0.1187218129634857,0.2601087689399719,0.520423173904419,-0.1274880319833755
2023-08-01 16:05:49.259290,20,455,0.7140438556671143,0.0780851915478706,-0.0392657779157161,0.6946238279342651,-0.43505859375,0.8955078125,0.13134765625,0.5514794588088989,0.7016584277153015,-9.223866754837218e-07,0.4485785961151123,0.6239696741104126,0.0260407589375972,0.3835146129131317,0.5543729662895203,0.0172618348151445,0.3190698623657226,0.5170934200286865,-0.0002920744300354,0.2661091387271881,0.4922484159469604,-0.020383546128869,0.5055351853370667,0.3801546990871429,-0.0112070543691515,0.36919105052948,0.349233865737915,-0.0326739996671676,0.3029844164848327,0.3971486091613769,-0.047629103064537,0.2707552313804626,0.4462911188602447,-0.0579896047711372,0.508852481842041,0.3930168747901916,-0.0393967889249324,0.353935956954956,0.3459141552448272,-0.059530284255743,0.2881390452384949,0.3959784805774688,-0.0710907280445098,0.2520588934421539,0.4540182948112488,-0.0817966535687446,0.4962815642356872,0.4375783205032348,-0.0646610110998153,0.3480094075202942,0.3995480239391327,-0.0813808888196945,0.2840628623962402,0.4423674046993255,-0.0868333056569099,0.2453020215034485,0.4854426383972168,-0.0939185917377471,0.468627780675888,0.5027332901954651,-0.0872136130928993,0.3550734519958496,0.4941811561584472,-0.1076200231909751,0.2942896485328674,0.5082657337188721,-0.1173654049634933,0.2492501735687255,0.5213615894317627,-0.124395877122879
2023-08-01 16:05:49.315673,21,456,0.7149592638015747,0.0758504867553711,-0.0377992391586303,0.694010853767395,-0.44775390625,0.8828125,0.18212890625,0.5465414524078369,0.7011008858680725,-9.214843430527252e-07,0.4408134222030639,0.6193640828132629,0.0277188699692487,0.3742240071296692,0.5475992560386658,0.0194021724164485,0.3098736405372619,0.5075985193252563,0.002333115786314,0.259282112121582,0.4793851673603058,-0.0169198457151651,0.5005122423171997,0.3754177093505859,-0.008668259717524,0.3650263249874115,0.3476499915122986,-0.0279225539416074,0.2988818883895874,0.3944191932678222,-0.0417022928595542,0.2643948197364807,0.4436601102352142,-0.051453411579132,0.5032469630241394,0.3881723880767822,-0.037172757089138,0.3489088416099548,0.3424297571182251,-0.0543112307786941,0.2833127975463867,0.392694354057312,-0.0648393854498863,0.2465808689594268,0.4512797594070434,-0.0753481537103653,0.4894930720329284,0.431610643863678,-0.0623848959803581,0.3423580229282379,0.3906872570514679,-0.0768133550882339,0.2798523008823395,0.4348743259906769,-0.0814238637685775,0.2420572787523269,0.4810473322868347,-0.0882927775382995,0.4596891701221466,0.4968884289264679,-0.0847804471850395,0.3439604938030243,0.4920356571674347,-0.103704035282135,0.2851728498935699,0.50907963514328,-0.112490564584732,0.2422831654548645,0.5262366533279419,-0.1189209520816803
2023-08-01 16:05:49.379714,22,457,0.7150631546974182,0.0721135661005973,-0.0373496375977993,0.6943264603614807,-0.45947265625,0.85546875,0.17822265625,0.5398147106170654,0.6978030204772949,-9.343547162643516e-07,0.43511763215065,0.6162969470024109,0.0279047470539808,0.3709270358085632,0.5465816259384155,0.0194614604115486,0.3069789111614227,0.5088116526603699,0.0019904761575162,0.2545159459114074,0.4859339892864227,-0.0184314753860235,0.4932809472084045,0.3748975992202759,-0.0098290536552667,0.3582695722579956,0.3459279537200928,-0.0302810743451118,0.2913486659526825,0.3936986923217773,-0.0455108024179935,0.2561428546905517,0.443057656288147,-0.0563964284956455,0.4968382716178894,0.3871815800666809,-0.0385905429720878,0.3407290279865265,0.3431280851364136,-0.0573379397392272,0.274896502494812,0.3948002159595489,-0.0700529143214225,0.2383698225021362,0.4532680809497833,-0.0824320092797279,0.4841823577880859,0.4311070740222931,-0.0639187470078468,0.3351451158523559,0.3910597562789917,-0.0797911807894706,0.2717055678367615,0.4357043504714966,-0.0859853625297546,0.2334441691637039,0.482004702091217,-0.0940035656094551,0.4556726813316345,0.4964115023612976,-0.0862733051180839,0.3402209281921386,0.4886762499809265,-0.1062916368246078,0.2814594507217407,0.5043222308158875,-0.115800991654396,0.2389321476221084,0.5203080773353577,-0.1229256093502044
2023-08-01 16:05:49.447218,23,458,0.7142062187194824,0.068770095705986,-0.0366229973733425,0.6955852508544922,-0.41259765625,0.87109375,0.162109375,0.5183413028717041,0.7011711597442627,-9.265029916605272e-07,0.4111019670963287,0.6179825067520142,0.0323981456458568,0.3479394316673279,0.5438023805618286,0.0295450761914253,0.2854394912719726,0.5028698444366455,0.0174115039408206,0.2352272868156433,0.4786619544029236,0.0025264753494411,0.4654010832309723,0.3747293949127197,-0.00147218152415,0.3280668258666992,0.3464899659156799,-0.0170760564506053,0.260916531085968,0.3958016037940979,-0.0284630786627531,0.2265270948410034,0.4443249702453613,-0.0364146456122398,0.4674950838088989,0.3856716454029083,-0.0305068269371986,0.3134981095790863,0.3406391441822052,-0.0434067957103252,0.2450405806303024,0.3898499608039856,-0.051447719335556,0.2064025253057479,0.4464650452136993,-0.0599307604134082,0.4539000391960144,0.4277266263961792,-0.0559848695993423,0.3042711317539215,0.3899188339710235,-0.0668725594878196,0.2389408200979232,0.430644154548645,-0.0710121169686317,0.1993607729673385,0.4719487428665161,-0.0775521695613861,0.4240834414958954,0.4932730495929718,-0.078334242105484,0.3071237206459045,0.4864498674869537,-0.0935418158769607,0.2467203438282013,0.5033305883407593,-0.1002451851963996,0.203602448105812,0.5193852186203003,-0.1053128987550735
2023-08-01 16:05:49.504203,24,459,0.7137562036514282,0.0669998005032539,-0.0385818444192409,0.6961138248443604,-0.41455078125,0.86376953125,0.154296875,0.5183050036430359,0.7015736103057861,-9.404689649272768e-07,0.4117688536643982,0.6181364059448242,0.0378660634160041,0.3470050394535064,0.5440738201141357,0.0356699489057064,0.2824063003063202,0.5050624012947083,0.0229797940701246,0.2289469838142395,0.4855757653713226,0.0070681977085769,0.4627758860588074,0.3708199858665466,0.0014220064040273,0.3226151168346405,0.341671347618103,-0.0121412416920065,0.2552355527877807,0.3884218335151672,-0.0225612577050924,0.2189863473176956,0.435236394405365,-0.0301447808742523,0.4645484983921051,0.3810515403747558,-0.0293937567621469,0.3077189326286316,0.3379936814308166,-0.0384450815618038,0.2422634363174438,0.3869830965995788,-0.0448883175849914,0.20555280148983,0.4419274628162384,-0.0539027564227581,0.4501504600048065,0.425165593624115,-0.0558644570410251,0.2989177107810974,0.3839221000671386,-0.0632213279604911,0.2373016923666,0.4277950525283813,-0.0649559199810028,0.1996161192655563,0.4719898998737335,-0.0713661089539527,0.4176852107048034,0.4945777952671051,-0.0787560120224952,0.3008494973182678,0.4878587126731872,-0.0924057066440582,0.2445929199457168,0.5042352080345154,-0.0979381874203682,0.2045915424823761,0.5207746624946594,-0.1028338521718978
2023-08-01 16:05:49.582798,25,460,0.7134274244308472,0.0662285163998603,-0.0400512665510177,0.696441650390625,-0.41650390625,0.88330078125,0.1943359375,0.5125678777694702,0.6958894729614258,-9.671332463767612e-07,0.4087196886539459,0.6114466190338135,0.0426253154873847,0.3454093635082245,0.5401046276092529,0.0419010706245899,0.281530499458313,0.4995520710945129,0.029755188152194,0.2286732792854309,0.4802322685718536,0.0138513930141925,0.460398256778717,0.3672987818717956,0.0056609865278005,0.3191045522689819,0.3388045132160187,-0.0059863245114684,0.2526112794876098,0.3860238790512085,-0.0149158062413334,0.2181039601564407,0.4327979981899261,-0.0213761236518621,0.4610587954521179,0.3778568506240845,-0.0267347041517496,0.303329586982727,0.3373176455497741,-0.0329214036464691,0.2386394143104553,0.3876622021198272,-0.0378175489604473,0.2042575478553772,0.4426862895488739,-0.0461974777281284,0.4459733068943023,0.4223900735378265,-0.0544232204556465,0.2944808602333069,0.3795666098594665,-0.0598227381706237,0.2333722412586212,0.4251198768615722,-0.0604008063673973,0.1981183737516403,0.4701234698295593,-0.0663403421640396,0.413205087184906,0.4920868873596191,-0.0780630782246589,0.2952881455421448,0.4847842454910278,-0.0898316279053688,0.2400948107242584,0.5018908381462097,-0.0940704122185707,0.2024099826812744,0.517269492149353,-0.0982113778591156
2023-08-01 16:05:49.671628,26,461,0.7127755284309387,0.069151185452938,-0.0423764698207378,0.6966874599456787,-0.4208984375,0.8720703125,0.181640625,0.5023241639137268,0.6905222535133362,-9.55752966547152e-07,0.4001251459121704,0.6109288334846497,0.0359726175665855,0.3384980261325836,0.5382082462310791,0.0350955128669738,0.2767231464385986,0.4980782270431518,0.0244187545031309,0.2256182581186294,0.4798454642295837,0.0102199790999293,0.4529138505458832,0.3673655986785888,0.0032416814938187,0.3124222159385681,0.3411411046981811,-0.0102443397045135,0.244727611541748,0.3890590965747833,-0.0209109652787446,0.2109073102474212,0.4357474744319916,-0.0287900082767009,0.4513784646987915,0.3750909566879272,-0.0260625779628753,0.2966141700744629,0.3306055665016174,-0.0365293622016906,0.2326461374759674,0.3847194612026214,-0.0441564172506332,0.1993418186903,0.4415355324745178,-0.0530364960432052,0.4350480437278747,0.4168371260166168,-0.0514139607548713,0.2878437042236328,0.371019035577774,-0.0620073527097702,0.2265970408916473,0.420765221118927,-0.0664890110492706,0.1906008422374725,0.4664178788661957,-0.0735905319452285,0.4023917317390442,0.4842254221439361,-0.0729951933026313,0.2886750996112823,0.4802171587944031,-0.0894106477499008,0.2313987016677856,0.4988472461700439,-0.0973902568221092,0.190144881606102,0.5123853087425232,-0.1035915687680244
2023-08-01 16:05:49.739501,27,462,0.7122213244438171,0.0726253539323806,-0.0427574329078197,0.6968773007392883,-0.435546875,0.88525390625,0.19384765625,0.5051195025444031,0.6918354630470276,-9.844225132837892e-07,0.4027087688446045,0.6102584600448608,0.0390711016952991,0.3404842615127563,0.5375792980194092,0.0385948866605758,0.2791994214057922,0.496759831905365,0.0273750275373458,0.2281887978315353,0.4765153527259826,0.0123798595741391,0.4529294073581695,0.3632451295852661,0.0068708849139511,0.3143824636936188,0.3391451835632324,-0.007983730174601,0.2475622594356537,0.3878495395183563,-0.0210099555552005,0.2136154472827911,0.4370023608207702,-0.0301753096282482,0.4520833492279053,0.3735645115375519,-0.0245313141494989,0.2969034910202026,0.3300761878490448,-0.034753356128931,0.2323709428310394,0.3836389482021332,-0.0429620444774627,0.19853575527668,0.4425356984138489,-0.0522738620638847,0.4374889731407165,0.4181933999061584,-0.0520291551947593,0.289701908826828,0.3720100522041321,-0.0610525347292423,0.2282527685165405,0.4199834167957306,-0.0642297491431236,0.1922793388366699,0.4659790992736816,-0.070703737437725,0.4064072072505951,0.4888616800308227,-0.0757945701479911,0.2910162508487701,0.4826315343379974,-0.0901922881603241,0.2348340004682541,0.499458372592926,-0.0963160768151283,0.195154994726181,0.51298588514328,-0.1012523472309112
2023-08-01 16:05:49.818657,28,463,0.7108984589576721,0.0777007713913917,-0.0449995845556259,0.697539210319519,-0.4404296875,0.8828125,0.189453125,0.505423903465271,0.6926434636116028,-9.985262749978574e-07,0.4046375751495361,0.615315318107605,0.0395020619034767,0.3442611396312713,0.5442623496055603,0.0391409844160079,0.2831553220748901,0.5031417608261108,0.0280782952904701,0.2311681360006332,0.4844530820846557,0.013054234907031,0.4542610347270965,0.3640445470809936,0.0061571542173624,0.3148665130138397,0.3386102616786957,-0.0088589852675795,0.2470128238201141,0.3872807025909424,-0.0219673570245504,0.2131562680006027,0.4365255236625671,-0.0312173701822757,0.4528087377548218,0.3736888170242309,-0.0250883623957633,0.2971376478672027,0.3300526440143585,-0.03517422452569,0.232306882739067,0.3836073279380798,-0.0434076227247715,0.1982650756835937,0.4424850046634674,-0.0529577545821666,0.4377046823501587,0.4178360104560852,-0.052305843681097,0.2894929051399231,0.3722861707210541,-0.0613304153084754,0.2280756086111068,0.4204101264476776,-0.0648504570126533,0.1918419152498245,0.4667089879512787,-0.0717822760343551,0.4063788056373596,0.4879365563392639,-0.0757355764508247,0.2915294170379638,0.4827665984630584,-0.0902132093906402,0.2347330451011657,0.5000434517860413,-0.0968738496303558,0.193882405757904,0.51399827003479,-0.1024164780974388
2023-08-01 16:05:49.884788,29,464,0.7094566226005554,0.0826543420553207,-0.0476980321109294,0.6982582211494446,-0.4130859375,0.8671875,0.173828125,0.5161106586456299,0.6822375059127808,-9.50517176079302e-07,0.409271776676178,0.6003738045692444,0.0342175662517547,0.3468066751956939,0.5292568206787109,0.0292036868631839,0.2881127595901489,0.4905554056167602,0.0140052009373903,0.2404703795909881,0.4654704332351684,-0.0048159533180296,0.4706773161888122,0.3571475446224212,-0.0038928962312638,0.3349412977695465,0.3301454782485962,-0.0221195612102746,0.2672489881515503,0.3776997923851013,-0.0367623791098594,0.2322403341531753,0.4252317547798157,-0.0477096587419509,0.471636563539505,0.3687352240085602,-0.035046674311161,0.3186691403388977,0.3230627179145813,-0.0498098693788051,0.2527005970478058,0.3738924264907837,-0.0606047883629798,0.2164187133312225,0.4291950464248657,-0.0724884793162345,0.456822007894516,0.4134442806243896,-0.0623188018798828,0.3102909624576568,0.3640648424625397,-0.0761329606175422,0.2469358444213867,0.4095132052898407,-0.080940842628479,0.2089222520589828,0.4556348621845245,-0.0887070521712303,0.4265842735767364,0.4811146259307861,-0.0860743522644043,0.3109291493892669,0.4729116261005401,-0.1052710264921188,0.2515365183353424,0.4915244579315185,-0.1137028262019157,0.2091980874538421,0.50780189037323,-0.1203968524932861
2023-08-01 16:05:49.950034,30,465,0.7077165842056274,0.0890051871538162,-0.0510458871722221,0.6990061402320862,-0.38427734375,0.876953125,0.181640625,0.5228525400161743,0.6836572885513306,-9.615547469365993e-07,0.4197255671024322,0.5990746021270752,0.0339400470256805,0.3535991609096527,0.5285751819610596,0.0273304190486669,0.289291650056839,0.4908565878868103,0.0107665974646806,0.2382550537586212,0.4672372043132782,-0.0092750787734985,0.4766597747802734,0.3578310310840606,-0.0059186001308262,0.3361934721469879,0.3313095569610595,-0.0243553016334772,0.2698070108890533,0.3793303370475769,-0.0390906147658824,0.2347141504287719,0.4274686276912689,-0.0497264042496681,0.4768056869506836,0.3705179095268249,-0.0366725921630859,0.3194566071033478,0.3255797028541565,-0.0514445044100284,0.2542840242385864,0.3764281868934631,-0.0624020285904407,0.2168780267238617,0.4341156482696533,-0.0741526409983635,0.4615806043148041,0.4148808419704437,-0.0630166456103324,0.3140865564346313,0.3688255548477173,-0.0738061517477035,0.2522023618221283,0.4135127961635589,-0.0772316753864288,0.2136690616607666,0.4589388370513916,-0.0844453200697898,0.4300706088542938,0.480682909488678,-0.0860455334186554,0.3145328164100647,0.4708904922008514,-0.1026084348559379,0.2579144537448883,0.4871690273284912,-0.1094900444149971,0.2172004729509353,0.5022615790367126,-0.1150020956993103
2023-08-01 16:05:50.003999,31,466,0.7064476609230042,0.0941880494356155,-0.0530846193432807,0.6994585990905762,-0.380859375,0.88134765625,0.1787109375,0.5468682646751404,0.6758918166160583,-1.0107593197972164e-06,0.445222944021225,0.60016268491745,0.0266681350767612,0.3804777860641479,0.5241224765777588,0.0194804314523935,0.3198680877685547,0.4800940752029419,0.0032528843730688,0.2680116891860962,0.4544638395309448,-0.0150217246264219,0.5028824806213379,0.3499858379364013,-0.0099706994369626,0.3702979981899261,0.3128136992454529,-0.0357147455215454,0.3021285533905029,0.358313649892807,-0.0529789924621582,0.2670116424560547,0.4065558314323425,-0.0647153407335281,0.5067560076713562,0.3646854758262634,-0.0394226759672164,0.3520768284797668,0.3159546256065368,-0.0627447888255119,0.2849495112895965,0.3665053844451904,-0.0737669318914413,0.2477287203073501,0.4207343757152557,-0.0838430449366569,0.4938642084598541,0.4093992412090301,-0.0670085549354553,0.3472235798835754,0.3623063266277313,-0.0897201821208,0.2827389538288116,0.4060893952846527,-0.0947014093399047,0.24302938580513,0.447215735912323,-0.100256398320198,0.4674990177154541,0.4749610126018524,-0.0917919725179672,0.3585318624973297,0.4601044654846191,-0.1202749758958816,0.2967458367347717,0.4737512171268463,-0.1333655714988708,0.250504732131958,0.4850103855133056,-0.1416536420583725
2023-08-01 16:05:50.065724,32,467,0.7053441405296326,0.100654236972332,-0.0543744228780269,0.6995725631713867,-0.38037109375,0.8828125,0.15771484375,0.5541678667068481,0.669377863407135,-9.541871577312122e-07,0.4505170881748199,0.5922271609306335,0.0257487408816814,0.3871047794818878,0.5176023244857788,0.0182100962847471,0.330203503370285,0.4743543565273285,0.0016475981101393,0.2828111052513122,0.4462454915046692,-0.01727114059031,0.5094889998435974,0.3430497050285339,-0.0097313821315765,0.3790023326873779,0.304255723953247,-0.0349036715924739,0.3121746182441711,0.3497664928436279,-0.0528561994433403,0.2776327133178711,0.3981456458568573,-0.0646876096725463,0.5126503109931946,0.3605873882770538,-0.037423126399517,0.3601446747779846,0.3182918131351471,-0.0588317885994911,0.2939187884330749,0.3668408393859863,-0.0712993741035461,0.2566512525081634,0.4184169769287109,-0.0829861909151077,0.4998123049736023,0.4072801470756531,-0.063072919845581,0.3527140617370605,0.3716462254524231,-0.0834926590323448,0.2895383238792419,0.4131831526756286,-0.0898060500621795,0.2505345642566681,0.4524287283420563,-0.0967358276247978,0.4728826582431793,0.4731420874595642,-0.086025595664978,0.3624931275844574,0.4590497612953186,-0.1097604259848594,0.3014761805534363,0.4683185517787933,-0.1206778213381767,0.256235808134079,0.4745782315731048,-0.1280686855316162
2023-08-01 16:05:50.126179,33,468,0.7045015096664429,0.1075754761695861,-0.0555747672915458,0.6992972493171692,-0.392578125,0.8779296875,0.1708984375,0.5593169927597046,0.6688650846481323,-9.96070866676746e-07,0.4609268307685852,0.5913660526275635,0.0267522297799587,0.3980853855609894,0.5201281309127808,0.0189745258539915,0.3400270938873291,0.4788424968719482,0.001907781464979,0.2918200492858886,0.4491925537586212,-0.01753262989223,0.5209274291992188,0.3468385934829712,-0.0085879359394311,0.3960848450660705,0.3016578555107116,-0.0350993648171424,0.3271705508232116,0.3385173678398132,-0.0545104332268238,0.2906822562217712,0.38297238945961,-0.0671748593449592,0.522712767124176,0.3645486831665039,-0.037567276507616,0.372657835483551,0.315527081489563,-0.0615333952009677,0.3048298358917236,0.3657827377319336,-0.0750962644815445,0.2680958807468414,0.4225769937038421,-0.0866318792104721,0.5091302990913391,0.4098073542118072,-0.064562976360321,0.3633309602737427,0.3756662607192993,-0.0852605178952217,0.3059432506561279,0.4220500290393829,-0.0911516919732093,0.2737318277359009,0.4657646417617798,-0.0977112799882888,0.483225405216217,0.473439484834671,-0.089045949280262,0.37314572930336,0.4594166278839111,-0.1129130125045776,0.3114007115364074,0.4664147794246673,-0.1243662312626838,0.2661095857620239,0.4700607657432556,-0.1323937773704528
2023-08-01 16:05:50.189052,34,469,0.7038443684577942,0.1148113459348678,-0.0589467659592628,0.6985318660736084,-0.40478515625,0.876953125,0.185546875,0.5729641318321228,0.6707568168640137,-9.430315230929408e-07,0.4760015308856964,0.5968279838562012,0.0268108434975147,0.4148973226547241,0.5230837464332581,0.0200284998863935,0.3571562170982361,0.4805172383785248,0.0041744769550859,0.3080259561538696,0.4509035646915436,-0.0143041238188743,0.5308071374893188,0.3479671478271484,-0.0071958699263632,0.4048755168914795,0.3034341633319855,-0.0321848653256893,0.3368030488491058,0.3395817577838897,-0.0510209389030933,0.301161378622055,0.3829466998577118,-0.0632517337799072,0.5318663120269775,0.364289253950119,-0.0351721011102199,0.3862890005111694,0.3130882084369659,-0.0554219931364059,0.3186639249324798,0.3586779534816742,-0.0673961639404296,0.2808166742324829,0.4120882451534271,-0.078440360724926,0.5175235867500305,0.4095427989959717,-0.0611219853162765,0.3758787214756012,0.3664433360099792,-0.0792350023984909,0.3133431673049927,0.4085668623447418,-0.0847681835293769,0.2759912014007568,0.450642317533493,-0.0914825275540351,0.4893196523189544,0.4744592607021332,-0.0845078378915786,0.3836379945278168,0.4581372737884521,-0.1055027768015861,0.3246481716632843,0.463787704706192,-0.1156822443008422,0.2811628580093384,0.4672427177429199,-0.1231179907917976
2023-08-01 16:05:50.251504,35,470,0.7030014395713806,0.1241252794861793,-0.0638670399785041,0.6973541975021362,-0.36767578125,0.88525390625,0.19189453125,0.6179238557815552,0.6801860332489014,-8.868164513842203e-07,0.5155839323997498,0.6073346734046936,0.0174703132361173,0.4491434395313263,0.5205036997795105,0.005307235289365,0.3901379108428955,0.4692753553390503,-0.0148504134267568,0.3388718366622925,0.4361913204193115,-0.0364070199429988,0.5656383037567139,0.3488771021366119,-0.0144903445616364,0.440422385931015,0.2932992577552795,-0.0493336468935012,0.3665971755981445,0.3192870616912842,-0.0750881358981132,0.3224878311157226,0.3595575392246246,-0.0903754383325576,0.5756121873855591,0.3634381294250488,-0.0417353548109531,0.4274875223636627,0.2994792461395263,-0.0712508410215377,0.3555164933204651,0.3396546840667724,-0.0881325751543045,0.3146203160285949,0.3899621963500976,-0.1000224202871322,0.569541871547699,0.4070550203323364,-0.0683864504098892,0.4287134110927582,0.3467447459697723,-0.0930949449539184,0.3590479791164398,0.3853784203529358,-0.1003306284546852,0.3163567185401916,0.4276341497898102,-0.1055177450180053,0.5464324951171875,0.4727459549903869,-0.0934013575315475,0.440747857093811,0.4526342153549194,-0.1166445910930633,0.3800604045391083,0.4615096747875213,-0.12651227414608,0.3353490829467773,0.4705324470996856,-0.1321211606264114
2023-08-01 16:05:50.317202,36,471,0.7020542621612549,0.1345703303813934,-0.0672149881720542,0.6960551738739014,-0.41552734375,0.89892578125,0.15380859375,0.6300431489944458,0.6827329993247986,-8.974147931439802e-07,0.5224792957305908,0.6008298993110657,0.020243227481842,0.4595946073532104,0.5117167830467224,0.0098318355157971,0.4062032997608185,0.4560481607913971,-0.0089486874639987,0.3616374433040619,0.4168758988380432,-0.0294822733849287,0.5810990929603577,0.3422922194004059,-0.009571555070579,0.4495524764060974,0.291743516921997,-0.0429794713854789,0.3747047185897827,0.3192673921585083,-0.0684712156653404,0.3322527110576629,0.358905017375946,-0.083597794175148,0.5903929471969604,0.3572561144828796,-0.037229549139738,0.4410386085510254,0.2957827746868133,-0.0650289952754974,0.36687171459198,0.3361599445343017,-0.0828595757484436,0.3251630663871765,0.3836672604084015,-0.0961432158946991,0.5839163661003113,0.4011480808258056,-0.0639945045113563,0.4443793594837188,0.3420123159885406,-0.0895782560110092,0.3730655014514923,0.3822658360004425,-0.0996312573552131,0.3294170796871185,0.4245818257331848,-0.1066219210624694,0.5611108541488647,0.4666516780853271,-0.0884948000311851,0.4547968506813049,0.4470255672931671,-0.1116741374135017,0.3948171734809875,0.4596548080444336,-0.121880330145359,0.3506299257278442,0.4708515405654907,-0.1278491020202636
2023-08-01 16:05:50.376846,37,472,0.7005086541175842,0.1444130837917328,-0.0705275312066078,0.6953117251396179,-0.36181640625,0.89599609375,0.150390625,0.6401864886283875,0.687497079372406,-8.91458626028907e-07,0.5369845032691956,0.5994554758071899,0.0261200312525033,0.473607987165451,0.5150265097618103,0.017077263444662,0.4154779314994812,0.4646957814693451,-0.0018704258836805,0.3677617311477661,0.4278524219989776,-0.0232630521059036,0.596549391746521,0.3479505479335785,-0.0023495224304497,0.4666519165039062,0.3008112907409668,-0.0323063731193542,0.3915028274059295,0.317108154296875,-0.0565805323421955,0.3441993594169616,0.3452158570289612,-0.071734145283699,0.6032581925392151,0.3643417954444885,-0.0327427200973033,0.454345166683197,0.3048765659332275,-0.0571928136050701,0.3824471235275268,0.3385462462902069,-0.0741849914193153,0.3376648426055908,0.3806591629981994,-0.0877087265253067,0.5950098037719727,0.4078216552734375,-0.0616731867194175,0.4542271196842193,0.3539563715457916,-0.0835457071661949,0.3846140503883362,0.3876709043979645,-0.0919074267148971,0.3388301730155945,0.424150288105011,-0.0987472161650657,0.571687638759613,0.4708108305931091,-0.0881960019469261,0.4643605649471283,0.4532338976860046,-0.1085152402520179,0.4041146636009216,0.462583988904953,-0.1172547787427902,0.357747882604599,0.4723029136657715,-0.1227327510714531
2023-08-01 16:05:50.439093,38,473,0.6984800696372986,0.1530865430831909,-0.0740440264344215,0.695131242275238,-0.341796875,0.90869140625,0.125,0.6919859647750854,0.6845979690551758,-1.0164451396121876e-06,0.5840547680854797,0.5891710519790649,0.021822465583682,0.520104706287384,0.5064111351966858,0.0109697133302688,0.4617362916469574,0.4598581194877624,-0.0094914380460977,0.4141491651535034,0.4221428632736206,-0.0322604998946189,0.6484192609786987,0.3451035618782043,-0.0041625713929533,0.5223103761672974,0.3079404234886169,-0.0377960391342639,0.4519035518169403,0.3429482281208038,-0.0650092512369155,0.4139580428600311,0.3822218775749206,-0.0826900377869606,0.6625118255615234,0.3585821390151977,-0.0346163436770439,0.5171390175819397,0.3054807186126709,-0.0665171891450882,0.447384774684906,0.3540381789207458,-0.088620088994503,0.4073605537414551,0.4060829281806946,-0.1039463952183723,0.6596214771270752,0.4011999368667602,-0.064422994852066,0.5203038454055786,0.3514755368232727,-0.0930493995547294,0.4482836425304413,0.3910533189773559,-0.1056224256753921,0.4021994769573211,0.4321317374706268,-0.1137387529015541,0.6402109861373901,0.4659788310527801,-0.0918748006224632,0.5291754603385925,0.4531972408294678,-0.1178654357790947,0.4657735526561737,0.4625199437141418,-0.1304198503494262,0.4170555174350738,0.4699299037456512,-0.137782871723175
2023-08-01 16:05:50.497246,39,474,0.6967007517814636,0.1605811119079589,-0.0782554894685745,0.6947646141052246,-0.39013671875,0.90576171875,0.10205078125,0.7125539779663086,0.6725172996520996,-9.45725957990362e-07,0.6075697541236877,0.587083101272583,0.0235355570912361,0.543582558631897,0.5087922215461731,0.0144487340003252,0.4875128865242004,0.4657693803310394,-0.0044899936765432,0.442945122718811,0.4320065081119537,-0.0258666649460792,0.6612533330917358,0.3422080874443054,0.0013963622041046,0.5400737524032593,0.3109910190105438,-0.0285165216773748,0.472872257232666,0.348088800907135,-0.0544301159679889,0.4350423216819763,0.3884075582027435,-0.0717292129993438,0.6736888289451599,0.354979008436203,-0.0293202977627515,0.535133957862854,0.3053364753723144,-0.0568263716995716,0.467177540063858,0.3508059382438659,-0.0780108869075775,0.4248195290565491,0.3968636095523834,-0.0937803462147712,0.67083340883255,0.3975710570812225,-0.0592404417693614,0.5379604697227478,0.3519563972949981,-0.0841893479228019,0.4688202142715454,0.388519674539566,-0.0962623357772827,0.4223286807537079,0.4227811992168426,-0.1053688824176788,0.6530172824859619,0.4623212218284607,-0.0867501497268676,0.5408316850662231,0.451930433511734,-0.1094321906566619,0.4791277050971985,0.4637183248996734,-0.1199212968349456,0.4315364360809326,0.4698634445667267,-0.1268755793571472
2023-08-01 16:05:50.560950,40,475,0.6952590346336365,0.1672113239765167,-0.0837314575910568,0.6940059661865234,-0.3994140625,0.88720703125,0.1552734375,0.7206974029541016,0.6612898707389832,-9.099339308704656e-07,0.6152989268302917,0.5774187445640564,0.0190903227776289,0.5505964756011963,0.5015522241592407,0.0081245210021734,0.4951591789722442,0.4588017463684082,-0.0114876851439476,0.4533417224884033,0.42267507314682,-0.0331454500555992,0.6756271123886108,0.3354648947715759,-0.0023252987302839,0.5552616119384766,0.3105917572975158,-0.0320603251457214,0.4873881638050079,0.3453571200370788,-0.0587127581238746,0.4465482831001282,0.3822771608829498,-0.0767343789339065,0.6876407265663147,0.3480948507785797,-0.0303968209773302,0.5506182909011841,0.3060790300369262,-0.0568472407758235,0.4816130101680755,0.3501550257205963,-0.0779960677027702,0.437112033367157,0.3956720232963562,-0.0941420495510101,0.6843929290771484,0.3899680972099304,-0.0578046850860118,0.5531860589981079,0.3458360433578491,-0.0826254934072494,0.4837257266044616,0.3820409774780273,-0.0938562378287315,0.4365043342113495,0.4177377820014953,-0.1021997854113578,0.6658951640129089,0.455042153596878,-0.0831153467297554,0.5546557307243347,0.4475397169589996,-0.1064713597297668,0.4932106137275696,0.4598319232463836,-0.1160746738314628,0.44637531042099,0.4673786759376526,-0.1218020394444465
2023-08-01 16:05:50.624899,41,476,0.693401038646698,0.1760713905096054,-0.0874093025922775,0.6932195425033569,-0.36572265625,0.8837890625,0.1728515625,0.7307978272438049,0.6680064797401428,-9.055406735569704e-07,0.6289075613021851,0.587988555431366,0.0183989498764276,0.5655628442764282,0.5122961401939392,0.0076347179710865,0.5108069181442261,0.469242125749588,-0.0120934080332517,0.4701126217842102,0.4352079033851623,-0.0329660959541797,0.687064528465271,0.338962584733963,0.0029449975118041,0.5711012482643127,0.313715398311615,-0.0273870415985584,0.5042193531990051,0.3461239039897918,-0.0547608584165573,0.4612324833869934,0.3831163644790649,-0.0726385191082954,0.7011713981628418,0.3500925302505493,-0.025748535990715,0.5644543170928955,0.3083233535289764,-0.0521923825144767,0.4970760643482208,0.3512644469738006,-0.0730108469724655,0.4530608355998993,0.3983862996101379,-0.0875753685832023,0.7001984119415283,0.3903496861457824,-0.0544722080230712,0.5701332092285156,0.3467884361743927,-0.0785590633749961,0.5028482675552368,0.3814009726047516,-0.0881705954670906,0.4560227394104004,0.417138397693634,-0.0942114517092704,0.6828439235687256,0.4546552300453186,-0.0816131010651588,0.5738847851753235,0.4463981091976166,-0.1042537316679954,0.5149804353713989,0.4583487510681152,-0.1123641356825828,0.4693366885185241,0.4687182307243347,-0.1159208640456199
2023-08-01 16:05:50.687067,42,477,0.6920092105865479,0.1829572021961212,-0.0896143540740013,0.692545473575592,-0.3466796875,0.8984375,0.1572265625,0.772223711013794,0.6684703230857849,-9.59660383159644e-07,0.667267382144928,0.5911015272140503,0.0111121386289596,0.6007742285728455,0.5159142017364502,-0.0016336913686245,0.5442073345184326,0.4721362888813019,-0.0227030552923679,0.4992133677005768,0.4373021125793457,-0.0447898805141449,0.7190641164779663,0.3398650884628296,0.0025630700401961,0.604794979095459,0.3088935613632202,-0.0337524712085723,0.5378193855285645,0.3426063954830169,-0.0666072815656662,0.4965840578079223,0.3863631188869476,-0.0872471407055854,0.73975670337677,0.349687397480011,-0.0235559809952974,0.6029830574989319,0.304099828004837,-0.0558451563119888,0.5338149070739746,0.3493876159191131,-0.0826520770788192,0.4912572801113128,0.4027988314628601,-0.1004747226834297,0.744454562664032,0.3874066174030304,-0.0512465611100196,0.6141107678413391,0.3434527218341827,-0.0797117874026298,0.5425849556922913,0.3803661167621612,-0.0956613272428512,0.4960823655128479,0.4227035343647003,-0.1049943417310714,0.7320610284805298,0.4491666257381439,-0.0780327394604682,0.6215961575508118,0.4428061842918396,-0.1029317304491996,0.5605382323265076,0.4545774459838867,-0.1151347532868385,0.5150111317634583,0.4668995440006256,-0.121286541223526
2023-08-01 16:05:50.748057,43,478,0.6908504366874695,0.1922137141227722,-0.0909768044948577,0.6910157203674316,-0.38720703125,0.8994140625,0.1279296875,0.7794200778007507,0.6742863059043884,-9.26019936287048e-07,0.6826983690261841,0.5899752378463745,0.0110535621643066,0.6143407821655273,0.5104776620864868,-0.0028981526847928,0.5573983192443848,0.4668597280979156,-0.0248300340026617,0.5146850347518921,0.4312755167484283,-0.0474610775709152,0.7355072498321533,0.338775098323822,0.000199280140805,0.6178820133209229,0.3090496063232422,-0.0371167361736297,0.5500056147575378,0.3385141789913177,-0.0700082629919052,0.50483638048172,0.3767208755016327,-0.0904713049530983,0.7530652284622192,0.3506570160388946,-0.0258689075708389,0.6119186878204346,0.304996907711029,-0.0607107914984226,0.54443359375,0.3512526154518127,-0.0876963064074516,0.5007819533348083,0.4029902219772339,-0.1048268005251884,0.7564854621887207,0.3894928395748138,-0.0530234277248382,0.6250033974647522,0.3469532430171966,-0.0825215503573417,0.5559103488922119,0.3832872211933136,-0.0963135957717895,0.5088521242141724,0.4216305613517761,-0.1034351959824562,0.7435716390609741,0.450539618730545,-0.0792510360479354,0.6340958476066589,0.442542165517807,-0.1037559062242508,0.5745762586593628,0.4530353844165802,-0.1139967665076255,0.5295701026916504,0.4627723693847656,-0.1185032054781913
2023-08-01 16:05:50.817104,44,479,0.6898657083511353,0.2016516923904419,-0.0939495041966438,0.6889088749885559,-0.3330078125,0.89990234375,0.1376953125,0.7842501401901245,0.6728560924530029,-9.2170415655346e-07,0.6891674399375916,0.5882878303527832,0.0098096178844571,0.6223070621490479,0.5087775588035583,-0.0042458493262529,0.566703200340271,0.463772177696228,-0.0263228509575128,0.5252761840820312,0.4244621694087982,-0.049005813896656,0.7425212860107422,0.3393432199954986,0.0016376874409615,0.6286702156066895,0.3067474365234375,-0.0370810702443122,0.5603505969047546,0.3339529633522033,-0.0714163929224014,0.51735520362854,0.3710724711418152,-0.0925533473491668,0.7630142569541931,0.3507205247879028,-0.0244671944528818,0.627210259437561,0.3037150800228119,-0.0589930936694145,0.5584790110588074,0.3464822173118591,-0.0858314782381057,0.5150736570358276,0.3952318429946899,-0.1026995256543159,0.7685260772705078,0.3886206448078155,-0.0523571707308292,0.6396443843841553,0.3436741530895233,-0.0820744186639785,0.5689465999603271,0.376910388469696,-0.0953235998749733,0.5213804244995117,0.4121050536632538,-0.101868949830532,0.7568535804748535,0.4497088491916656,-0.0796018615365028,0.6463110446929932,0.4401059150695801,-0.1045020669698715,0.5875756144523621,0.4491990804672241,-0.1141038611531257,0.5443907380104065,0.4577904045581817,-0.1176765114068985
2023-08-01 16:05:50.888938,45,480,0.6893212199211121,0.2111902087926864,-0.0942301526665687,0.6865533590316772,-0.34033203125,0.9189453125,0.1376953125,0.813273549079895,0.6822082996368408,-8.935828077483166e-07,0.7249183654785156,0.5880439281463623,0.0063833235763013,0.6636775732040405,0.5058887004852295,-0.0058524832129478,0.6085085868835449,0.4593672752380371,-0.02723328769207,0.5673812627792358,0.4128452837467193,-0.0486851781606674,0.7731173038482666,0.3508310616016388,0.014771063812077,0.6817076802253723,0.315093457698822,-0.0255821552127599,0.6184161305427551,0.3329780995845794,-0.0635637864470481,0.5742988586425781,0.3629481494426727,-0.0875052437186241,0.7989162802696228,0.3592914938926697,-0.0111734634265303,0.6876575350761414,0.316328763961792,-0.0481493733823299,0.6188139915466309,0.3483797311782837,-0.0805208161473274,0.5702862739562988,0.3864005208015442,-0.1010193899273872,0.8119087815284729,0.3933898210525512,-0.0410759262740612,0.7000228762626648,0.3524909615516662,-0.0769810676574707,0.628966748714447,0.3791131675243377,-0.0954640954732894,0.5781394243240356,0.4094713926315307,-0.1040490344166755,0.8082132339477539,0.4513377249240875,-0.0708685666322708,0.7087274789810181,0.4420866668224334,-0.1009144186973571,0.6520390510559082,0.4501610398292541,-0.113580971956253,0.6079261302947998,0.4585916101932525,-0.1186985597014427
2023-08-01 16:05:50.979495,46,481,0.6889284253120422,0.2182853370904922,-0.0922057777643203,0.6850016713142395,-0.34130859375,0.89208984375,0.13525390625,0.8296652436256409,0.6775175333023071,-8.370657269551884e-07,0.7400698661804199,0.5884893536567688,0.0056998352520167,0.6787063479423523,0.5034635663032532,-0.0060233576223254,0.6229066848754883,0.4537640511989593,-0.0259671173989772,0.5798407793045044,0.4080208539962768,-0.0455296225845813,0.7879064083099365,0.3492501974105835,0.0121389050036668,0.6955629587173462,0.3103205561637878,-0.0264731142669916,0.6322886347770691,0.3267666697502136,-0.0624076090753078,0.5877182483673096,0.3561050593852997,-0.0845510810613632,0.813571572303772,0.3601077198982239,-0.0112642813473939,0.6984958052635193,0.3135458827018738,-0.0452234968543052,0.6326748728752136,0.3446651101112366,-0.0738017708063125,0.5891728401184082,0.3830845952033996,-0.0918751806020736,0.8266617059707642,0.3955458700656891,-0.0384451188147068,0.7127982378005981,0.3527877330780029,-0.0708360001444816,0.6433835029602051,0.3784483969211578,-0.086748220026493,0.5954751968383789,0.4100759327411651,-0.0937704890966415,0.8231290578842163,0.452879250049591,-0.0656249672174453,0.721263587474823,0.438248872756958,-0.092451773583889,0.6613983511924744,0.4439308941364288,-0.1041180044412612,0.6152281761169434,0.454188585281372,-0.1086144968867302
2023-08-01 16:05:51.066768,47,482,0.6881835460662842,0.2242946177721023,-0.0927789509296417,0.6837305426597595,-0.33984375,0.8994140625,0.13671875,0.869349479675293,0.6900354027748108,-9.545182138026576e-07,0.7799474596977234,0.5944809913635254,0.0143331689760088,0.7203044891357422,0.5109854936599731,0.0042996928095817,0.667705774307251,0.4628817141056061,-0.0165688060224056,0.6269659996032715,0.4171544909477234,-0.037983126938343,0.834931492805481,0.3600563406944275,0.0202759820967912,0.7413401007652283,0.3226106166839599,-0.0187760349363088,0.6785654425621033,0.3454565703868866,-0.0551598146557807,0.6377904415130615,0.3797030746936798,-0.0781448930501937,0.8602159023284912,0.3700634837150574,-0.010495631955564,0.7476646900177002,0.3219175338745117,-0.0478203706443309,0.6795702576637268,0.3584628701210022,-0.0792974308133125,0.636195182800293,0.4017284512519836,-0.0987606793642044,0.8718082904815674,0.4039585888385772,-0.0446617491543293,0.762061357498169,0.3580797910690307,-0.0809128656983375,0.6913138628005981,0.387804627418518,-0.098669059574604,0.6448767781257629,0.4217973053455353,-0.1065982729196548,0.867238461971283,0.4594413638114929,-0.0779769644141197,0.7686049938201904,0.4463960528373718,-0.1091630384325981,0.7110885381698608,0.4546171724796295,-0.1220629215240478,0.668664276599884,0.4638408124446869,-0.1271293312311172
2023-08-01 16:05:51.142853,48,483,0.6874707341194153,0.232401430606842,-0.0916177853941917,0.6818942427635193,-0.32080078125,0.92578125,0.1181640625,0.8808998465538025,0.6855368614196777,-8.39403469399258e-07,0.7921148538589478,0.5973296165466309,0.0068942299112677,0.7309033870697021,0.516913652420044,-0.0056741829030215,0.67718106508255,0.4679365158081054,-0.0274124927818775,0.6366199254989624,0.4183343946933746,-0.0486473850905895,0.8440045714378357,0.3599329590797424,0.0168112460523843,0.7552326917648315,0.3204268217086792,-0.0227838959544897,0.6924469470977783,0.3367387652397156,-0.0593248680233955,0.6490762233734131,0.3679990768432617,-0.0817542001605033,0.8699900507926941,0.3697925806045532,-0.0084685273468494,0.7552323937416077,0.3224453926086426,-0.0444722510874271,0.6902409791946411,0.3580645322799682,-0.0733408033847808,0.6505089998245239,0.400490939617157,-0.0904775485396385,0.882457435131073,0.4028828740119934,-0.038058403879404,0.7714399695396423,0.3584510087966919,-0.0724254101514816,0.7027164697647095,0.3872560858726501,-0.087308757007122,0.6577650904655457,0.4220942258834839,-0.0925704389810562,0.8778717517852783,0.4572541713714599,-0.0677361935377121,0.7771945595741272,0.4432386755943298,-0.0969175994396209,0.7188892364501953,0.4504399597644806,-0.1084613874554634,0.676117479801178,0.4616559743881225,-0.1117672249674797
2023-08-01 16:05:51.212894,49,484,0.6874114274978638,0.234531432390213,-0.091183066368103,0.6812828183174133,-0.37548828125,0.92041015625,0.1376953125,0.904022216796875,0.6960114240646362,-8.599328680247709e-07,0.8189144134521484,0.6094208359718323,0.0009201741195283,0.7611165046691895,0.528327465057373,-0.0114579424262046,0.7072022557258606,0.4800713360309601,-0.0307416301220655,0.6666162014007568,0.4323418438434601,-0.04959162697196,0.8731960654258728,0.3746073544025421,0.0089629646390676,0.7839237451553345,0.3340858221054077,-0.0273516941815614,0.7234663963317871,0.3501512408256531,-0.0611308105289936,0.6824125647544861,0.3791053295135498,-0.0822785943746566,0.8996173739433289,0.3850047886371612,-0.0114643471315503,0.7885076403617859,0.3342059254646301,-0.046029083430767,0.7244033217430115,0.3654872179031372,-0.075530931353569,0.6815248131752014,0.4051960706710815,-0.0934865623712539,0.9123942255973816,0.4179274141788482,-0.0354810506105423,0.8018460869789124,0.3690218031406402,-0.0703285560011863,0.7338696718215942,0.3942825198173523,-0.0877547115087509,0.6867700219154358,0.4267750680446625,-0.0947636365890502,0.9068218469619752,0.4720636308193207,-0.0594421364367008,0.8071227073669434,0.4538465738296509,-0.0895419791340828,0.7517578601837158,0.4600674510002136,-0.1019676029682159,0.7098400592803955,0.4696973860263824,-0.1060153394937515
2023-08-01 16:05:51.271758,50,485,0.6873703002929688,0.2377833276987075,-0.0916085764765739,0.6801388263702393,-0.380859375,0.90185546875,0.10498046875,0.9094829559326172,0.6939404606819153,-8.362268886230595e-07,0.8262365460395813,0.611274003982544,0.0032463634852319,0.7664733529090881,0.5283211469650269,-0.007961924187839,0.7140989303588867,0.4776688516139984,-0.0269625224173069,0.676301121711731,0.4290199875831604,-0.0452961362898349,0.8752492070198059,0.3768088519573211,0.0148920286446809,0.7923247814178467,0.3367989361286163,-0.0240292400121688,0.7305971384048462,0.3526616096496582,-0.0599644742906093,0.6865743398666382,0.3834902048110962,-0.0817405879497528,0.9017382860183716,0.3859361112117767,-0.0076028052717447,0.7958669066429138,0.3344085812568664,-0.0431712418794631,0.7308712005615234,0.3677529096603393,-0.07209312915802,0.6879439353942871,0.4089598655700683,-0.0885901525616645,0.9154801964759828,0.4182456135749817,-0.0344558246433734,0.8127822279930115,0.3697816133499145,-0.0690953880548477,0.7442256808280945,0.3969601690769195,-0.0851470530033111,0.696056604385376,0.429705798625946,-0.0904937908053398,0.9114996790885924,0.4727945029735565,-0.0614532195031642,0.8142173290252686,0.457072377204895,-0.0904275998473167,0.7573038935661316,0.4640331268310547,-0.1021469682455062,0.7134572267532349,0.473143458366394,-0.1053521111607551
2023-08-01 16:05:51.328967,51,486,0.6870424151420593,0.2413645833730697,-0.0919761434197425,0.6791585683822632,-0.390625,0.91357421875,0.12158203125,0.9163394570350648,0.6929791569709778,-8.552374879400304e-07,0.8317915201187134,0.6140278577804565,0.0037068431265652,0.771808385848999,0.5322369933128357,-0.0078972987830638,0.7188764214515686,0.4820828437805176,-0.0275370683521032,0.6808736324310303,0.4315386414527893,-0.0464334972202777,0.8843741416931152,0.3782731890678406,0.0139872245490551,0.8003918528556824,0.3345597684383392,-0.0256568603217601,0.7382597923278809,0.3505476713180542,-0.0609407722949981,0.6947005987167358,0.3835954070091247,-0.0817914307117462,0.9103007912635804,0.3880378901958465,-0.0088239861652255,0.801762580871582,0.3326121866703033,-0.0457998216152191,0.7364654541015625,0.3693027794361114,-0.0739748328924179,0.6956362724304199,0.4136022329330444,-0.0891191884875297,0.9230614900588988,0.419164091348648,-0.0359589345753192,0.8160817623138428,0.3700761198997497,-0.071341373026371,0.7474727034568787,0.400723248720169,-0.0865644887089729,0.701812207698822,0.4367184638977051,-0.0906675681471824,0.9179517030715942,0.4712564349174499,-0.0631851553916931,0.8182926774024963,0.4540929794311523,-0.0926143154501915,0.7602470517158508,0.4621912837028503,-0.1042369306087493,0.717151939868927,0.4741723835468292,-0.106849268078804
2023-08-01 16:05:51.395946,52,487,0.685868501663208,0.245182991027832,-0.0924735590815544,0.6789097189903259,-0.37109375,0.90234375,0.0869140625,0.9298668503761292,0.6930872201919556,-8.853759823068685e-07,0.8459039926528931,0.6124984622001648,-0.0013063161168247,0.7866647243499756,0.5303972363471985,-0.0141484662890434,0.733292281627655,0.4797994494438171,-0.0337407551705837,0.693871259689331,0.4286547303199768,-0.0527535751461982,0.898300051689148,0.3795665502548218,0.009004415012896,0.816630482673645,0.3386619687080383,-0.0300743654370307,0.7560638785362244,0.3560159802436828,-0.0654349774122238,0.7134813070297241,0.3850811421871185,-0.0872962027788162,0.9274134039878844,0.3897123634815216,-0.0107951527461409,0.8225057721138,0.3390578031539917,-0.049910731613636,0.7582836151123047,0.3782534599304199,-0.0807889029383659,0.7179183959960938,0.419853925704956,-0.0981845930218696,0.9428383111953736,0.4211361408233642,-0.0347590930759906,0.8400753140449524,0.3721798062324524,-0.0737641900777816,0.7716037034988403,0.4060786366462707,-0.0922446623444557,0.7253194451332092,0.4426689147949219,-0.0983834341168403,0.9402377605438232,0.4733981788158417,-0.0586395747959613,0.8429247140884399,0.4559003114700317,-0.0909836590290069,0.7860824465751648,0.4658214747905731,-0.1043323203921318,0.7439754009246826,0.4775775074958801,-0.1082707270979881
2023-08-01 16:05:51.452984,53,488,0.684954047203064,0.2468977570533752,-0.0919920280575752,0.6792768239974976,-0.37548828125,0.89306640625,0.08447265625,0.9354183077812196,0.6891109347343445,-8.721733024685818e-07,0.8518950343132019,0.6130021810531616,0.0021929442882537,0.793525755405426,0.5322345495223999,-0.0103050805628299,0.7442425489425659,0.4829415082931518,-0.0301826316863298,0.7077615261077881,0.4329140782356262,-0.049922801554203,0.903880536556244,0.3795658349990845,0.0076584508642554,0.8183006048202515,0.3402139544486999,-0.0319335423409938,0.7574831247329712,0.3577448725700378,-0.0670277997851371,0.715248703956604,0.3896604478359222,-0.0883088260889053,0.9316199421882628,0.3898278176784515,-0.0146370902657508,0.8229268789291382,0.3394075036048889,-0.0512411519885063,0.7609171867370605,0.3773513436317444,-0.0794268324971199,0.7227744460105896,0.4190309941768646,-0.0956221520900726,0.9460312128067015,0.4212798476219177,-0.0409014336764812,0.8409987688064575,0.3732434511184692,-0.0770893916487693,0.7736790180206299,0.4042088687419891,-0.0935252830386161,0.7287602424621582,0.4389678239822387,-0.0994554609060287,0.943513810634613,0.473116934299469,-0.0671088695526123,0.8437498807907104,0.4592192769050598,-0.0987070277333259,0.7858062982559204,0.4691218435764313,-0.1118941903114318,0.7430579662322998,0.4811503291130066,-0.1161412596702575
2023-08-01 16:05:51.519025,54,489,0.684351921081543,0.2481056451797485,-0.0920215025544166,0.6794394850730896,-0.3564453125,0.89208984375,0.07861328125,0.939739465713501,0.6876879930496216,-8.505011805937102e-07,0.8572573065757751,0.610308051109314,0.0015461125876754,0.7985116839408875,0.5314199924468994,-0.0131335062906146,0.7464697360992432,0.4835460186004638,-0.0355272255837917,0.7074788808822632,0.4306522905826568,-0.0576343461871147,0.9066743850708008,0.3801397681236267,0.0065313382074236,0.8236364722251892,0.3402072787284851,-0.0355553478002548,0.7626128196716309,0.3565658926963806,-0.0725104659795761,0.718736469745636,0.3889205455780029,-0.095134325325489,0.9343942999839784,0.3909240961074829,-0.0171168148517608,0.8286840915679932,0.3416149020195007,-0.0568563714623451,0.765580415725708,0.3783604800701141,-0.0873882174491882,0.7253666520118713,0.4187393486499786,-0.105251058936119,0.9494302272796632,0.4223983287811279,-0.0449866205453872,0.8481960296630859,0.3747960329055786,-0.0836303755640983,0.7807728052139282,0.4048446714878082,-0.1014563366770744,0.7353901863098145,0.4393134415149688,-0.1083710566163063,0.9483723640441896,0.4738699793815613,-0.0728784278035163,0.851758599281311,0.4592047035694122,-0.1067790985107421,0.792514443397522,0.4676028490066528,-0.1215260401368141,0.7484045624732971,0.4783686995506286,-0.1269463002681732
2023-08-01 16:05:51.577612,55,490,0.684539258480072,0.2472873926162719,-0.0902527570724487,0.6797862648963928,-0.36376953125,0.9033203125,0.0888671875,0.9417517781257628,0.6888560056686401,-8.640469104648218e-07,0.8595951199531555,0.6126047372817993,0.0024653512518852,0.8022174835205078,0.5328682065010071,-0.0115456935018301,0.7520657181739807,0.4859681129455566,-0.0336470678448677,0.7142534255981445,0.434915542602539,-0.0555990487337112,0.9110799431800842,0.3799818158149719,0.0088628968223929,0.8264990448951721,0.3392854928970337,-0.0340989455580711,0.7654504179954529,0.356874018907547,-0.0721464678645134,0.7211768627166748,0.390331357717514,-0.0951152071356773,0.938955545425415,0.38999804854393,-0.0154004422947764,0.8317039012908936,0.339961439371109,-0.0560207478702068,0.7690144777297974,0.3763370513916015,-0.0884384363889694,0.7288408875465393,0.4184030592441559,-0.1071717441082,0.9539004564285278,0.4201547503471374,-0.0438481047749519,0.8515744209289551,0.37363201379776,-0.0829276144504547,0.7836454510688782,0.4038777649402618,-0.1022266373038292,0.73771733045578,0.4399132430553436,-0.109587088227272,0.9527375102043152,0.4699657261371612,-0.0722617879509925,0.8557630777359009,0.4565460979938507,-0.1058707758784294,0.7976191639900208,0.4653058350086212,-0.1208495423197746,0.7539809942245483,0.4772408604621887,-0.1260919123888015
2023-08-01 16:05:51.638829,56,491,0.685152530670166,0.2465773522853851,-0.0880944728851318,0.6797094941139221,-0.35546875,0.8974609375,0.04931640625,0.9438281059265136,0.6843680739402771,-8.366710630980378e-07,0.8632904887199402,0.604361891746521,5.934389992034994e-05,0.8075537085533142,0.5267789959907532,-0.016896616667509,0.755924642086029,0.4787050485610962,-0.0418870337307453,0.7173941135406494,0.4251279830932617,-0.0665687546133995,0.9202185273170472,0.3748401999473572,0.0057655242271721,0.834058403968811,0.3355455994606018,-0.0380798391997814,0.7733187079429626,0.3528506457805633,-0.0757227167487144,0.7318354249000549,0.3859925866127014,-0.0984670594334602,0.9488002061843872,0.3854196965694427,-0.0180841870605945,0.8402665853500366,0.335101306438446,-0.0598190762102603,0.7782233953475952,0.3736677765846252,-0.0906843245029449,0.740975558757782,0.4153836965560913,-0.1080582961440086,0.964351773262024,0.4165691435337066,-0.0464553907513618,0.8588103652000427,0.3705122470855713,-0.087069883942604,0.7912603616714478,0.4034717679023742,-0.1039597019553184,0.7481384873390198,0.4403789341449737,-0.1092147082090377,0.9631474018096924,0.4673814177513122,-0.0751262009143829,0.8645047545433044,0.4530826210975647,-0.1100823283195495,0.805858850479126,0.4614341557025909,-0.1246398985385894,0.7642961740493774,0.4730325639247894,-0.1291720569133758
2023-08-01 16:05:51.705818,57,492,0.6862327456474304,0.2442671805620193,-0.0844634398818016,0.6799147725105286,-0.37890625,0.9111328125,0.0595703125,0.9442477226257324,0.6901909112930298,-8.39280573927681e-07,0.866794228553772,0.6119517087936401,-0.0033504450693726,0.8101531863212585,0.5281947255134583,-0.0181828532367944,0.7585469484329224,0.4763069152832031,-0.0393380522727966,0.7223002910614014,0.420631468296051,-0.0598148591816425,0.9203730821609496,0.3796219825744629,0.0060819890350103,0.8402812480926514,0.3400933146476745,-0.0363030955195426,0.7799210548400879,0.3527652025222778,-0.0740712359547615,0.7340405583381653,0.3803578317165375,-0.0968489497900009,0.9487820863723756,0.390068769454956,-0.0140507817268371,0.8459901213645935,0.337950587272644,-0.0549900531768798,0.7811861038208008,0.3706201314926147,-0.0873585939407348,0.7370842695236206,0.40962615609169,-0.1052868887782096,0.9642412066459656,0.4211825430393219,-0.0387040413916111,0.8650216460227966,0.3716371953487396,-0.0789675414562225,0.79582679271698,0.3993066549301147,-0.0985361039638519,0.7474076747894287,0.4319266974925995,-0.1049500703811645,0.9621701240539552,0.472458004951477,-0.0635831505060195,0.8660876750946045,0.4546140134334564,-0.0977923423051834,0.8084298968315125,0.4598593115806579,-0.1129476800560951,0.7642327547073364,0.4672787189483642,-0.1176041662693023
2023-08-01 16:05:51.761951,58,493,0.6869666576385498,0.2417904734611511,-0.0838538408279419,0.6801343560218811,-0.3310546875,0.912109375,0.1171875,0.9469977617263794,0.6893652677536011,-8.401502213928325e-07,0.8675400018692017,0.6113587617874146,-0.0024630127009004,0.8100357055664062,0.528640627861023,-0.0166977364569902,0.7574333548545837,0.4777584373950958,-0.0378425456583499,0.7210832834243774,0.4230950474739074,-0.0582769475877285,0.9211981892585754,0.3793872892856598,0.0072428709827363,0.8379849195480347,0.3371842503547668,-0.0346580706536769,0.7773339748382568,0.3521151542663574,-0.0716536715626716,0.7320988178253174,0.3813152909278869,-0.0936243906617164,0.9491344094276428,0.3894059062004089,-0.0128114493563771,0.8433003425598145,0.3380514681339264,-0.0528944097459316,0.7790321111679077,0.3716106712818146,-0.0844786465167999,0.7364674806594849,0.4109462201595306,-0.1019734591245651,0.9643115997314452,0.4190292060375213,-0.0373614318668842,0.8609141111373901,0.3732081055641174,-0.0757221803069114,0.793401300907135,0.4030101597309112,-0.0939609631896019,0.7474129796028137,0.4379296898841858,-0.0997976809740066,0.9626526832580566,0.4680271446704864,-0.0623807944357395,0.8646904826164246,0.4523112773895263,-0.0941378474235534,0.8075997829437256,0.4602745473384857,-0.1079928949475288,0.7649877667427063,0.4723198711872101,-0.111952356994152
