Timestamp,Index,Frame ID,w,x,y,z,ax,ay,az,x_0,y_0,z_0,x_1,y_1,z_1,x_2,y_2,z_2,x_3,y_3,z_3,x_4,y_4,z_4,x_5,y_5,z_5,x_6,y_6,z_6,x_7,y_7,z_7,x_8,y_8,z_8,x_9,y_9,z_9,x_10,y_10,z_10,x_11,y_11,z_11,x_12,y_12,z_12,x_13,y_13,z_13,x_14,y_14,z_14,x_15,y_15,z_15,x_16,y_16,z_16,x_17,y_17,z_17,x_18,y_18,z_18,x_19,y_19,z_19,x_20,y_20,z_20
2023-08-01 16:05:43.326766,0,363,0.6627746224403381,0.2792055308818817,-0.0960568264126777,0.6881476044654846,-0.33984375,0.9140625,0.06982421875,0.9571771025657654,0.6981520056724548,-7.911069133115234e-07,0.8885824680328369,0.627771258354187,-0.0150310415774583,0.8359061479568481,0.5467184782028198,-0.0330277420580387,0.7846406698226929,0.4976333975791931,-0.0554683282971382,0.75044846534729,0.4458345472812652,-0.0758873373270034,0.9439966082572936,0.4051858782768249,-0.0023086592555046,0.874898374080658,0.3488537669181824,-0.0471884310245513,0.8166093826293945,0.3630262613296509,-0.0860054492950439,0.7723816633224487,0.3950335681438446,-0.1081995889544487,0.971903681755066,0.4100132584571838,-0.0152016319334506,0.8800040483474731,0.3391269147396087,-0.0583069175481796,0.8189087510108948,0.3721793889999389,-0.0931077376008033,0.7794533371925354,0.4137910306453705,-0.111965000629425,0.9914575219154358,0.4337262809276581,-0.0334272906184196,0.9003216624259949,0.3800360858440399,-0.0722466111183166,0.831167459487915,0.4061546623706817,-0.0955206155776977,0.7830104827880859,0.4424795806407928,-0.1043649911880493,0.9952321648597716,0.4763149619102478,-0.0531254522502422,0.9070107340812684,0.4503111243247986,-0.0817951261997222,0.8515076041221619,0.4508076012134552,-0.0978175327181816,0.8085737824440002,0.4604258835315704,-0.1042052656412124
2023-08-01 16:05:43.388482,1,364,0.6630309820175171,0.2791789472103119,-0.0954596698284149,0.6879944801330566,-0.31689453125,0.92919921875,0.07373046875,0.9558415412902832,0.6987768411636353,-7.822449674677046e-07,0.8872185349464417,0.6280757188796997,-0.014228593558073,0.8341808915138245,0.5466576814651489,-0.0320765115320682,0.7843934893608093,0.4959218502044678,-0.054949153214693,0.7498823404312134,0.4440355896949768,-0.0759242549538612,0.93557870388031,0.4077441990375519,-0.0019586172420531,0.8731257915496826,0.3461508452892303,-0.0478245243430137,0.8168454170227051,0.3614847958087921,-0.0861545726656913,0.7754096388816833,0.3956465125083923,-0.1079046800732612,0.965813398361206,0.4127767086029053,-0.0162720791995525,0.8825143575668335,0.3382031917572021,-0.0612778291106224,0.8218050003051758,0.3716245293617248,-0.0959629341959953,0.7830878496170044,0.413287878036499,-0.1142721325159072,0.988318145275116,0.4369005262851715,-0.0361874997615814,0.9052507877349854,0.3784278035163879,-0.077593095600605,0.8355081677436829,0.406367540359497,-0.1010555773973465,0.7870646119117737,0.4427255988121032,-0.1095666736364364,0.9956710934638976,0.4801136255264282,-0.0573851391673088,0.9088842868804932,0.4518384635448456,-0.0884840637445449,0.8524833917617798,0.4528266787528991,-0.1052415892481803,0.8094035387039185,0.4612165689468384,-0.1119021475315094
2023-08-01 16:05:43.449068,2,365,0.6634263396263123,0.2779335975646972,-0.0957318171858787,0.6880799531936646,-0.31884765625,0.9189453125,0.06787109375,0.9507489204406738,0.6963761448860168,-8.005628160390188e-07,0.8825170397758484,0.6263779401779175,-0.0148225165903568,0.8301393985748291,0.5485406517982483,-0.0339530445635318,0.7807555198669434,0.4972686171531677,-0.0574912093579769,0.7468669414520264,0.4421814978122711,-0.0791111513972282,0.9366405010223388,0.4014599323272705,-0.0043106279335916,0.8692087531089783,0.347002238035202,-0.0501931346952915,0.8111612200737,0.3634707331657409,-0.0883983448147773,0.770628809928894,0.3974494338035583,-0.1099644601345062,0.9664231538772584,0.4075922667980194,-0.0182810295373201,0.879141628742218,0.3377485573291778,-0.0621469169855117,0.8171212673187256,0.3719839453697204,-0.0948879867792129,0.7793806791305542,0.4133614599704742,-0.1122247874736785,0.9868759512901306,0.4340942502021789,-0.0377960726618766,0.901440680027008,0.3794684410095215,-0.0785755142569542,0.8325883150100708,0.4067680239677429,-0.1001742929220199,0.7864927053451538,0.4419620335102081,-0.1077717244625091,0.9913060069084167,0.4803273975849151,-0.0586047284305095,0.9045881032943726,0.4531343877315521,-0.0896549969911575,0.8488872647285461,0.4536882936954498,-0.1052308529615402,0.8070665597915649,0.4614700675010681,-0.1109672039747238
2023-08-01 16:05:43.513102,3,366,0.664072573184967,0.2761381864547729,-0.096855379641056,0.6880220770835876,-0.32080078125,0.92529296875,0.0849609375,0.9533917903900146,0.6990972757339478,-7.770672141305113e-07,0.8857755064964294,0.6305845379829407,-0.0159686896950006,0.8314549326896667,0.5497369766235352,-0.0343468524515628,0.7802475690841675,0.4982027113437652,-0.0566384345293045,0.7461473941802979,0.4472198784351349,-0.0764533653855323,0.933580756187439,0.4089792966842651,-0.0054140388965606,0.869795560836792,0.344135582447052,-0.0496429167687892,0.8126622438430786,0.3611179888248443,-0.0859393998980522,0.7723323106765747,0.3971133828163147,-0.1061003282666206,0.9631525874137878,0.4145449995994568,-0.0173737313598394,0.8772942423820496,0.3361862897872925,-0.0599047988653183,0.8162719011306763,0.3714893162250519,-0.0909744873642921,0.7797161936759949,0.4160079956054687,-0.1064738035202026,0.9856300354003906,0.4396736621856689,-0.0347212925553321,0.9007720947265624,0.3791092932224273,-0.0729692280292511,0.8313523530960083,0.4068750739097595,-0.0925779193639755,0.7847040295600891,0.4438678920269012,-0.0985443443059921,0.993078112602234,0.4845776557922363,-0.0535271428525447,0.90511953830719,0.4568725526332855,-0.0817130580544471,0.849293053150177,0.4575973153114319,-0.0955351963639259,0.8078910112380981,0.4666127562522888,-0.0998696610331535
2023-08-01 16:05:43.576517,4,367,0.6643239855766296,0.2748488783836365,-0.0958364531397819,0.6884382963180542,-0.3408203125,0.93701171875,0.06396484375,0.9500560760498048,0.6985023617744446,-8.218272000704019e-07,0.8812769651412964,0.6271917819976807,-0.0153556959703564,0.8302724957466125,0.5499678254127502,-0.0357037670910358,0.781476616859436,0.501095175743103,-0.0606673434376716,0.7452447414398193,0.4484955370426178,-0.0841280147433281,0.9332873225212096,0.4023687243461609,-0.0079532461240887,0.8645956516265869,0.3441487550735473,-0.055597499012947,0.806637704372406,0.3623539209365845,-0.0951172783970832,0.7660401463508606,0.3962217569351196,-0.1175381392240524,0.9654271602630616,0.408787339925766,-0.0219027232378721,0.8760901689529419,0.3413314819335937,-0.0683842897415161,0.8126075863838196,0.3774952292442322,-0.103337712585926,0.772939920425415,0.417702853679657,-0.1219419687986373,0.987561583518982,0.4352902770042419,-0.0411344356834888,0.900065004825592,0.3789606988430023,-0.0839152187108993,0.8291797041893005,0.4089002907276153,-0.1067338585853576,0.7809002995491028,0.4453742206096649,-0.1148132681846618,0.9937545657157898,0.4809753596782684,-0.0615082755684852,0.9048774242401124,0.4548956155776977,-0.0938058942556381,0.8474636673927307,0.4568357765674591,-0.1099085062742233,0.8042954206466675,0.465579479932785,-0.1157238781452179
2023-08-01 16:05:43.638491,5,368,0.664716899394989,0.2717692852020263,-0.0946897715330123,0.6894394755363464,-0.3291015625,0.92724609375,0.02099609375,0.9465844631195068,0.6991134881973267,-8.259808623733988e-07,0.8778364062309265,0.628035306930542,-0.0135469613596796,0.8274201154708862,0.5486764907836914,-0.0312305949628353,0.7786674499511719,0.500198483467102,-0.0538629926741123,0.7427359819412231,0.4482665359973907,-0.0753071531653404,0.9291159510612488,0.4025084376335144,-0.0029218348208814,0.8615363836288452,0.3512692451477051,-0.0492277778685092,0.8052917718887329,0.3683963418006897,-0.0884765461087226,0.762298047542572,0.4014622271060943,-0.1105860471725463,0.9615505337715148,0.407698392868042,-0.0173401460051536,0.8722023963928223,0.3450751602649688,-0.0615596175193786,0.8109816908836365,0.3796635568141937,-0.0960329845547676,0.77027428150177,0.4202705323696136,-0.1144391149282455,0.9847846031188964,0.4339476525783539,-0.0372397154569625,0.895797848701477,0.3819807767868042,-0.0787991285324096,0.8254219889640808,0.4104208052158355,-0.1026336699724197,0.7754845023155212,0.4467293620109558,-0.1113398820161819,0.9921554923057556,0.4803977906703949,-0.0582346469163894,0.9018763303756714,0.455000638961792,-0.0896979197859764,0.8451846241950989,0.4571582674980163,-0.1061577573418617,0.8010562062263489,0.4674409925937652,-0.1122619435191154
2023-08-01 16:05:43.701834,6,369,0.6658629179000854,0.2651272118091583,-0.093623049557209,0.6910635828971863,-0.333984375,0.9169921875,0.0263671875,0.9469667077064514,0.7002591490745544,-8.233532184931391e-07,0.8747089505195618,0.6266131401062012,-0.0129620283842086,0.8229035139083862,0.5450713038444519,-0.0307953059673309,0.7726252675056458,0.4945378303527832,-0.0537638291716575,0.7351875305175781,0.4403102397918701,-0.0754273980855941,0.9248958230018616,0.3968044519424438,-3.3763259125407785e-05,0.8547245264053345,0.3494523167610168,-0.0471939891576767,0.7964538931846619,0.3682835400104522,-0.087723009288311,0.7528029680252075,0.4034695923328399,-0.1108765602111816,0.9555819630622864,0.4042424857616424,-0.0155851440504193,0.8643797636032104,0.3447755575180053,-0.0618671886622905,0.8004941940307617,0.3813673257827759,-0.0978110134601593,0.7592714428901672,0.4242161512374878,-0.1165455803275108,0.9768909811973572,0.4340460002422333,-0.03680320084095,0.8884577751159668,0.3820064961910248,-0.0805497989058494,0.8176549077033997,0.4117444455623626,-0.104682482779026,0.7693291306495667,0.4485531747341156,-0.1127420291304588,0.982866644859314,0.4852934181690216,-0.0590456426143646,0.8943504095077515,0.4602491557598114,-0.0930600017309188,0.8378181457519531,0.4610819518566131,-0.1101819053292274,0.794928789138794,0.4684717357158661,-0.116024412214756
2023-08-01 16:05:43.779949,7,370,0.667876124382019,0.2553492188453674,-0.0928062796592712,0.6929107308387756,-0.34619140625,0.9208984375,0.04052734375,0.9446010589599608,0.6973506212234497,-8.062252163654193e-07,0.8739104866981506,0.6219355463981628,-0.0141271632164716,0.8214770555496216,0.5408810377120972,-0.0323920398950576,0.7706529498100281,0.4913608729839325,-0.0551178269088268,0.7362717390060425,0.4360976815223694,-0.076197899878025,0.9259684085845948,0.3902893662452698,-0.0028044106438755,0.8545883893966675,0.3431779444217682,-0.048324916511774,0.7986896634101868,0.3623565137386322,-0.0880287811160087,0.7577691078186035,0.3954936861991882,-0.1111421957612037,0.9569810032844543,0.3995927572250366,-0.0167217776179313,0.8648771047592163,0.3463408350944519,-0.0606988556683063,0.8051534295082092,0.3814461231231689,-0.0959938317537307,0.7661626935005188,0.4210529923439026,-0.1155699864029884,0.9782617092132568,0.4305834174156189,-0.0359773263335228,0.8868353366851807,0.3842346668243408,-0.0774519070982933,0.818500816822052,0.4112139940261841,-0.100961223244667,0.7706556916236877,0.4461626410484314,-0.109860710799694,0.9844585061073304,0.4823042154312134,-0.0563926436007022,0.8960666656494141,0.4585131406784057,-0.0889875218272209,0.8394896388053894,0.4597633481025696,-0.1057540625333786,0.795372724533081,0.4683899581432342,-0.1120124161243438
2023-08-01 16:05:43.857091,8,371,0.6700760722160339,0.2447792589664459,-0.0914167761802673,0.6947835087776184,-0.3291015625,0.91943359375,0.0869140625,0.9367345571517944,0.6924617290496826,-8.160759534803219e-07,0.867630124092102,0.6194723844528198,-0.0140873277559876,0.814972996711731,0.5392462611198425,-0.0326953642070293,0.7661514282226562,0.4899189174175262,-0.0558198764920234,0.7326212525367737,0.4334874153137207,-0.077443242073059,0.914361834526062,0.3867738246917724,-0.003311283653602,0.8466083407402039,0.3441086411476135,-0.0503504574298858,0.7914143204689026,0.3648307621479034,-0.0908654779195785,0.7504627108573914,0.3982607722282409,-0.1146185249090194,0.9467573165893556,0.3958244323730469,-0.0185299292206764,0.8596581816673279,0.3456635773181915,-0.0654680952429771,0.7992895841598511,0.3831182718276977,-0.1020476594567298,0.7595047354698181,0.4237629771232605,-0.1217802315950393,0.969318389892578,0.4273342490196228,-0.0392895974218845,0.8849721550941467,0.3811095356941223,-0.0840945318341255,0.8161851167678833,0.4097777903079986,-0.1091776043176651,0.7676332592964172,0.4441651701927185,-0.1184859573841095,0.9776002764701844,0.4797596335411072,-0.061036329716444,0.8907555937767029,0.4578439593315124,-0.0974917560815811,0.833651065826416,0.460910826921463,-0.1163664385676384,0.7894479036331177,0.4681451618671417,-0.1235775724053382
2023-08-01 16:05:43.923723,9,372,0.6717078685760498,0.2335882782936096,-0.0890824571251869,0.6973589062690735,-0.34765625,0.935546875,0.16357421875,0.9056259989738464,0.6900778412818909,-7.780790838296525e-07,0.8307039737701416,0.6159782409667969,-0.0072916680946946,0.7778605818748474,0.5334407687187195,-0.0206643491983413,0.7283293604850769,0.4823327362537384,-0.0393614321947097,0.6921586394309998,0.4306052327156067,-0.0567995719611644,0.8817028403282166,0.3865345418453216,0.0051038679666817,0.8126043677330017,0.3416321873664856,-0.0346169136464595,0.7548285722732544,0.3607137799263,-0.0698908939957618,0.7124096155166626,0.3939371407032013,-0.0908290669322013,0.909704089164734,0.3922796547412872,-0.0112061267718672,0.8199531435966492,0.3441438972949981,-0.0491550229489803,0.7594149112701416,0.3766176700592041,-0.0789273828268051,0.7193670868873596,0.4147952795028686,-0.0947999581694603,0.9271807670593262,0.4228847622871399,-0.0323748067021369,0.8387604355812073,0.3748548626899719,-0.0698566138744354,0.7735421657562256,0.4010763466358185,-0.0886999145150184,0.7267501354217529,0.433454155921936,-0.0945940986275672,0.9299909472465516,0.4751757085323334,-0.0543112233281135,0.8424006104469299,0.4578349590301513,-0.086744911968708,0.786866307258606,0.4625003933906555,-0.101552739739418,0.7436047196388245,0.472124308347702,-0.1056145504117012
2023-08-01 16:05:43.990568,10,373,0.6725078821182251,0.2213875204324722,-0.0880305171012878,0.7006934285163879,-0.3447265625,0.92236328125,0.12890625,0.8983883261680603,0.6923378109931946,-8.156526973834843e-07,0.8219749331474304,0.6159452199935913,-0.0026197917759418,0.7669884562492371,0.5328630208969116,-0.0144865959882736,0.7187240123748779,0.481292188167572,-0.0328767001628875,0.6830238103866577,0.4289871454238891,-0.0500708296895027,0.8659195899963379,0.3874920308589935,0.0097954301163554,0.7976807951927185,0.3412624895572662,-0.0304085668176412,0.7415570020675659,0.357468843460083,-0.0658908039331436,0.7014013528823853,0.39032182097435,-0.0868403911590576,0.8949230909347534,0.3944085836410522,-0.0093401027843356,0.80607008934021,0.3444951772689819,-0.0469253957271575,0.7459089756011963,0.3780663609504699,-0.0750370472669601,0.7067396640777588,0.4182186126708984,-0.0899246335029602,0.9136109948158264,0.4240129590034485,-0.0334603078663349,0.8264602422714233,0.3765473067760467,-0.0700564160943031,0.7618863582611084,0.4046358466148376,-0.0857600271701812,0.7166618704795837,0.4387918412685394,-0.089904673397541,0.9183002710342408,0.4743089079856872,-0.0582377538084983,0.8294361233711243,0.4546298384666443,-0.0894917920231819,0.7736079692840576,0.4608317911624908,-0.1018619388341903,0.7308077812194824,0.4710535407066345,-0.1045571416616439
2023-08-01 16:05:44.061592,11,374,0.6723492741584778,0.2187147736549377,-0.0888707563281059,0.7015784382820129,-0.41552734375,0.923828125,0.1650390625,0.861301839351654,0.6890820860862732,-6.866174544484238e-07,0.7782609462738037,0.6060218811035156,-0.0041708224453032,0.7190267443656921,0.5223940014839172,-0.0162833295762538,0.662063717842102,0.4759129285812378,-0.0336774513125419,0.6214854717254639,0.4327629804611206,-0.0498743616044521,0.8250199556350708,0.3768859803676605,0.0066758613102138,0.7406868934631348,0.3400639295578003,-0.0275477841496467,0.6832855343818665,0.3600922226905823,-0.0594358295202255,0.6420202851295471,0.3889162242412567,-0.0791746601462364,0.8482739329338074,0.3830791711807251,-0.0099598709493875,0.741936206817627,0.3387638926506042,-0.0402091443538665,0.6853573322296143,0.367527425289154,-0.0650766193866729,0.6468936800956726,0.4034236073493957,-0.0796048045158386,0.8619530200958252,0.4151627421379089,-0.0308916289359331,0.7583441734313965,0.3710152208805084,-0.0612808540463447,0.6951786875724792,0.3887663185596466,-0.0751415789127349,0.6487305760383606,0.4136308431625366,-0.079657107591629,0.86090087890625,0.4700786769390106,-0.0527487322688102,0.7651503086090088,0.456108808517456,-0.0806477516889572,0.7086139917373657,0.4572892785072326,-0.0923254266381263,0.6630032062530518,0.4638414084911346,-0.0953102111816406
2023-08-01 16:05:44.132631,12,375,0.6715567708015442,0.2119386196136474,-0.0930118039250373,0.7038766145706177,-0.27880859375,0.89501953125,0.111328125,0.8482456803321838,0.6848702430725098,-7.82965969392535e-07,0.7627319097518921,0.6036333441734314,0.0041539156809449,0.7043527960777283,0.5209231376647949,-0.0055158915929496,0.6511186361312866,0.4734949171543121,-0.0224733743816614,0.6096817255020142,0.4316964149475097,-0.0387779213488101,0.8103441596031189,0.3722717761993408,0.0145096909254789,0.7237921953201294,0.3361266255378723,-0.020882373675704,0.6646833419799805,0.3553976416587829,-0.0537678785622119,0.6235046982765198,0.3873462080955505,-0.0736715346574783,0.8331800699234009,0.379755437374115,-0.0072327875532209,0.7243743538856506,0.3328041732311249,-0.0380057804286479,0.664037823677063,0.3645586669445038,-0.0625897422432899,0.6241241693496704,0.4052372276782989,-0.0765291228890419,0.8454831838607788,0.411957710981369,-0.0330470316112041,0.7408273816108704,0.3646299242973327,-0.063272900879383,0.6760770082473755,0.3865410089492798,-0.0759751200675964,0.6291154623031616,0.4145964086055755,-0.0798816382884979,0.8430523872375488,0.4666220247745514,-0.0591189973056316,0.7472823858261108,0.4523954689502716,-0.0853721499443054,0.6930198669433594,0.4584810733795166,-0.0949182510375976,0.650363028049469,0.4670317471027374,-0.0968999415636062
2023-08-01 16:05:44.198792,13,376,0.6730448603630066,0.1967503726482391,-0.091764211654663,0.7070214152336121,-0.27099609375,0.90771484375,0.125,0.80768883228302,0.6732094287872314,-7.138410182960797e-07,0.7145061492919922,0.5927842259407043,0.0020349116530269,0.6518982648849487,0.5098849534988403,-0.0089358948171138,0.5949288606643677,0.4647540748119354,-0.0263429153710603,0.553678572177887,0.4210636913776397,-0.0436499342322349,0.7597264647483826,0.3525048196315765,0.0095622828230261,0.6611824035644531,0.3239422440528869,-0.02334551140666,0.5996339321136475,0.3455145955085754,-0.0559093616902828,0.5561580657958984,0.3756472468376159,-0.0772900506854057,0.7818451523780823,0.3600772619247436,-0.0113519085571169,0.6644988656044006,0.3179758787155151,-0.0408131293952465,0.6017767190933228,0.3529983460903168,-0.0679472312331199,0.559798002243042,0.3927758634090423,-0.0857931226491928,0.7924073934555054,0.3949653804302215,-0.0356773473322391,0.6830323934555054,0.3478588461875915,-0.0651137307286262,0.6152385473251343,0.3732984364032745,-0.0820726379752159,0.566256046295166,0.4030254483222961,-0.0907261297106742,0.7874918580055237,0.4544591009616852,-0.0602125562727451,0.689378023147583,0.4452601373195648,-0.0880271643400192,0.6316834092140198,0.4505292475223541,-0.1017352864146232,0.5869420766830444,0.4571660757064819,-0.1078850850462913
2023-08-01 16:05:44.259462,14,377,0.676500141620636,0.1807024478912353,-0.0883353948593139,0.7084426879882812,-0.31103515625,0.92626953125,0.138671875,0.7863178849220276,0.6694132089614868,-8.567242844037537e-07,0.694648027420044,0.5906447172164917,0.0057157916016876,0.6332927942276001,0.5111575722694397,-0.0052436888217926,0.5793572664260864,0.4659971594810486,-0.0232476443052291,0.5367659330368042,0.4252790808677673,-0.0414689034223556,0.7435917258262634,0.3435208201408386,0.0090735014528036,0.6453101634979248,0.3195911347866058,-0.0256642736494541,0.5805820822715759,0.3465965390205383,-0.0585094392299652,0.5378082990646362,0.3816615343093872,-0.0792383477091789,0.7663073539733887,0.3526200652122497,-0.0135481366887688,0.647240400314331,0.315575897693634,-0.0440322794020175,0.5804409384727478,0.3526387512683868,-0.0695227086544036,0.5358258485794067,0.3942136168479919,-0.0855722948908805,0.7762410640716553,0.3881817758083343,-0.0391484759747982,0.6618269085884094,0.3493468165397644,-0.0698517486453056,0.5917201042175293,0.37851282954216,-0.0848612785339355,0.540629506111145,0.4085462987422943,-0.0918156281113624,0.7711337804794312,0.4481841027736664,-0.0643832013010978,0.6688897609710693,0.4420328736305237,-0.0921851322054863,0.6113179326057434,0.4546540081501007,-0.1030564308166503,0.5662535429000854,0.4655310213565826,-0.1066864058375358
2023-08-01 16:05:44.321584,15,378,0.6791855096817017,0.1703854501247406,-0.0852182582020759,0.7088114023208618,-0.32275390625,0.93017578125,0.140625,0.7694324254989624,0.6677963733673096,-8.749860285206523e-07,0.6799914836883545,0.5933270454406738,0.002472179243341,0.6157146096229553,0.512485682964325,-0.0104364641010761,0.5613274574279785,0.4666060507297516,-0.029225617647171,0.5178930759429932,0.4255396425724029,-0.0482926182448864,0.730082094669342,0.3416694402694702,0.0012561616022139,0.6287938356399536,0.3177860379219055,-0.0352666266262531,0.562511682510376,0.3450534343719482,-0.0688070878386497,0.5198174715042114,0.3813056945800781,-0.0899777859449386,0.7524459362030029,0.350735068321228,-0.0203281864523887,0.6301789879798889,0.3108661770820617,-0.0529798418283462,0.5627440214157104,0.3512528538703918,-0.0786656066775322,0.5195618271827698,0.3956880867481231,-0.0941952913999557,0.7619834542274475,0.3877518475055694,-0.0446883924305439,0.6460182070732117,0.3439585864543915,-0.077923335134983,0.5751669406890869,0.3755995333194732,-0.0932760462164878,0.5257726907730103,0.4077311754226684,-0.099751092493534,0.7557052373886108,0.4489766955375671,-0.0685673505067825,0.6501615047454834,0.4415968060493469,-0.0997131690382957,0.5914801955223083,0.4550272226333618,-0.1115294769406318,0.5476346015930176,0.4668073952198028,-0.1149501353502273
2023-08-01 16:05:44.381536,16,379,0.6815049648284912,0.1577547490596771,-0.0846420601010322,0.7095775008201599,-0.3330078125,0.931640625,0.20458984375,0.7618253827095032,0.6682620048522949,-9.035767902787484e-07,0.6675460934638977,0.5976823568344116,0.0048945792950689,0.6014817953109741,0.5180516839027405,-0.0064008990302681,0.5491604804992676,0.4716151654720306,-0.0240868497639894,0.5052951574325562,0.4376516044139862,-0.0422091111540794,0.7076483368873596,0.3442385494709015,0.003652800573036,0.6088817715644836,0.3189164102077484,-0.0326824858784675,0.5432058572769165,0.3506223559379577,-0.0659413263201713,0.5012726783752441,0.3916314244270324,-0.0863330140709877,0.7310124039649963,0.3509731888771057,-0.0186514668166637,0.6091187000274658,0.311284065246582,-0.0502253659069538,0.5414242744445801,0.3576219975948334,-0.074625514447689,0.5003615617752075,0.4074386656284332,-0.0886749774217605,0.7415045499801636,0.3870418965816498,-0.0437096990644931,0.6274253129959106,0.3450611233711242,-0.0747359171509742,0.5565977096557617,0.3809622526168823,-0.0897245928645134,0.5090653896331787,0.4174679815769195,-0.095932587981224,0.7359946370124817,0.4480884671211242,-0.0682373940944671,0.6324106454849243,0.4441415667533874,-0.096050426363945,0.5742907524108887,0.4580523669719696,-0.1071521714329719,0.5307190418243408,0.4700733423233032,-0.1104339584708213
2023-08-01 16:05:44.444054,17,380,0.6829906105995178,0.1403651088476181,-0.0883791446685791,0.7113442420959473,-0.3564453125,0.88720703125,0.234375,0.7108190655708313,0.6707577705383301,-7.893459041952156e-07,0.6084141731262207,0.5917868614196777,0.0171716641634702,0.5468178391456604,0.513052225112915,0.0101641528308391,0.4887889325618744,0.4729783535003662,-0.0054754232987761,0.441368043422699,0.4414528608322143,-0.0231068115681409,0.6608884930610657,0.348066508769989,0.0094673698768019,0.5493636727333069,0.3246406614780426,-0.0167469419538974,0.4845188856124878,0.3536680936813354,-0.0416285693645477,0.4438441395759582,0.3833789825439453,-0.0585814677178859,0.6764505505561829,0.3581169545650482,-0.0175146590918302,0.5452132821083069,0.3184724450111389,-0.040623053908348,0.4807177186012268,0.3573090732097626,-0.059740275144577,0.4390331506729126,0.3966467976570129,-0.0733762457966804,0.6778424382209778,0.3978096842765808,-0.0453855656087398,0.5494157075881958,0.3611872792243957,-0.0683221444487571,0.4828211963176727,0.3928439021110534,-0.0798969641327858,0.4360702335834503,0.42172372341156,-0.0875399112701416,0.6643322110176086,0.4606951773166656,-0.0719032138586044,0.5572854280471802,0.459600031375885,-0.0956663563847541,0.4955219030380249,0.4721755385398865,-0.1067666262388229,0.4467619061470032,0.4822752177715301,-0.1124761253595352
2023-08-01 16:05:44.506822,18,381,0.6832081079483032,0.1310577690601349,-0.0950615555047988,0.7120490670204163,-0.2734375,0.896484375,0.25537109375,0.6905521154403687,0.6749404668807983,-8.590675975028716e-07,0.5910570025444031,0.5949844717979431,0.0174792855978012,0.5264477729797363,0.5171129703521729,0.0079312687739729,0.4661595821380615,0.4797386229038238,-0.0104194460436701,0.4186856746673584,0.4498715400695801,-0.0304256789386272,0.6427698135375977,0.3469972610473633,0.0068052075803279,0.5267373323440552,0.327159583568573,-0.0229148101061582,0.4584398865699768,0.3587872982025146,-0.0513129569590091,0.4161551594734192,0.3928513824939728,-0.0703613832592964,0.6580449342727661,0.3559953868389129,-0.0213484317064285,0.5236212611198425,0.3184084594249725,-0.0471068955957889,0.4566120505332947,0.3597210943698883,-0.0695963203907013,0.4130581617355346,0.4010615944862366,-0.0857106000185012,0.6595379710197449,0.3948160409927368,-0.0498970225453376,0.5327246189117432,0.3505266904830932,-0.0742454677820205,0.4649731814861297,0.3850152790546417,-0.0866841971874237,0.4166885018348694,0.4182684123516083,-0.0949029624462127,0.6449894309043884,0.4581030309200287,-0.0768787264823913,0.5372161269187927,0.4550238847732544,-0.1011114865541458,0.4766759276390075,0.4665227830410003,-0.111749567091465,0.4286105632781982,0.4754391014575958,-0.1170374304056167
2023-08-01 16:05:44.567188,19,382,0.6840777397155762,0.1229733005166053,-0.0963121727108955,0.712488055229187,-0.32080078125,0.9189453125,0.2333984375,0.6729952096939087,0.6767535209655762,-8.67219171141187e-07,0.5706928372383118,0.595116913318634,0.0151403518393635,0.5085183382034302,0.5165746808052063,0.005043804179877,0.4500188529491424,0.4761469662189483,-0.0138551667332649,0.4029075503349304,0.4427715241909027,-0.0344462096691131,0.622823178768158,0.3492471575736999,0.0056311232037842,0.5092350840568542,0.3283829092979431,-0.0265421792864799,0.4422638416290283,0.3608251512050628,-0.0575388595461845,0.3973144590854645,0.3967296183109283,-0.0778838172554969,0.6392198204994202,0.3597449660301208,-0.0217868480831384,0.5061365365982056,0.3213929533958435,-0.0497719347476959,0.4368312060832977,0.3615873754024505,-0.075211152434349,0.3891069889068603,0.4056258499622345,-0.0932973623275756,0.6418362855911255,0.3993431031703949,-0.0500150993466377,0.513094961643219,0.3579875230789184,-0.0764807313680648,0.4430097937583923,0.3943940997123718,-0.0917717739939689,0.3923921883106231,0.4305547475814819,-0.1016299724578857,0.6277170181274414,0.4623605906963348,-0.0768990963697433,0.5216928124427795,0.4586444497108459,-0.1014158055186271,0.4617088437080383,0.4691034257411957,-0.1132323890924453,0.4139735102653503,0.4775265157222748,-0.1197172626852989
2023-08-01 16:05:44.632581,20,383,0.6846805810928345,0.1126585379242897,-0.0952764675021171,0.7137527465820312,-0.32080078125,0.9091796875,0.18505859375,0.6270307302474976,0.6730458736419678,-7.475830443581799e-07,0.521935224533081,0.6054357886314392,0.0181428212672472,0.4606821238994598,0.5269054770469666,0.0095898322761058,0.4006151258945465,0.4899820387363434,-0.0078445831313729,0.3485484719276428,0.4663097858428955,-0.0278280172497034,0.5639971494674683,0.3522385954856872,0.0071674054488539,0.4485207200050354,0.3163768053054809,-0.0208784192800521,0.3775055110454559,0.3478360772132873,-0.0468026064336299,0.3343833684921264,0.3852293789386749,-0.0633729100227356,0.5782151222229004,0.3599528670310974,-0.0200730208307504,0.4423863589763641,0.3080137968063354,-0.042925052344799,0.3702713251113891,0.3483179211616516,-0.0621520914137363,0.3273985385894775,0.3943493366241455,-0.0756725370883941,0.5781582593917847,0.3967055678367615,-0.0477950274944305,0.4489152431488037,0.3445068299770355,-0.0687314495444297,0.3768308162689209,0.3782898485660553,-0.0799532011151313,0.3293829560279846,0.4152852594852447,-0.0874625667929649,0.5614116191864014,0.4557168483734131,-0.0739800482988357,0.4531899988651275,0.4474862217903137,-0.0934965088963508,0.3934331834316253,0.4602974057197571,-0.1020212396979332,0.3488176465034485,0.4725159406661987,-0.10635706782341
2023-08-01 16:05:44.694069,21,384,0.684505820274353,0.1042856499552726,-0.0943332985043525,0.7153163552284241,-0.3134765625,0.91845703125,0.2470703125,0.6153157353401184,0.6691771745681763,-8.092828238659422e-07,0.5094451904296875,0.601142406463623,0.0189214348793029,0.4460430741310119,0.5250653028488159,0.0086648762226104,0.3856203556060791,0.4839966595172882,-0.0111144622787833,0.3351268768310547,0.4519968330860138,-0.0323513746261596,0.5516176223754883,0.3444781303405761,0.0057136393152177,0.4334923923015594,0.3061317503452301,-0.025828355923295,0.3636336922645569,0.3347744047641754,-0.053923524916172,0.3235301375389099,0.3735781013965606,-0.0715412944555282,0.566413402557373,0.3496478497982025,-0.0228387601673603,0.4250869452953338,0.2947831749916076,-0.0498299486935138,0.3553319573402405,0.3353966474533081,-0.071123868227005,0.3152826428413391,0.385176420211792,-0.0860104113817215,0.5672556161880493,0.3850612640380859,-0.051858302205801,0.4318186342716217,0.3311167061328888,-0.0759302601218223,0.3615266680717468,0.3704431653022766,-0.0873219221830368,0.3169319033622741,0.4138068854808807,-0.0949276015162468,0.5494353771209717,0.4457540512084961,-0.0793399140238761,0.4377528727054596,0.4403749108314514,-0.1018021777272224,0.3765738010406494,0.4537420272827148,-0.1123908832669258,0.3314692974090576,0.465658962726593,-0.1182504072785377
2023-08-01 16:05:44.754769,22,385,0.6841295957565308,0.0959556251764297,-0.0913886427879333,0.7172219753265381,-0.29150390625,0.9072265625,0.26123046875,0.6051561832427979,0.6734139919281006,-8.862515983310004e-07,0.4976799190044403,0.5974278450012207,0.026493601500988,0.4363247454166412,0.5221167206764221,0.0184140242636203,0.3759142160415649,0.4812718331813812,-0.0012179776094853,0.3246641159057617,0.450886607170105,-0.0232564378529787,0.5480455756187439,0.3439261615276336,0.0106038218364119,0.4260951280593872,0.3048826158046722,-0.0191269926726818,0.3576365113258362,0.3391076028347015,-0.0448828041553497,0.3210443258285522,0.3808642625808716,-0.060995802283287,0.5594461560249329,0.3521726429462433,-0.0215446166694164,0.4154340624809265,0.2999014854431152,-0.0469480827450752,0.3455050587654114,0.3459312915802002,-0.0664423778653144,0.30604088306427,0.4003971517086029,-0.0802005007863044,0.5577717423439026,0.3902021050453186,-0.053510021418333,0.4171688258647918,0.3433375358581543,-0.0764063075184822,0.3460317254066467,0.387571632862091,-0.085783265531063,0.3010870814323425,0.4329648911952972,-0.0921811163425445,0.5391360521316528,0.4508634209632873,-0.0834117233753204,0.4276663959026336,0.4424929916858673,-0.1043499037623405,0.3672405779361725,0.4568376541137695,-0.1130809336900711,0.3222770690917969,0.4693626761436462,-0.1178172826766967
2023-08-01 16:05:44.816192,23,386,0.6840453147888184,0.0874084383249282,-0.0864658281207084,0.7190030813217163,-0.34619140625,0.8876953125,0.21484375,0.5597667694091797,0.6662443280220032,-8.234044912569516e-07,0.4474357664585113,0.5884100198745728,0.0230040475726127,0.3900483250617981,0.5125529766082764,0.0148127116262912,0.3286023736000061,0.4710066616535187,-0.0034360389690846,0.2760891318321228,0.4457753598690033,-0.0235841441899538,0.5086436867713928,0.337575763463974,0.0096915075555443,0.3922193646430969,0.302044540643692,-0.0159440319985151,0.3223157823085785,0.3439173996448517,-0.0400322638452053,0.2817509770393371,0.3886432647705078,-0.0557633824646472,0.5190744400024414,0.3467947244644165,-0.018023058772087,0.377436876296997,0.2989397048950195,-0.0379978008568286,0.3077084124088287,0.3465339541435241,-0.0542056113481521,0.2668728530406952,0.3968631625175476,-0.0673002079129219,0.511975884437561,0.3857758045196533,-0.0456326752901077,0.3758244216442108,0.3434323072433471,-0.0618335716426372,0.3077718913555145,0.3806296586990356,-0.0687082260847091,0.2635641396045685,0.419404923915863,-0.0752932503819465,0.4858891069889068,0.4452157020568847,-0.0717286318540573,0.377043604850769,0.4339825809001922,-0.0865040868520736,0.3174083828926086,0.4453635215759277,-0.0932332649827003,0.2726609706878662,0.457511693239212,-0.0979045405983924
2023-08-01 16:05:44.900628,24,387,0.6832501292228699,0.0759837552905082,-0.0841675922274589,0.7213262319564819,-0.326171875,0.880859375,0.26806640625,0.5468654036521912,0.6546922326087952,-9.090765047403692e-07,0.4370362460613251,0.5784376859664917,0.0230367891490459,0.3788114488124847,0.5084198117256165,0.0138176754117012,0.3160308599472046,0.4708334505558014,-0.0057680001482367,0.2626240849494934,0.4435534477233886,-0.0286091603338718,0.4923799037933349,0.3423880934715271,0.0079579036682844,0.3705999553203583,0.3208100795745849,-0.0180363319814205,0.3032941818237304,0.3627749681472778,-0.0435592755675315,0.2638205289840698,0.4053052365779876,-0.0612553358078002,0.5032663941383362,0.3472626805305481,-0.02078827470541,0.3563255667686462,0.2991576194763183,-0.0444072186946868,0.2889432907104492,0.3510553538799286,-0.0652970969676971,0.2499949634075164,0.4059596657752991,-0.0817395523190498,0.4995880722999573,0.3846615552902221,-0.0487771965563297,0.363525241613388,0.3332453966140747,-0.0699316933751106,0.2965439558029175,0.3757460117340088,-0.0816802084445953,0.2538349628448486,0.4198938608169555,-0.091189756989479,0.4791498184204101,0.4430350661277771,-0.0745778754353523,0.3727452158927917,0.4275279343128204,-0.0956485420465469,0.3129595518112182,0.4379089474678039,-0.1065787822008133,0.2676980495452881,0.4477245211601257,-0.1141721382737159
2023-08-01 16:05:44.970749,25,388,0.6829454302787781,0.0690274089574813,-0.0824474096298217,0.7225118279457092,-0.27587890625,0.87890625,0.28466796875,0.5372095704078674,0.6481309533119202,-8.713406600691087e-07,0.4260458350181579,0.573906421661377,0.0236867275089025,0.3684166669845581,0.5062944293022156,0.0142780728638172,0.3063506782054901,0.4709278643131256,-0.0053286422044038,0.2535335421562195,0.4456245303153991,-0.0282029882073402,0.4837026298046112,0.3366699814796448,0.0058725238777697,0.3607625365257263,0.317076027393341,-0.0176352132111787,0.2945915460586548,0.3605063259601593,-0.0412676744163036,0.255853533744812,0.4039380550384521,-0.0578819625079631,0.491378515958786,0.3429294228553772,-0.0222374908626079,0.3481586575508117,0.2995215952396393,-0.0418996289372444,0.2821486890316009,0.3481692373752594,-0.0607967004179954,0.2427854090929031,0.3992998301982879,-0.0770506709814071,0.4842904210090637,0.381472498178482,-0.0489696711301803,0.3497127294540405,0.3351756334304809,-0.066913329064846,0.2841327786445617,0.3762917220592499,-0.0770005583763122,0.2423742711544037,0.418123722076416,-0.0865500271320343,0.459775447845459,0.4401734173297882,-0.0733973458409309,0.3510366082191467,0.4292812645435333,-0.0925241783261299,0.2927227318286896,0.4430374205112457,-0.1016228199005127,0.2500329613685608,0.4553435742855072,-0.108285017311573
2023-08-01 16:05:45.046835,26,389,0.6840101480484009,0.0630823671817779,-0.0813650488853454,0.7221706509590149,-0.3642578125,0.8623046875,0.265625,0.5055149793624878,0.6539565324783325,-8.723539508537215e-07,0.3945953845977783,0.5850477814674377,0.0257009379565715,0.3402697443962097,0.5111939907073975,0.0197929143905639,0.27991983294487,0.4758186340332031,0.004365352448076,0.2273333221673965,0.4565570652484894,-0.014525968581438,0.4483147263526916,0.336686909198761,0.0087209288030862,0.3213951587677002,0.3263224959373474,-0.0098965242505073,0.2550458908081054,0.374205470085144,-0.0300466883927583,0.2170105725526809,0.4166776537895202,-0.0442391782999038,0.4535034894943237,0.3404110670089721,-0.0179609954357147,0.3089843392372131,0.3048806190490722,-0.0332856215536594,0.2416838407516479,0.3564635813236236,-0.0481210015714168,0.2021371275186538,0.4100574851036072,-0.060839582234621,0.4424425363540649,0.377036839723587,-0.0427000932395458,0.3059864044189453,0.3395247757434845,-0.0549509637057781,0.2413448393344879,0.3833974599838257,-0.061679434031248,0.2013179510831833,0.4255774021148681,-0.0691189616918563,0.4134828150272369,0.4350714981555938,-0.0652002468705177,0.3016669154167175,0.4299316704273224,-0.0788168907165527,0.2451083213090896,0.4502105712890625,-0.0846038311719894,0.2046329528093338,0.4674288928508758,-0.0889047607779502
2023-08-01 16:05:45.115634,27,390,0.6851268410682678,0.0612110681831836,-0.0818635523319244,0.7212162613868713,-0.3974609375,0.8935546875,0.26123046875,0.4904218316078186,0.6509900093078613,-9.042990427587938e-07,0.3820765912532806,0.5791211128234863,0.0263628456741571,0.3286478519439697,0.5110551714897156,0.0202410425990819,0.2683275938034057,0.4757728576660156,0.0048026144504547,0.2161177396774292,0.4536921679973602,-0.0144709860906004,0.435709148645401,0.34042888879776,0.005704017356038,0.3073288798332214,0.3359133601188659,-0.0094013437628746,0.2425564080476761,0.3837367296218872,-0.0266100410372018,0.2063947468996048,0.4256330132484436,-0.0396390743553638,0.4428083002567291,0.3419715166091919,-0.0201998949050903,0.2983996272087097,0.3078207671642303,-0.0325474478304386,0.2349713593721389,0.3577823638916015,-0.0470796376466751,0.1972272098064422,0.4089417159557342,-0.0614347532391548,0.4339929819107055,0.3779610693454742,-0.043151993304491,0.3006661832332611,0.3344012498855591,-0.054780650883913,0.2380553632974624,0.3777846395969391,-0.0625221654772758,0.1980698704719543,0.4209471046924591,-0.0718902945518493,0.4071005880832672,0.4369524121284485,-0.0632298067212104,0.2959796786308288,0.4295487999916076,-0.0779746621847152,0.2399302273988723,0.4469945132732391,-0.0847031027078628,0.1990888863801956,0.4620826244354248,-0.0904008671641349
2023-08-01 16:05:45.181915,28,391,0.6849129796028137,0.0617256537079811,-0.0855143517255783,0.7209517955780029,-0.32666015625,0.888671875,0.24267578125,0.4822168946266174,0.650144100189209,-9.16219676128094e-07,0.3767367601394653,0.5804210901260376,0.0260917637497186,0.3220022618770599,0.511570930480957,0.0208205785602331,0.2606996893882751,0.4766218364238739,0.0071257464587688,0.2085740119218826,0.4565433263778686,-0.0104895643889904,0.4278185665607452,0.3444955050945282,0.0010463849175721,0.2979501187801361,0.3371671438217163,-0.0127359135076403,0.2334266901016235,0.3856406807899475,-0.027948435395956,0.1973603814840316,0.4289142489433288,-0.0393891222774982,0.4338650703430176,0.345161497592926,-0.0235990919172763,0.2895559668540954,0.305280864238739,-0.035799752920866,0.2276191115379333,0.3581844866275787,-0.0482405237853527,0.1909596174955368,0.413724273443222,-0.0599476248025894,0.4249840378761291,0.38057541847229,-0.0445286035537719,0.2928533256053924,0.3325164318084717,-0.0551532506942749,0.2326475977897644,0.3774347305297851,-0.0608617924153804,0.1939725428819656,0.4224892556667328,-0.0682885497808456,0.3982461094856262,0.439423143863678,-0.0623913630843162,0.2863557934761047,0.4315498471260071,-0.076575331389904,0.2304083257913589,0.451012909412384,-0.0817481279373169,0.189517080783844,0.4685722589492798,-0.0857664197683334
2023-08-01 16:05:45.245088,29,392,0.6845606565475464,0.0602265521883964,-0.0869543403387069,0.7212409377098083,-0.3154296875,0.87890625,0.27978515625,0.4705133438110351,0.6674401164054871,-8.956707802099118e-07,0.3629873692989349,0.5951793193817139,0.0299240127205848,0.3063957691192627,0.5237650871276855,0.0271942391991615,0.2425444722175598,0.4850643575191498,0.0150341615080833,0.1872972846031189,0.4661582112312317,0.0001485876709921,0.4025090336799621,0.3534726500511169,0.0119476001709699,0.2765996158123016,0.3317822217941284,0.0005952956271357,0.2150944769382476,0.3820883333683014,-0.0117721511051058,0.1811847388744354,0.4262959361076355,-0.0210750382393598,0.4073817729949951,0.3553370237350464,-0.01489326544106,0.260949045419693,0.3116808533668518,-0.025761054828763,0.2005480527877807,0.367247074842453,-0.0370563082396984,0.1659958213567733,0.4243941307067871,-0.0471575707197189,0.3987393379211426,0.3905074596405029,-0.0386953800916671,0.2612933814525604,0.3554480969905853,-0.0453644767403602,0.2020133584737777,0.3999205529689789,-0.0497319400310516,0.1638401001691818,0.4417275786399841,-0.0564494095742702,0.3748988509178161,0.4490680396556854,-0.0598327070474624,0.2667995393276214,0.4386956095695495,-0.0686138272285461,0.2115848958492279,0.4554629623889923,-0.0722884759306907,0.1698473840951919,0.4695482850074768,-0.0758495926856994
2023-08-01 16:05:45.306610,30,393,0.6848405003547668,0.0598092228174209,-0.0878064110875129,0.720906674861908,-0.29736328125,0.90185546875,0.26416015625,0.4636989831924438,0.6662874817848206,-9.085646297535276e-07,0.3555625379085541,0.5924922227859497,0.0347266159951686,0.3009584546089172,0.52288419008255,0.0286854729056358,0.2385022938251495,0.4894476234912872,0.0104674007743597,0.1840756088495254,0.4705481231212616,-0.0114502580836415,0.4011968970298767,0.3478044271469116,0.0159137770533561,0.2738931775093078,0.3306092321872711,-0.0008039215463213,0.2128738760948181,0.3779906332492828,-0.0189907886087894,0.1776230931282043,0.4214382767677307,-0.0316786058247089,0.404935210943222,0.3519423604011535,-0.0155490553006529,0.2591710388660431,0.3114563524723053,-0.0303074978291988,0.1989345848560333,0.3665531873703003,-0.0473207682371139,0.1631158739328384,0.4212849736213684,-0.0617631115019321,0.3953717350959778,0.3879130482673645,-0.0436947792768478,0.2595345973968506,0.3354638218879699,-0.0543715059757232,0.2001866847276687,0.3842006325721741,-0.0603281408548355,0.1637188643217086,0.4321555197238922,-0.0674972906708717,0.3679032623767853,0.4459742903709411,-0.0686041563749313,0.254509687423706,0.4351885616779327,-0.0799783319234848,0.1993395239114761,0.4536901116371155,-0.0836953595280647,0.1609360128641128,0.4704708158969879,-0.0867953598499298
2023-08-01 16:05:45.358840,31,394,0.6850615739822388,0.0601844936609268,-0.0880388841032981,0.7206369042396545,-0.32666015625,0.89794921875,0.259765625,0.4628799557685852,0.661868691444397,-9.393713753524936e-07,0.3523608446121216,0.5922799706459045,0.0374601706862449,0.2991068363189697,0.5231175422668457,0.0344187468290329,0.2380688041448593,0.4877509176731109,0.0188475158065557,0.1833339184522628,0.4693264067173004,-0.0011985065648332,0.3951215744018554,0.3531552255153656,0.0207443200051784,0.2685909569263458,0.3364949226379394,0.0043938155286014,0.2060578465461731,0.3854876458644867,-0.0144317923113703,0.1714408248662948,0.4292133748531341,-0.0274732485413551,0.4000602662563324,0.3553691506385803,-0.0112345470115542,0.2546870410442352,0.3134949505329132,-0.0243004746735095,0.1935983002185821,0.3702295422554016,-0.0404956974089145,0.1597541272640228,0.4259108006954193,-0.0546139627695083,0.3915532827377319,0.3902426958084106,-0.0400671958923339,0.2557209730148315,0.3355554938316345,-0.0505124926567077,0.1961938291788101,0.3871458768844604,-0.0564420148730278,0.1614677011966705,0.4363977015018463,-0.0636453181505203,0.3656246662139892,0.4470441341400146,-0.065358854830265,0.2502273321151733,0.4367641806602478,-0.0767833590507507,0.1956334710121154,0.4577778279781341,-0.0802408456802368,0.1584779471158981,0.4753121137619018,-0.0832496359944343
2023-08-01 16:05:45.419579,32,395,0.6850166320800781,0.0606358423829078,-0.0878757834434509,0.7206617593765259,-0.306640625,0.8837890625,0.26953125,0.454597532749176,0.6592440605163574,-9.087277703656582e-07,0.3474479019641876,0.5899525880813599,0.0355570539832115,0.294760525226593,0.5219950675964355,0.0311189200729131,0.233935922384262,0.4878522455692291,0.0147454170510172,0.1807674318552017,0.4680296182632446,-0.0057736332528293,0.3936079144477844,0.3503915667533874,0.0153498072177171,0.2667027711868286,0.3350379765033722,0.001093816012144,0.2052299380302429,0.3833771049976349,-0.0149710346013307,0.1710879057645797,0.4254855811595917,-0.0266388431191444,0.398157000541687,0.3526766896247864,-0.0157236196100711,0.2525384724140167,0.3126705586910248,-0.0279245767742395,0.1917973756790161,0.3678373992443084,-0.0428477525711059,0.157910406589508,0.4218133985996246,-0.0565683841705322,0.389110803604126,0.3875191807746887,-0.043286882340908,0.2540060579776764,0.3343781232833862,-0.0530639141798019,0.1941147595643997,0.3833658397197723,-0.0587318763136863,0.1588367819786071,0.4316255152225494,-0.0662441477179527,0.3622490763664245,0.443693995475769,-0.0673777908086776,0.2483157664537429,0.4340882003307342,-0.0788797661662101,0.1920422315597534,0.4539130926132202,-0.0829617455601692,0.1534903794527053,0.4706981778144836,-0.0867295041680336
2023-08-01 16:05:45.481900,33,396,0.6855161786079407,0.0604713037610054,-0.0863124653697013,0.7203894257545471,-0.34326171875,0.89013671875,0.2568359375,0.4510285258293152,0.6562082767486572,-9.411363066647028e-07,0.3405729830265045,0.5876539945602417,0.0353563018143177,0.2869919836521148,0.5200129747390747,0.0329375974833965,0.2255549728870391,0.4833857417106628,0.0185350459069013,0.1722231805324554,0.4640773832798004,0.0002086541207972,0.3892303109169006,0.3532676696777344,0.020085534080863,0.2633360624313354,0.3364585041999817,0.0052199778147041,0.20195372402668,0.3855807483196258,-0.0119997402653098,0.1686367392539978,0.4288927316665649,-0.0242593064904212,0.3940097689628601,0.3560609519481659,-0.0111241936683654,0.2491747438907623,0.3142748475074768,-0.0220643188804388,0.1893839240074157,0.370111346244812,-0.0353578925132751,0.1570159047842025,0.4261453449726105,-0.0477835536003112,0.3856366574764251,0.390348732471466,-0.0398118197917938,0.2489000707864761,0.3403571248054504,-0.0495370849967002,0.1903288066387176,0.3912178575992584,-0.0543383583426475,0.1557528674602508,0.4396010935306549,-0.0610199719667434,0.3607948124408722,0.4466492533683777,-0.0654015243053436,0.2459873408079147,0.439851701259613,-0.0777418762445449,0.1907941997051239,0.4602446258068084,-0.0820341929793357,0.1520145833492279,0.4773767292499542,-0.0856688767671585
2023-08-01 16:05:45.549413,34,397,0.6860674619674683,0.062554657459259,-0.0864086598157882,0.719674825668335,-0.3193359375,0.8818359375,0.275390625,0.4602784514427185,0.6606709361076355,-9.45979195421387e-07,0.3489031195640564,0.5925562977790833,0.0383378863334655,0.2946163415908813,0.5233405828475952,0.0368816144764423,0.2326164245605468,0.4864951372146606,0.0235151574015617,0.1786347925662994,0.4688588976860046,0.0063898698426783,0.3924379348754883,0.3536368310451507,0.0188476201146841,0.2655673027038574,0.338542103767395,0.005781983025372,0.2042045593261718,0.3863604664802551,-0.0090036923065781,0.16835518181324,0.4267433285713196,-0.020032437518239,0.3963595628738403,0.3549411594867706,-0.0134721025824546,0.2496649324893951,0.315649539232254,-0.0245235040783882,0.1891368776559829,0.3699142336845398,-0.0364766642451286,0.1549673974514007,0.4262227416038513,-0.047888308763504,0.3875687718391418,0.3903190195560455,-0.0425118841230869,0.2504738867282867,0.3477380573749542,-0.0505864284932613,0.1905876398086547,0.3959019482135772,-0.0541268289089202,0.1531555354595184,0.4415228962898254,-0.0606061033904552,0.3636322319507599,0.4485231041908264,-0.0682358816266059,0.2540148794651031,0.4436303377151489,-0.0780239179730415,0.1989379525184631,0.462571233510971,-0.0812707394361496,0.1585424244403839,0.4771261811256408,-0.0848894789814949
2023-08-01 16:05:45.608899,35,398,0.6867027878761292,0.0651124566793441,-0.084192581474781,0.7191044688224792,-0.33984375,0.89404296875,0.27197265625,0.459359347820282,0.6641639471054077,-8.944209639594192e-07,0.3511212766170501,0.5957826972007751,0.0338150039315223,0.2950896620750427,0.5252089500427246,0.0300464741885662,0.2327516376972198,0.4886415600776672,0.0148830050602555,0.1786987036466598,0.4693930149078369,-0.003487799083814,0.3941527605056762,0.3561547398567199,0.0153092602267861,0.2668155431747436,0.336253672838211,-0.0004050609131809,0.2059469074010849,0.3828111588954925,-0.0165249295532703,0.1705089807510376,0.4239255487918854,-0.0279204286634922,0.3988226652145386,0.3573330640792846,-0.0151460105553269,0.2520002126693725,0.3149991035461426,-0.0285972002893686,0.1918267458677292,0.367525190114975,-0.0420380979776382,0.1576204299926757,0.4212469756603241,-0.0540957115590572,0.390578418970108,0.3917759656906128,-0.042880430817604,0.2524315118789673,0.3423274159431457,-0.0544622838497161,0.1926475763320922,0.3900449573993683,-0.0592695102095603,0.1559005081653595,0.4375315904617309,-0.0654753372073173,0.3658858835697174,0.4489095509052276,-0.0674835219979286,0.255239725112915,0.4420742392539978,-0.0805336907505989,0.1984381973743438,0.4610428214073181,-0.0851997956633567,0.1571042835712433,0.4768640100955963,-0.0889732465147972
2023-08-01 16:05:45.670666,36,399,0.6873294115066528,0.0686887875199318,-0.081977941095829,0.7184286713600159,-0.341796875,0.87939453125,0.26025390625,0.4780775308609009,0.6663001775741577,-9.464396271141596e-07,0.3630650043487549,0.6019734740257263,0.0376390069723129,0.307972103357315,0.5307790040969849,0.0364121906459331,0.248569518327713,0.4947544038295746,0.0228346958756446,0.1954994797706604,0.4738999903202057,0.0055683059617877,0.4015198051929474,0.3507015109062195,0.0214144308120012,0.2766262590885162,0.3357992172241211,0.0062737264670431,0.2166269719600677,0.3862771391868591,-0.0111446417868137,0.183718204498291,0.4299123883247375,-0.0237976629287004,0.4068847894668579,0.3530123829841614,-0.0110340174287557,0.2639709711074829,0.3159561157226562,-0.0236461143940687,0.2032458335161209,0.3695994317531585,-0.0376207083463668,0.1699710935354232,0.4253425300121307,-0.0505524426698684,0.3997579216957092,0.3906256854534149,-0.0408631488680839,0.2644578516483307,0.3486291766166687,-0.0515117049217224,0.2037506997585296,0.3947784900665283,-0.0566787309944629,0.1673326641321182,0.4395155906677246,-0.0638870149850845,0.3775312304496765,0.4513498544692993,-0.0674323812127113,0.2659085094928741,0.4451236128807068,-0.0790463387966156,0.2093360424041748,0.4629261493682861,-0.0833206102252006,0.1692104488611221,0.4765280187129974,-0.087576612830162
2023-08-01 16:05:45.732612,37,400,0.6881788969039917,0.074242889881134,-0.0809680819511413,0.7171764373779297,-0.35009765625,0.89306640625,0.25439453125,0.4747627973556518,0.6620987057685852,-9.22680612802651e-07,0.3641766309738159,0.5981290936470032,0.0350047722458839,0.311684787273407,0.5271153450012207,0.0329399220645427,0.2544284760951996,0.4927230775356293,0.0193177927285432,0.2030572891235351,0.4741671085357666,0.0024430239573121,0.4087068140506744,0.348298966884613,0.0172995701432228,0.2868696749210357,0.3279600143432617,0.001833142247051,0.2271742075681686,0.3770800530910492,-0.014739410020411,0.1957729458808899,0.4220873415470123,-0.0266953203827142,0.413187563419342,0.3513972163200378,-0.0129510760307312,0.2715988755226135,0.3140812218189239,-0.0244507659226655,0.2120986580848693,0.365089476108551,-0.0376844555139541,0.1809917837381363,0.4172070622444153,-0.0508409105241298,0.4052034318447113,0.388062834739685,-0.0407542586326599,0.271877259016037,0.3427737057209015,-0.051932469010353,0.2111453562974929,0.3875128030776977,-0.0579189844429492,0.1753776520490646,0.4326630532741546,-0.0657626464962959,0.3807315528392792,0.4473076164722442,-0.0652995109558105,0.2725672125816345,0.4409123361110687,-0.0783475637435913,0.2154148817062378,0.4594613015651703,-0.0839935019612312,0.1742772907018661,0.4750489294528961,-0.0891465321183204
2023-08-01 16:05:45.798783,38,401,0.6893605589866638,0.0830669030547142,-0.0815965682268142,0.714999258518219,-0.33935546875,0.896484375,0.23583984375,0.4796113073825836,0.6577396392822266,-9.039306974045758e-07,0.3717692494392395,0.5938369035720825,0.0303583685308694,0.3185765743255615,0.526243269443512,0.0245103705674409,0.2602496743202209,0.49151411652565,0.0082261273637413,0.2087195068597793,0.4704837799072265,-0.0115126054733991,0.4202211201190948,0.3464446067810058,0.0058020530268549,0.2934489548206329,0.3306635618209839,-0.0118148233741521,0.2322526425123214,0.3808660507202148,-0.0297478809952735,0.1987646371126175,0.4255341291427612,-0.0426767542958259,0.4238927960395813,0.3502665162086487,-0.022464882582426,0.2804330587387085,0.3127828240394592,-0.0364410355687141,0.2193020284175872,0.3620548248291015,-0.0501892156898975,0.1848263591527938,0.4150716960430145,-0.0639413818717002,0.4143858551979065,0.3889901041984558,-0.0477946773171424,0.2791104316711426,0.3463912606239319,-0.0597029067575931,0.2180047631263733,0.3904895186424255,-0.0652950406074523,0.181201696395874,0.435608834028244,-0.0733513981103897,0.3890519142150879,0.4493752121925354,-0.070199117064476,0.278930515050888,0.4441889524459839,-0.0840186104178428,0.2206523120403289,0.4626176655292511,-0.0899185761809349,0.1786952465772628,0.4783244132995605,-0.0953635275363922
2023-08-01 16:05:45.854991,39,402,0.69029301404953,0.0916215404868125,-0.0819977149367332,0.7130059003829956,-0.32763671875,0.8935546875,0.2275390625,0.5149818062782288,0.6630944013595581,-9.563193543726811e-07,0.4074420630931854,0.5943741798400879,0.0286716502159833,0.3523750305175781,0.5223307609558105,0.0215276312083005,0.2951758503913879,0.4821797013282776,0.0043060523457825,0.243960827589035,0.4586061835289001,-0.0159221645444631,0.4655790328979492,0.3506120145320892,0.00390668772161,0.3434638082981109,0.3232593536376953,-0.0191820729523897,0.2769452631473541,0.3665007352828979,-0.0409952066838741,0.2386459410190582,0.4127078354358673,-0.0551527217030525,0.471598744392395,0.3565800786018371,-0.0244484078139066,0.3314904570579529,0.3118970394134521,-0.0441277846693992,0.2619612216949463,0.3586284816265106,-0.0602619089186191,0.220304399728775,0.4117363691329956,-0.0735792964696884,0.4612813591957092,0.394887238740921,-0.0503149852156639,0.3281056880950928,0.3457078337669372,-0.0658771246671676,0.2616753280162811,0.385050892829895,-0.0713630989193916,0.221098780632019,0.4278692305088043,-0.0773372948169708,0.4317832589149475,0.4534892737865448,-0.0733619406819343,0.3175853192806244,0.4434681236743927,-0.0881126746535301,0.260084331035614,0.4619147479534149,-0.0921230465173721,0.2214011400938034,0.4793091714382171,-0.0948465019464492
2023-08-01 16:05:45.922712,40,403,0.6906812787055969,0.1003354042768478,-0.0814683511853218,0.7115160226821899,-0.3828125,0.890625,0.19970703125,0.5209590196609497,0.6627016067504883,-9.04925400391221e-07,0.4138330519199371,0.59077388048172,0.0216131228953599,0.3550155162811279,0.5219681859016418,0.0117578897625207,0.2943711876869201,0.4824609756469726,-0.0066290399990975,0.2441591024398803,0.4538193941116333,-0.0278717838227748,0.4782485961914062,0.3518533706665039,-0.0060804788954555,0.3489930629730224,0.3300661444664001,-0.0299549382179975,0.2814661264419555,0.3712132573127746,-0.0514146611094474,0.241593599319458,0.4135786592960357,-0.0658884271979332,0.483120858669281,0.3598035871982574,-0.0317542552947998,0.3368710279464721,0.3143527507781982,-0.0519484244287014,0.2718580365180969,0.3600077927112579,-0.0677225142717361,0.232887253165245,0.4129971265792846,-0.0813432410359382,0.472624659538269,0.398451030254364,-0.055200308561325,0.3347435593605041,0.3561352789402008,-0.0726060345768928,0.2714498937129974,0.3936526179313659,-0.0798139125108718,0.2312607765197754,0.4351514279842376,-0.0872371047735214,0.4455717504024505,0.456795871257782,-0.0763793513178825,0.3355165719985962,0.4445333480834961,-0.0949250906705856,0.2770136594772339,0.4588410258293152,-0.1024034321308136,0.2341397553682327,0.4745627045631408,-0.1075614318251609
2023-08-01 16:05:45.984827,41,404,0.6911090612411499,0.1064038574695587,-0.0805587396025657,0.7103216648101807,-0.333984375,0.91015625,0.18212890625,0.532178521156311,0.6685521602630615,-9.157881208921026e-07,0.4280115664005279,0.5936225652694702,0.0229426231235265,0.3678618371486664,0.5212602019309998,0.015673853456974,0.3112335801124573,0.4823199808597564,-0.0007882513455115,0.2654685378074646,0.4562085270881653,-0.019635247066617,0.4897079467773437,0.3545324206352234,0.0001209060428664,0.3656089901924133,0.3283601403236389,-0.0259071569889783,0.2974108457565307,0.365429162979126,-0.0494814552366733,0.2567638158798218,0.4080644249916076,-0.0650360658764839,0.4937485754489898,0.3646899759769439,-0.0271087791770696,0.3526090979576111,0.3197571337223053,-0.0480196252465248,0.2858853340148926,0.3619633913040161,-0.0657446831464767,0.2447135150432586,0.4118083715438843,-0.0805870667099952,0.4829223453998565,0.4036554992198944,-0.0530796162784099,0.3479826748371124,0.364834189414978,-0.0721631050109863,0.281318336725235,0.3999913036823272,-0.0822808817028999,0.2375309020280838,0.4385983943939209,-0.091260626912117,0.4568575620651245,0.462772011756897,-0.0768964067101478,0.3496619462966919,0.4489743709564209,-0.0961246639490127,0.2896744310855865,0.4612680673599243,-0.1054513230919838,0.2443885803222656,0.4752676486968994,-0.1119961142539978
2023-08-01 16:05:46.042954,42,405,0.6919463872909546,0.1101226657629013,-0.0773460268974304,0.7092959880828857,-0.35009765625,0.92724609375,0.16064453125,0.547461748123169,0.6728076338768005,-9.047386129168444e-07,0.4480699896812439,0.5993303060531616,0.0227033626288175,0.3875506520271301,0.5253012180328369,0.0151491314172744,0.3295280635356903,0.4855566322803497,-0.0013915982563048,0.281816303730011,0.4593683183193207,-0.0199035853147506,0.5069743394851685,0.3582526445388794,0.0006500838208012,0.3855538070201874,0.3267931938171386,-0.0249413717538118,0.3172699809074402,0.364441305398941,-0.0469789206981658,0.2776400744915008,0.4094027876853943,-0.0614221543073654,0.5104933381080627,0.367732971906662,-0.0269964430481195,0.3687948584556579,0.3148165941238403,-0.0490995049476623,0.3018209338188171,0.3597630858421325,-0.0655793920159339,0.261661946773529,0.4132759869098663,-0.0781323984265327,0.4994184374809265,0.4063127934932709,-0.0535155273973941,0.364998996257782,0.3599409162998199,-0.0738509744405746,0.2983173131942749,0.3965290188789367,-0.082938827574253,0.2549490332603454,0.4365407526493072,-0.090173102915287,0.4733816087245941,0.4651471078395843,-0.0777859091758728,0.366082489490509,0.4514299631118774,-0.0990368202328682,0.3061979711055755,0.4644140303134918,-0.1087910607457161,0.2606006860733032,0.4771398901939392,-0.1147239804267883
2023-08-01 16:05:46.101838,43,406,0.6953255534172058,0.1070060729980468,-0.0667964145541191,0.7075382471084595,-0.2607421875,0.87939453125,0.208984375,0.5949737429618835,0.6854334473609924,-8.727845397515921e-07,0.4951870739459991,0.6138455867767334,0.0162750910967588,0.4338834583759308,0.5361561179161072,0.0035317696165293,0.3764331936836242,0.4881460964679718,-0.0171458274126052,0.3289476633071899,0.4545076191425323,-0.0391599461436271,0.5526938438415527,0.3690265119075775,-0.0086486265063285,0.4362605512142181,0.3143116235733032,-0.0405854471027851,0.3675209581851959,0.3374196887016296,-0.0659118294715881,0.3265865743160248,0.3732258677482605,-0.0816928446292877,0.5626113414764404,0.3782244026660919,-0.034751396626234,0.4227438867092132,0.3108734488487243,-0.0616834536194801,0.3538839817047119,0.3472145795822143,-0.079457089304924,0.3120631277561188,0.3942406773567199,-0.0921971872448921,0.5570691823959351,0.4150432646274566,-0.0605045221745967,0.4201982319355011,0.3531087040901184,-0.0845393687486648,0.3509747684001922,0.3884160816669464,-0.0930432751774787,0.3068198561668396,0.4299375712871551,-0.0989794135093689,0.5338562726974487,0.4744057655334472,-0.0846782699227333,0.4244758188724518,0.4644347727298736,-0.1075714826583862,0.3645327091217041,0.4730220735073089,-0.1180874481797218,0.3197890520095825,0.4814759492874145,-0.1240691915154457
2023-08-01 16:05:46.167866,44,407,0.6985195875167847,0.1045176908373832,-0.0563750937581062,0.7056686282157898,-0.46142578125,0.8984375,0.216796875,0.6108129024505615,0.6833480000495911,-8.386622312173131e-07,0.5067882537841797,0.6100525259971619,0.0209353826940059,0.4479516148567199,0.5307466983795166,0.0112681332975626,0.3938929140567779,0.4829582870006561,-0.0074011809192597,0.3486285507678985,0.4494599103927612,-0.028131665661931,0.5665767192840576,0.3659594058990478,-0.0040239593945443,0.4468240439891815,0.3142002820968628,-0.0350143760442733,0.3743047416210174,0.3366320431232452,-0.0603875741362571,0.3299178779125213,0.372478723526001,-0.0756836459040641,0.5759997367858887,0.3755775690078735,-0.0313486084342002,0.4376112222671509,0.3113264143466949,-0.0548986084759235,0.3643813729286194,0.3415693938732147,-0.0726423412561416,0.3191112875938415,0.3829602003097534,-0.0866674780845642,0.5702354907989502,0.4135139286518097,-0.0579324848949909,0.437891274690628,0.3525969982147217,-0.0804918408393859,0.3676599860191345,0.3860547840595245,-0.0903531312942504,0.3219412565231323,0.4247143268585205,-0.0977549627423286,0.5465924739837646,0.4731149971485138,-0.0823828801512718,0.4415130317211151,0.4548768103122711,-0.1029109060764312,0.3835329413414001,0.46503347158432,-0.1118033304810524,0.340053379535675,0.4757825434207916,-0.1171503067016601
2023-08-01 16:05:46.227601,45,408,0.6984689831733704,0.114338606595993,-0.059965644031763,0.7038977146148682,-0.3525390625,0.890625,0.13232421875,0.6329667568206787,0.6915450096130371,-8.267408588835679e-07,0.5342716574668884,0.6139055490493774,0.0181770343333482,0.4743659496307373,0.5296504497528076,0.0070554306730628,0.4194872081279754,0.4784688055515289,-0.0125806489959359,0.3710098266601562,0.4454421103000641,-0.0341398976743221,0.5924110412597656,0.3660434484481811,-0.0061797411181032,0.470841109752655,0.3124222159385681,-0.0391031540930271,0.3970170319080353,0.3249479234218597,-0.0660675540566444,0.347210168838501,0.3521272242069244,-0.0826023295521736,0.6018061637878418,0.3794673085212707,-0.0336089022457599,0.4631301164627075,0.313743382692337,-0.0601093769073486,0.3908421099185943,0.34178227186203,-0.0799099579453468,0.3422200083732605,0.3788084387779236,-0.0949466973543167,0.5958442687988281,0.4203178286552429,-0.0604838319122791,0.4630485475063324,0.3577391803264618,-0.0854261144995689,0.3958215713500976,0.3918237686157226,-0.0953903943300247,0.3505939245223999,0.4288004040718078,-0.1023095548152923,0.5722825527191162,0.4818701148033142,-0.0855875760316848,0.4674166440963745,0.4616672098636627,-0.1087678521871566,0.4104164242744446,0.4717803001403808,-0.1186473295092582,0.3672312498092651,0.4817332625389099,-0.1243404746055603
2023-08-01 16:05:46.297927,46,409,0.6985359191894531,0.1262528747320175,-0.0653776749968528,0.7013084292411804,-0.35888671875,0.88818359375,0.12255859375,0.6414186358451843,0.694835901260376,-9.109855341193906e-07,0.54135662317276,0.6055478453636169,0.021792821586132,0.482673704624176,0.5182607173919678,0.0128428796306252,0.429712176322937,0.464731901884079,-0.0050731007941067,0.3857113122940063,0.4266436100006103,-0.0248518101871013,0.6048361659049988,0.3645997047424316,-0.0023536367807537,0.4819972515106201,0.3188727498054504,-0.0321880057454109,0.4100800454616546,0.3443410992622375,-0.056696742773056,0.3652456402778625,0.3787651360034942,-0.072383239865303,0.6131854057312012,0.3772544860839844,-0.0307937003672122,0.4716068506240845,0.3155897855758667,-0.0565788932144641,0.4005637168884277,0.3572299182415008,-0.0743699595332145,0.3568587601184845,0.4042269587516784,-0.0875575542449951,0.6063438057899475,0.4181536138057709,-0.0582931898534297,0.4726455509662628,0.3578038811683655,-0.0823205709457397,0.405459314584732,0.3963813185691833,-0.0917286127805709,0.3615162074565887,0.4355574548244476,-0.0983443707227706,0.5837966799736023,0.4802353680133819,-0.0836011916399002,0.4803298115730285,0.4619560241699219,-0.1064484119415283,0.4213499426841736,0.4711239635944366,-0.116484098136425,0.3764840364456177,0.47859987616539,-0.1224162951111793
2023-08-01 16:05:46.360872,47,410,0.6986793875694275,0.1347931921482086,-0.0686453059315681,0.6992608308792114,-0.37158203125,0.91357421875,0.1689453125,0.6849681735038757,0.6992655396461487,-9.43252814522566e-07,0.5815696120262146,0.6070868372917175,0.0167183075100183,0.5208627581596375,0.5224929451942444,0.0041615106165409,0.4677685499191284,0.4700717329978943,-0.0169126838445663,0.4241319000720978,0.4302728176116943,-0.0393338538706302,0.6468523740768433,0.3712484538555145,-0.0070933317765593,0.5302907824516296,0.3247808218002319,-0.0412494055926799,0.4624783098697662,0.3525896072387695,-0.0680717900395393,0.4241098165512085,0.387914091348648,-0.0853417962789535,0.6615728139877319,0.3865091204643249,-0.0350211262702941,0.524569571018219,0.3260426521301269,-0.0662037134170532,0.4566332101821899,0.3676645159721374,-0.0865334942936897,0.417489230632782,0.4129498600959778,-0.100901298224926,0.6601446866989136,0.4280315637588501,-0.0629607662558555,0.5282161831855774,0.3720139861106872,-0.0912355706095695,0.4583024978637695,0.4076272547245025,-0.1013896167278289,0.4136236310005188,0.4440982937812805,-0.1078466549515724,0.6420643925666809,0.4903823733329773,-0.0892438441514968,0.5364315509796143,0.4713958203792572,-0.1141455695033073,0.4767690598964691,0.4754780828952789,-0.1250370144844055,0.4320988059043884,0.4771455526351928,-0.1314166784286499
2023-08-01 16:05:46.426622,48,411,0.6983892321586609,0.1422011405229568,-0.0715328231453895,0.6977925300598145,-0.3740234375,0.89453125,0.158203125,0.6935091018676758,0.688361644744873,-9.229433999280444e-07,0.5932468771934509,0.6015154123306274,0.0216047763824462,0.5360531806945801,0.5237600803375244,0.012149672023952,0.4851563572883606,0.4763248562812805,-0.0062665892764925,0.44450643658638,0.4378446340560913,-0.0269469451159238,0.6661096811294556,0.3703676760196686,-0.0046866601333022,0.5471830368041992,0.332010269165039,-0.0321898683905601,0.4804241061210632,0.3668487668037414,-0.054540991783142,0.4455699622631073,0.4036332070827484,-0.0700362846255302,0.676486611366272,0.384961873292923,-0.0333858206868171,0.540564239025116,0.3285378813743591,-0.0590892918407917,0.473559558391571,0.3707164525985718,-0.0761821046471595,0.4359204173088074,0.4147242307662964,-0.0894607603549957,0.6694292426109314,0.4274073839187622,-0.0610287897288799,0.5389630794525146,0.3711843490600586,-0.0864286571741104,0.4716917872428894,0.403990626335144,-0.0951550304889679,0.4294624924659729,0.4369948804378509,-0.1017272099852562,0.6468411684036255,0.489927738904953,-0.0862473100423812,0.5369073152542114,0.4692454934120178,-0.112308382987976,0.4765456318855285,0.4771963953971863,-0.1227089688181877,0.4326302707195282,0.4817570149898529,-0.128703311085701
2023-08-01 16:05:46.496640,49,412,0.6975921988487244,0.150935485959053,-0.0728005319833755,0.6966230273246765,-0.36865234375,0.90625,0.11962890625,0.7217313051223755,0.6980813145637512,-9.002520755529986e-07,0.623296856880188,0.6071900129318237,0.0136190736666321,0.56275475025177,0.5269761681556702,0.001775718294084,0.5112699270248413,0.4769938886165619,-0.0171364992856979,0.4738495945930481,0.4376465082168579,-0.0371248535811901,0.6928301453590393,0.3771987855434418,-0.0097117964178323,0.5796524286270142,0.3372557461261749,-0.0414412543177604,0.5118842720985413,0.3624200224876404,-0.0667993873357772,0.4703727960586548,0.3957860469818115,-0.0829931199550628,0.7075986266136169,0.3927407264709472,-0.0350408777594566,0.5740480422973633,0.3384172618389129,-0.0629937723278999,0.5042011141777039,0.3729423880577087,-0.0813279002904892,0.4608359932899475,0.4157295823097229,-0.0944118350744247,0.7053723335266113,0.4334650039672851,-0.0603722296655178,0.5768393278121948,0.3841218948364258,-0.0852179676294326,0.5069358944892883,0.4093314707279205,-0.0940764546394348,0.4599469304084778,0.4395415782928467,-0.1000580191612243,0.6862358450889587,0.494530439376831,-0.0843947082757949,0.5816817283630371,0.4773979187011719,-0.1072359457612037,0.5234642028808594,0.4805436730384826,-0.1159768998622894,0.4795430302619934,0.4846946001052856,-0.1205281019210815
2023-08-01 16:05:46.553486,50,413,0.697092592716217,0.15522301197052,-0.0728302523493766,0.6961777210235596,-0.37353515625,0.88818359375,0.17041015625,0.7361288666725159,0.698017418384552,-8.562489597352396e-07,0.6356340050697327,0.6074483394622803,0.0160881504416465,0.573632001876831,0.5289269685745239,0.0042410129681229,0.5214977860450745,0.4831675589084625,-0.0160046406090259,0.486345887184143,0.4464353621006012,-0.0374271497130394,0.7030161023139954,0.3786735832691192,-0.0009944133926182,0.5934234857559204,0.3378552198410034,-0.0347298868000507,0.523352861404419,0.3606815934181213,-0.0641209483146667,0.4745444059371948,0.3952715992927551,-0.0822547674179077,0.7159102559089661,0.3938667476177215,-0.0281293392181396,0.5863022804260254,0.3384921252727508,-0.0568524822592735,0.5145398378372192,0.3712794184684753,-0.0793495625257492,0.4669594466686249,0.4136138558387756,-0.0951497629284858,0.712986946105957,0.4337546229362488,-0.0556271933019161,0.5875178575515747,0.3833493590354919,-0.0805923417210578,0.5177398324012756,0.4089918434619903,-0.0926128551363945,0.4696962237358093,0.4403782486915588,-0.1003947034478187,0.6938431262969971,0.4942871928215027,-0.081710860133171,0.5885089635848999,0.4733607172966003,-0.1030082181096077,0.529909610748291,0.4769819974899292,-0.1116982698440551,0.4853154718875885,0.4820283949375152,-0.1162778884172439
2023-08-01 16:05:46.623228,51,414,0.6966636180877686,0.1625258177518844,-0.0731164515018463,0.6949095129966736,-0.43310546875,0.88623046875,0.15673828125,0.7509898543357849,0.7003694176673889,-8.708184964234533e-07,0.6555116772651672,0.6106104850769043,0.0124961845576763,0.5912914276123047,0.5331209897994995,-0.0015341916587203,0.5385072827339172,0.4865604937076568,-0.0233273971825838,0.5008372068405151,0.4484961032867431,-0.0457723550498485,0.7145171165466309,0.3778907358646393,-0.0035696651320904,0.6067694425582886,0.3393377363681793,-0.0406933054327964,0.5380268692970276,0.3598080277442932,-0.0723720416426658,0.4883114099502563,0.3928315937519073,-0.0916400998830795,0.7323625087738037,0.3915588855743408,-0.0302413385361433,0.6007592082023621,0.3381596803665161,-0.0627153366804122,0.5312748551368713,0.3731002509593963,-0.0871687158942222,0.4848696291446686,0.4176114201545715,-0.1034632697701454,0.7348194718360901,0.4304700791835785,-0.0577433370053768,0.6098991632461548,0.3825321197509765,-0.0850441977381706,0.5403575301170349,0.4104537665843963,-0.097186379134655,0.4919092655181885,0.4442269802093506,-0.1040533855557441,0.7209208607673645,0.4908859431743622,-0.0842233076691627,0.615761399269104,0.4741774499416351,-0.1069479510188102,0.5577394962310791,0.4779755771160126,-0.1159485727548599,0.5135934352874756,0.4836286902427673,-0.120030254125595
2023-08-01 16:05:46.688300,52,415,0.6966025829315186,0.1692649126052856,-0.0759412348270416,0.6930564045906067,-0.3828125,0.89794921875,0.10107421875,0.7593805193901062,0.704354465007782,-8.676968263898743e-07,0.6622522473335266,0.6117602586746216,0.0120476614683866,0.5984489321708679,0.5332554578781128,-0.0027274510357528,0.5454278588294983,0.4869232177734375,-0.0254276823252439,0.510394811630249,0.4484759569168091,-0.0484814643859863,0.7291969060897827,0.3814722001552582,-0.0007134433253668,0.6199502348899841,0.3396638333797455,-0.0390691757202148,0.5500760078430176,0.3585427403450012,-0.0722131952643394,0.4995894730091095,0.3912622332572937,-0.0920464023947715,0.7453104853630066,0.3960956335067749,-0.0270541477948427,0.6118343472480774,0.337354838848114,-0.0618383064866066,0.541301429271698,0.3759654462337494,-0.087929718196392,0.4954138994216919,0.422468900680542,-0.1041461005806922,0.7460728883743286,0.4330924749374389,-0.0543162673711776,0.6213814616203308,0.3871747553348541,-0.0831461772322654,0.550502359867096,0.4190815389156341,-0.0958321541547775,0.5015128254890442,0.4543338716030121,-0.1018493175506591,0.7291730642318726,0.490273505449295,-0.0805962085723877,0.6248807311058044,0.4732468724250793,-0.1021477356553077,0.5674451589584351,0.4799504280090332,-0.1098400130867958,0.523861825466156,0.4871515333652496,-0.1126481145620346
2023-08-01 16:05:46.767152,53,416,0.6970695853233337,0.1781745254993438,-0.0779494270682334,0.6901244521141052,-0.37939453125,0.90576171875,0.12744140625,0.7798163890838623,0.7063849568367004,-9.204115372085652e-07,0.6911788582801819,0.6183266639709473,0.0035733992699533,0.6256245374679565,0.5380825400352478,-0.012258568778634,0.5725123286247253,0.4880054593086242,-0.0338597930967807,0.5373293161392212,0.4444824755191803,-0.0558502934873104,0.7543584108352661,0.3763733506202698,-0.0084602013230323,0.6476008296012878,0.3414382338523865,-0.0467643253505229,0.5791839361190796,0.3612963557243347,-0.0799217149615287,0.5327334403991699,0.3922562301158905,-0.1007371842861175,0.776445746421814,0.3918565511703491,-0.0308831483125686,0.6495380401611328,0.3428688049316406,-0.0656208097934722,0.5785994529724121,0.3790234625339508,-0.092096023261547,0.5320863723754883,0.4211924970149994,-0.1095337718725204,0.7815901041030884,0.4338150918483734,-0.0550577491521835,0.6625738739967346,0.3876304924488067,-0.0867572799324989,0.5908095240592957,0.4157519936561584,-0.101417101919651,0.5414929389953613,0.4472414255142212,-0.1092393696308136,0.7689746022224426,0.4978486001491546,-0.0786637365818023,0.6658106446266174,0.4850374460220337,-0.1060855463147163,0.6084451675415039,0.4899437725543976,-0.1173492819070816,0.5654405355453491,0.4937561452388763,-0.1223324760794639
2023-08-01 16:05:46.837682,54,417,0.6966565251350403,0.185454711318016,-0.0810572877526283,0.6882629990577698,-0.38330078125,0.9072265625,0.16748046875,0.7848450541496277,0.7066901326179504,-8.905046229301661e-07,0.6951640844345093,0.6177152991294861,0.0030309641733765,0.6319273114204407,0.5359757542610168,-0.0132243847474455,0.5816718339920044,0.4874213933944702,-0.035361148416996,0.5466259717941284,0.4469289183616638,-0.0583189763128757,0.7621126174926758,0.379998117685318,-0.0084712756797671,0.6555916666984558,0.3462159633636474,-0.0489241927862167,0.5863847732543945,0.3639529943466186,-0.0844082310795784,0.5360403060913086,0.3941410481929779,-0.1063432916998863,0.7831600308418274,0.396953821182251,-0.0315569341182708,0.6591803431510925,0.3471144437789917,-0.0676874741911888,0.5859209299087524,0.3794655203819275,-0.0966834127902984,0.5350621938705444,0.4182652235031128,-0.1158149465918541,0.7874685525894165,0.4387578964233398,-0.0566222853958606,0.67146897315979,0.3912221491336822,-0.0902602300047874,0.5987748503684998,0.4190122187137604,-0.1075323894619941,0.5474112033843994,0.4488945007324219,-0.1168320104479789,0.7743065357208252,0.501257061958313,-0.0810569897294044,0.672991931438446,0.4833571910858154,-0.1098614931106567,0.6160526275634766,0.4901679158210754,-0.121871568262577,0.5725964903831482,0.4960105121135711,-0.1272327750921249
2023-08-01 16:05:46.903510,55,418,0.6955280303955078,0.1934677362442016,-0.0834854617714881,0.6869069933891296,-0.36669921875,0.90087890625,0.1591796875,0.7867879271507263,0.7078697085380554,-8.759448064665776e-07,0.6983863115310669,0.617800235748291,0.0032996188383549,0.6380817294120789,0.5346922874450684,-0.012324184179306,0.5905256271362305,0.4875169396400451,-0.034045360982418,0.5576688051223755,0.4483010768890381,-0.0566992051899433,0.7668384313583374,0.3782926499843597,-0.0051196725107729,0.6625964045524597,0.3489998579025268,-0.045389324426651,0.5950369834899902,0.3664669692516327,-0.0818967968225479,0.5460672974586487,0.3946757018566131,-0.1048110574483871,0.7896166443824768,0.396151602268219,-0.0286631155759096,0.667725145816803,0.350139856338501,-0.0654330253601074,0.5951760411262512,0.3816012740135193,-0.0961144864559173,0.543549656867981,0.4182479381561279,-0.1160318851470947,0.795976996421814,0.4389070570468902,-0.054225318133831,0.6814649701118469,0.3919049501419067,-0.0893111675977706,0.6085481643676758,0.4199136793613434,-0.1075733080506324,0.5559968948364258,0.4488422572612762,-0.1167911812663078,0.783684253692627,0.5023837089538574,-0.0790340900421142,0.6818090081214905,0.484987199306488,-0.1092030480504036,0.6248085498809814,0.4919705986976623,-0.1212424039840698,0.5811625719070435,0.4972912967205047,-0.1259619146585464
2023-08-01 16:05:46.965123,56,419,0.6942939758300781,0.2022420912981033,-0.0839437171816825,0.6855708360671997,-0.35107421875,0.89794921875,0.13720703125,0.816291332244873,0.7140974402427673,-8.905594199859479e-07,0.731309175491333,0.6295648217201233,-0.0019698147661983,0.6698324084281921,0.5454319715499878,-0.0181989576667547,0.6159564852714539,0.4981635808944702,-0.0398709028959274,0.577241837978363,0.4556528925895691,-0.0620086155831813,0.7864895462989807,0.3880717754364013,-0.0068410616368055,0.6867523193359375,0.3547758460044861,-0.0495402626693248,0.6217640042304993,0.3701540231704712,-0.0863676369190216,0.5754950046539307,0.397393524646759,-0.1091099232435226,0.8133694529533386,0.4039177596569061,-0.0282066296786069,0.6933522820472717,0.3535323739051819,-0.0693218633532524,0.625004768371582,0.3903369903564453,-0.1009148508310318,0.580145001411438,0.431169182062149,-0.1195190101861953,0.8244484066963196,0.4451662302017212,-0.0525226555764675,0.7118178606033325,0.3962342739105224,-0.0926193669438362,0.64063560962677,0.4268669486045837,-0.1121067404747009,0.5922204256057739,0.4592113196849823,-0.1198514029383659,0.8168392181396484,0.5074739456176758,-0.0764400288462638,0.7154718637466431,0.4927924573421478,-0.1110264211893081,0.6578447818756104,0.4979639649391174,-0.1258125156164169,0.6147080659866333,0.5032724738121033,-0.1310038268566131
2023-08-01 16:05:47.018853,57,420,0.6932123303413391,0.2078155875205993,-0.0844553411006927,0.684935450553894,-0.39208984375,0.8994140625,0.14208984375,0.8185362815856934,0.71010422706604,-8.717981359041005e-07,0.7322102785110474,0.625557541847229,-0.002373369410634,0.6716503500938416,0.5434109568595886,-0.0197076965123415,0.6245431303977966,0.495128720998764,-0.042048130184412,0.5922490954399109,0.4509031474590301,-0.0648140087723732,0.795673131942749,0.3837643265724182,-0.0102343065664172,0.6960050463676453,0.3539192676544189,-0.0532730184495449,0.6295428276062012,0.3721331655979156,-0.0912093520164489,0.5818188786506653,0.4018300175666809,-0.1145860329270362,0.8217403888702393,0.4024550318717956,-0.0312028191983699,0.7013530731201172,0.3563465476036072,-0.0710104033350944,0.631767749786377,0.3924467861652374,-0.1019146591424942,0.5858442783355713,0.4329991936683655,-0.1210006847977638,0.8319569230079651,0.4456786811351776,-0.0549132674932479,0.721422553062439,0.3977540135383606,-0.0935984998941421,0.6501116752624512,0.4273891448974609,-0.111574113368988,0.6013729572296143,0.4598110914230346,-0.119128368794918,0.8238121271133423,0.5093650817871094,-0.078244425356388,0.7249082922935486,0.4896266758441925,-0.1113890036940574,0.6679418683052063,0.4971786141395569,-0.1237207204103469,0.626026451587677,0.5056060552597046,-0.1275499612092971
2023-08-01 16:05:47.093774,58,421,0.6917809247970581,0.2146631181240081,-0.0854687616229057,0.6841447353363037,-0.3798828125,0.89501953125,0.1279296875,0.8262650370597839,0.708931028842926,-8.759230922805727e-07,0.7420088052749634,0.6281688213348389,-0.0041166106238961,0.6801705956459045,0.5439327955245972,-0.0199103895574808,0.631278395652771,0.4939404428005218,-0.0403006076812744,0.6003844738006592,0.4429121613502502,-0.0603706836700439,0.8006851077079773,0.3840934932231903,-0.0064332750625908,0.7058924436569214,0.3559062480926513,-0.0476771555840969,0.6421661376953125,0.3758235871791839,-0.0837931483983993,0.5972716808319092,0.406292974948883,-0.1057845577597618,0.8280385136604309,0.4019555449485779,-0.0256384909152984,0.7117820978164673,0.357533723115921,-0.0644734725356102,0.6440058350563049,0.3961415290832519,-0.0933005213737487,0.6009194850921631,0.4384515583515167,-0.109769195318222,0.8399128317832947,0.4444161653518677,-0.0482052825391292,0.7338086366653442,0.4002511203289032,-0.0864739343523979,0.6633489727973938,0.4285653829574585,-0.103747509419918,0.6154694557189941,0.4593003988265991,-0.1098648831248283,0.8329622745513916,0.5070599913597107,-0.07065349817276,0.7373344898223877,0.4911330342292785,-0.103330872952938,0.6802673935890198,0.4985124766826629,-0.1158320754766464,0.6375712752342224,0.5061560869216919,-0.119176909327507
2023-08-01 16:05:47.147858,59,422,0.6908006072044373,0.2196719199419021,-0.084835484623909,0.6836240291595459,-0.37353515625,0.91015625,0.09716796875,0.8594183921813965,0.7139851450920105,-8.412051784034702e-07,0.779976487159729,0.62450110912323,-0.0030612496193498,0.7203035354614258,0.5434678196907043,-0.0201869960874319,0.6665664315223694,0.4954915940761566,-0.0431182868778705,0.6334922909736633,0.4442743360996246,-0.0656919628381729,0.8360247015953064,0.3957560658454895,-0.0045746248215436,0.7461168766021729,0.3574870228767395,-0.0456513203680515,0.6838299632072449,0.376359760761261,-0.0820185169577598,0.6416895985603333,0.4069378972053528,-0.1049263924360275,0.8628717660903931,0.4101567268371582,-0.0252815950661897,0.7519047856330872,0.3612874746322632,-0.0649245828390121,0.6855280995368958,0.3968895375728607,-0.0970565602183342,0.6435936689376831,0.4380199313163757,-0.1167432516813278,0.8753304481506348,0.4482010006904602,-0.0491303913295269,0.77103590965271,0.3987970948219299,-0.0878290235996246,0.7018709182739258,0.4279995858669281,-0.1061174571514129,0.6561841368675232,0.4630323946475982,-0.1136231869459152,0.8693532347679138,0.5062136650085449,-0.0728414878249168,0.7747801542282104,0.4883419573307037,-0.1071877554059028,0.7207270264625549,0.4963874816894531,-0.1206734552979469,0.681916356086731,0.5075799822807312,-0.1248711571097374
2023-08-01 16:05:47.207507,60,423,0.6896262168884277,0.2244271337985992,-0.0851459801197052,0.6832262873649597,-0.36181640625,0.90673828125,0.08935546875,0.8678622841835022,0.7113094329833984,-8.56401527471462e-07,0.7853738069534302,0.6264142394065857,0.0004639759717974,0.7246935367584229,0.5442438125610352,-0.0141933215782046,0.675882875919342,0.4959237575531006,-0.0349888652563095,0.6430871486663818,0.4454996585845947,-0.0556870549917221,0.8464936017990112,0.3927480280399322,0.0004485493409447,0.7583975791931152,0.3610945045948028,-0.0403238497674465,0.6962788701057434,0.3762660622596741,-0.0768231451511383,0.6507124900817871,0.4038096070289612,-0.0993876606225967,0.8730298280715942,0.4088201522827148,-0.0213446393609046,0.761154055595398,0.361910879611969,-0.0598272383213043,0.696255624294281,0.3959753513336181,-0.0902030542492866,0.6543660163879395,0.434695303440094,-0.1083709672093391,0.8844029903411865,0.4470406770706177,-0.046462707221508,0.7803409099578857,0.4040377140045166,-0.083691619336605,0.7115155458450317,0.4306344985961914,-0.1014305502176284,0.6636120676994324,0.4607186019420624,-0.1085008308291435,0.8777607679367065,0.5044723749160767,-0.0713655650615692,0.7833780646324158,0.4880212247371673,-0.1030395850539207,0.7282133102416992,0.4960536658763885,-0.1158328801393508,0.6859824061393738,0.5048450231552124,-0.1199612766504287
2023-08-01 16:05:47.276303,61,424,0.6885485649108887,0.2284370362758636,-0.0861576125025749,0.6828574538230896,-0.34765625,0.89990234375,0.08447265625,0.8743659257888794,0.7095738649368286,-8.109049076665542e-07,0.7944857478141785,0.62458336353302,-0.0026338810566812,0.7342156171798706,0.5438023805618286,-0.0198099873960018,0.6834845542907715,0.496017575263977,-0.0427986271679401,0.6514514684677124,0.4424183666706085,-0.065451793372631,0.8555070161819458,0.3950507044792175,-0.0039600417949259,0.7674680352210999,0.3589375019073486,-0.0465806387364864,0.7067816257476807,0.3717042803764343,-0.0839869379997253,0.6622134447097778,0.3986717462539673,-0.1071816012263298,0.8810746669769287,0.4114781618118286,-0.025155471637845,0.7691380977630615,0.3622116148471832,-0.0662798136472702,0.7053768634796143,0.3943656682968139,-0.0987823158502578,0.664314866065979,0.4320895373821258,-0.1183856129646301,0.8921438455581665,0.4498034417629242,-0.0498845502734184,0.7869333624839783,0.4042496681213379,-0.0897381454706192,0.718817412853241,0.429942637681961,-0.1092334315180778,0.672511100769043,0.4608137011528015,-0.1171508878469467,0.8858343362808228,0.5073302388191223,-0.0745333135128021,0.792365550994873,0.487784206867218,-0.1089058071374893,0.7368103265762329,0.4937070310115814,-0.1237868666648864,0.6947543621063232,0.5028332471847534,-0.1291752904653549
2023-08-01 16:05:47.330993,62,425,0.6879057288169861,0.2328893393278122,-0.0881197303533554,0.6817500591278076,-0.3447265625,0.89794921875,0.16650390625,0.8850692510604858,0.7121820449829102,-8.358374543604441e-07,0.8091810941696167,0.6244536638259888,-0.0063837459310889,0.754673182964325,0.5428986549377441,-0.0232557468116283,0.7047913074493408,0.4951726794242859,-0.0451954640448093,0.6793977618217468,0.4378545582294464,-0.0665311589837074,0.8724726438522339,0.3965784907341003,-0.0022490753326565,0.7931231260299683,0.3595954775810241,-0.0439247749745845,0.7335853576660156,0.3749518394470215,-0.0805942192673683,0.6904042959213257,0.400303840637207,-0.1035198867321014,0.9024521708488464,0.4126527309417724,-0.0204393677413463,0.800564169883728,0.3642929196357727,-0.0631121024489402,0.736409068107605,0.3984798789024353,-0.0965781062841415,0.6940303444862366,0.4353430271148681,-0.1154783368110656,0.9179139733314514,0.4505004286766052,-0.0423941388726234,0.8185142278671265,0.4005872011184692,-0.0856145024299621,0.7501927614212036,0.4282442331314087,-0.1058831140398979,0.7026073932647705,0.4592279195785522,-0.112575463950634,0.914167582988739,0.5066643357276917,-0.0641705840826034,0.8181774616241455,0.4875684380531311,-0.1022466495633125,0.7632502317428589,0.4954547584056854,-0.1175034120678901,0.7233673930168152,0.5037373304367065,-0.1215297803282737
2023-08-01 16:05:47.392992,63,426,0.6873865723609924,0.2380117177963256,-0.0880458503961563,0.6805130243301392,-0.38623046875,0.900390625,0.10107421875,0.901354193687439,0.7110249996185303,-8.449496817775071e-07,0.8204341530799866,0.6293528079986572,-0.0052899424917995,0.7616569995880127,0.5446500778198242,-0.0208764560520648,0.7130467295646667,0.493421733379364,-0.041279274970293,0.6840457916259766,0.4402546286582947,-0.0614693835377693,0.8830172419548035,0.3950753509998321,-0.0039339289069175,0.793294370174408,0.3620107769966125,-0.0448703803122043,0.7315276861190796,0.3777197003364563,-0.0808015838265419,0.6869964003562927,0.406309574842453,-0.1027637124061584,0.9083921313285828,0.4124763011932373,-0.022613625973463,0.7970362901687622,0.3588714003562927,-0.0625562444329261,0.7314623594284058,0.3931727707386017,-0.0935999751091003,0.6904333829879761,0.4332157373428345,-0.111296497285366,0.9200632572174072,0.4513563513755798,-0.0449506230652332,0.8181586861610413,0.4045150876045227,-0.0860899910330772,0.7492024898529053,0.4306761622428894,-0.106529988348484,0.7034561038017273,0.4609604179859161,-0.1138585656881332,0.914442539215088,0.5084953904151917,-0.0670896098017692,0.8214138150215149,0.4868939518928528,-0.1026529297232627,0.765551745891571,0.4936037063598633,-0.1175279915332794,0.7238626480102539,0.5022349953651428,-0.1220770627260208
2023-08-01 16:05:47.466462,64,427,0.6864145398139954,0.2433261424303054,-0.0877603590488433,0.6796512007713318,-0.375,0.908203125,0.060546875,0.8971155881881714,0.7106262445449829,-8.326326224050717e-07,0.8212765455245972,0.6277675628662109,-0.0077451448887586,0.7651141285896301,0.5419516563415527,-0.023210659623146,0.715625524520874,0.4906453788280487,-0.0432690605521202,0.6893925666809082,0.4338590502738952,-0.0623749978840351,0.8835685849189758,0.3926462531089782,9.222035441780464e-05,0.8030480146408081,0.3619493842124939,-0.0408848784863948,0.7428897023200989,0.3769262433052063,-0.0777194276452064,0.6985106468200684,0.4030660986900329,-0.1004741638898849,0.9117471575737,0.4084853231906891,-0.0171854011714458,0.8091040849685669,0.3594086170196533,-0.0574331581592559,0.7456098198890686,0.3932055532932281,-0.0892441719770431,0.7042863965034485,0.4300840497016907,-0.1072581708431243,0.9259308576583862,0.4462033808231354,-0.0387410745024681,0.829960823059082,0.401043027639389,-0.079933650791645,0.76162189245224,0.42707359790802,-0.1000823080539703,0.713886022567749,0.455278068780899,-0.1069149523973465,0.921663761138916,0.5029838681221008,-0.0604759976267814,0.8286299109458923,0.4844185411930084,-0.0957998782396316,0.7720510959625244,0.4904848337173462,-0.1107587143778801,0.7290253639221191,0.4968369305133819,-0.1151583045721054
2023-08-01 16:05:47.542112,65,428,0.685908317565918,0.2464599013328552,-0.088936410844326,0.6788797974586487,-0.35693359375,0.89501953125,0.09130859375,0.9121415615081788,0.7134935259819031,-8.251116128121794e-07,0.8409259915351868,0.6289496421813965,-0.009372491389513,0.7879675626754761,0.5421260595321655,-0.0254822485148906,0.7391198873519897,0.4907950162887573,-0.0456439368426799,0.7134028673171997,0.4314298033714294,-0.0646605044603347,0.902257800102234,0.3973748683929443,-0.0045890603214502,0.8266330361366272,0.3555197715759277,-0.0450205728411674,0.7695714831352234,0.3730980157852173,-0.0803726837038993,0.7315043807029724,0.4024149477481842,-0.1027997061610221,0.9333993196487428,0.4136301577091217,-0.0207233894616365,0.8385545611381531,0.3637681007385254,-0.0620448961853981,0.7759624123573303,0.3950267732143402,-0.0938020125031471,0.7353715896606445,0.4300630092620849,-0.1121305972337722,0.9505442380905152,0.4523841738700866,-0.0409655943512916,0.8588318228721619,0.40114825963974,-0.0842595621943473,0.7896232008934021,0.4255308806896209,-0.1041428819298744,0.7423558235168457,0.4529446065425873,-0.1111999303102493,0.9485965967178344,0.5091257691383362,-0.0611653365194797,0.8577308654785156,0.4867150783538818,-0.1008914932608604,0.8004053831100464,0.4924053847789764,-0.1171885579824447,0.758616030216217,0.4967722594738006,-0.1222281977534294
2023-08-01 16:05:47.602857,66,429,0.6857344508171082,0.247796282172203,-0.0888821333646774,0.6785757541656494,-0.34033203125,0.9150390625,0.10302734375,0.918312132358551,0.7096627950668335,-8.28207305403339e-07,0.8441840410232544,0.6312302350997925,-0.0111973509192466,0.7903206944465637,0.5474609136581421,-0.0276680216193199,0.7429319024085999,0.4922720193862915,-0.0480125285685062,0.7171672582626343,0.4345727562904358,-0.0669156312942504,0.9049994349479676,0.3969256579875946,-0.0039241858758032,0.8334808945655823,0.35158571600914,-0.0441086255013942,0.7758517265319824,0.3693553507328033,-0.0787268802523613,0.7361787557601929,0.4001622796058655,-0.099796786904335,0.936084806919098,0.4132061600685119,-0.0172443725168705,0.8374448418617249,0.3635438084602356,-0.0548342168331146,0.7756497263908386,0.3951936364173889,-0.0839594230055809,0.7382818460464478,0.4284871518611908,-0.1013510003685951,0.9540539383888244,0.4504599571228027,-0.0351818427443504,0.8581376075744629,0.4068999588489532,-0.0752293616533279,0.7900432348251343,0.4333356618881225,-0.0940293297171592,0.7446259260177612,0.4619945883750915,-0.1008734107017517,0.954437494277954,0.5053987503051758,-0.0534759014844894,0.8598559498786926,0.4872787594795227,-0.0885685011744499,0.8043985366821289,0.4944003522396087,-0.1036123111844062,0.7639510631561279,0.5023601651191711,-0.1084252372384071
2023-08-01 16:05:47.658350,67,430,0.6855864524841309,0.2486879527568817,-0.0895161628723144,0.6783158183097839,-0.3759765625,0.90966796875,0.0771484375,0.9211722016334534,0.7104337811470032,-8.317865649587475e-07,0.8505553007125854,0.6354430317878723,-0.0101707950234413,0.7945854663848877,0.5512263178825378,-0.0261547304689884,0.7459864616394043,0.4954157769680023,-0.0459835194051265,0.7201520204544067,0.4392045736312866,-0.064121127128601,0.9098641872406006,0.3985715508460998,-0.0039818449877202,0.8387897610664368,0.3517396450042724,-0.0419721268117427,0.781004786491394,0.3703622817993164,-0.0739368572831153,0.7433198094367981,0.4032999873161316,-0.0930807963013649,0.9398353695869446,0.4163321256637573,-0.0172806363552808,0.8435221314430237,0.366463154554367,-0.0513952076435089,0.781778872013092,0.3974880576133728,-0.0758462250232696,0.745063066482544,0.4306662678718567,-0.0901005268096923,0.9568154811859132,0.4542240798473358,-0.0351749509572982,0.862320065498352,0.4092454314231872,-0.0720394253730773,0.7953764200210571,0.433705598115921,-0.086881399154663,0.7513808012008667,0.4609941244125366,-0.0915512591600418,0.9558218717575072,0.5095779895782471,-0.0534993670880794,0.8621959090232849,0.4895121455192566,-0.0861941128969192,0.8062744140625,0.495910108089447,-0.0987267345190048,0.7659052610397339,0.504008412361145,-0.1019170433282852
2023-08-01 16:05:47.720005,68,431,0.6856616139411926,0.2492810189723968,-0.0890471413731575,0.6780838966369629,-0.39794921875,0.91064453125,0.05517578125,0.9199425578117372,0.708096981048584,-8.517345122527331e-07,0.8498560190200806,0.631736159324646,-0.0101648001000285,0.7954931259155273,0.5480176210403442,-0.0264638401567935,0.7483649849891663,0.49235600233078,-0.0465278923511505,0.7229755520820618,0.4367388188838959,-0.0648016929626464,0.911097288131714,0.3981218338012695,-0.005664040800184,0.8404815793037415,0.3493875861167907,-0.0438960380852222,0.7823425531387329,0.3716468214988708,-0.0759434327483177,0.7456196546554565,0.4068648815155029,-0.0952413082122802,0.9415772557258606,0.415690541267395,-0.0189144052565097,0.8444109559059143,0.366625964641571,-0.0529708974063396,0.7823678851127625,0.3997352421283722,-0.0773752480745315,0.7464337348937988,0.4338321089744568,-0.0919191315770149,0.9592797756195068,0.4538539052009582,-0.036588679999113,0.8642423152923584,0.4093051850795746,-0.0731817260384559,0.7965483069419861,0.4349545240402221,-0.0877656266093254,0.7517623901367188,0.4629129767417907,-0.0926043689250946,0.9598617553710938,0.5097442865371704,-0.0546649731695652,0.8666138648986816,0.4904489517211914,-0.0870246514678001,0.8103035092353821,0.4970424473285675,-0.0992257446050643,0.7691307067871094,0.5055609941482544,-0.1023945957422256
2023-08-01 16:05:47.780802,69,432,0.6857693791389465,0.2481041699647903,-0.0893481373786926,0.6783668398857117,-0.36474609375,0.91162109375,0.083984375,0.9208022356033324,0.7089316248893738,-8.220443419304502e-07,0.8530263304710388,0.6323652267456055,-0.0134050091728568,0.799532413482666,0.5495193004608154,-0.0317878983914852,0.753487229347229,0.4922560155391693,-0.0537376031279563,0.7321786880493164,0.4331696331501007,-0.0736410692334175,0.9124264717102052,0.3988944888114929,-0.005956633016467,0.8472568988800049,0.3528427481651306,-0.0466431565582752,0.7914717197418213,0.3691456317901611,-0.0805332288146019,0.754304051399231,0.4002268314361572,-0.1009487360715866,0.9454986453056335,0.4150684177875519,-0.0183863583952188,0.852712094783783,0.3694478273391723,-0.0556259825825691,0.7917068004608154,0.3991290330886841,-0.0816993489861488,0.7544803023338318,0.4316935837268829,-0.0966118052601814,0.9664757251739502,0.4523970186710357,-0.0358969271183013,0.874560534954071,0.4115377366542816,-0.0758070051670074,0.8081468343734741,0.4358548521995544,-0.0911579877138137,0.7623552680015564,0.4637133777141571,-0.09552463889122,0.9708296656608582,0.5072202086448669,-0.0542554818093776,0.8823108077049255,0.4914802014827728,-0.0899943485856056,0.8268644213676453,0.4986866414546966,-0.1038353443145752,0.7838043570518494,0.5074338316917419,-0.1073103249073028
2023-08-01 16:05:47.840932,70,433,0.6857492923736572,0.2459578216075897,-0.0891761109232902,0.6791908740997314,-0.3544921875,0.90673828125,0.0869140625,0.920762062072754,0.7077667713165283,-8.217260187848296e-07,0.8524821400642395,0.6309489607810974,-0.0128667932003736,0.7996708750724792,0.5483996272087097,-0.0311748534440994,0.7544066309928894,0.4926185607910156,-0.0531155243515968,0.7331516146659851,0.4347432851791382,-0.0731535330414772,0.9170990586280824,0.3976125121116638,-0.0078818937763571,0.8455889821052551,0.3505371809005737,-0.0484872497618198,0.7881351113319397,0.3701070249080658,-0.0819027721881866,0.7505232095718384,0.4040949642658233,-0.1016236469149589,0.9489405751228333,0.4145871996879577,-0.0207338444888591,0.8521395921707153,0.3647714853286743,-0.0570533797144889,0.7904631495475769,0.3967828452587127,-0.0823803767561912,0.7543442845344543,0.4299152791500091,-0.0965589806437492,0.9671011567115784,0.4525601267814636,-0.0383797362446785,0.8725183606147766,0.4064604043960571,-0.0771830677986145,0.8057316541671753,0.4311869144439697,-0.09231648594141,0.7612517476081848,0.4590724408626556,-0.0964850857853889,0.9666345119476318,0.5083603262901306,-0.0567513033747673,0.872734546661377,0.4913216829299927,-0.0919656902551651,0.8168308734893799,0.4966143369674682,-0.1056387796998024,0.7754088044166565,0.504789412021637,-0.1087675541639328
2023-08-01 16:05:47.899671,71,434,0.6858581304550171,0.24282306432724,-0.0887883752584457,0.6802589297294617,-0.35107421875,0.91064453125,0.07958984375,0.924428403377533,0.7096440196037292,-8.359500043297885e-07,0.8532860279083252,0.6317582130432129,-0.0149157233536243,0.7988913059234619,0.5501678586006165,-0.035442765802145,0.75310218334198,0.4953078627586365,-0.0593105219304561,0.7306933403015137,0.4364108443260193,-0.081243947148323,0.9145722389221193,0.3946628272533417,-0.0114850811660289,0.840189516544342,0.3512661755084991,-0.0552217103540897,0.7838744521141052,0.3727811872959137,-0.0906578302383422,0.7463314533233643,0.4073625802993774,-0.1114163622260093,0.9481574296951294,0.4100235104560852,-0.0242235288023948,0.8469461798667908,0.3669443428516388,-0.0654236227273941,0.785733163356781,0.4027326703071594,-0.0936146229505539,0.7498147487640381,0.4396619796752929,-0.1086783111095428,0.9676609635353088,0.4476020932197571,-0.0419339202344417,0.8694416880607605,0.4082567393779754,-0.0845653563737869,0.8012473583221436,0.4349713325500488,-0.1022979170083999,0.7557379007339478,0.464661568403244,-0.1072475686669349,0.9686814546585084,0.5026572942733765,-0.0604492276906967,0.8744828701019287,0.4904229342937469,-0.0989993214607238,0.8169102668762207,0.497003823518753,-0.1153881922364234,0.7734835743904114,0.5051925182342529,-0.1197286397218704
