Timestamp,Index,Frame ID,w,x,y,z,ax,ay,az,x_0,y_0,z_0,x_1,y_1,z_1,x_2,y_2,z_2,x_3,y_3,z_3,x_4,y_4,z_4,x_5,y_5,z_5,x_6,y_6,z_6,x_7,y_7,z_7,x_8,y_8,z_8,x_9,y_9,z_9,x_10,y_10,z_10,x_11,y_11,z_11,x_12,y_12,z_12,x_13,y_13,z_13,x_14,y_14,z_14,x_15,y_15,z_15,x_16,y_16,z_16,x_17,y_17,z_17,x_18,y_18,z_18,x_19,y_19,z_19,x_20,y_20,z_20
2023-08-01 16:05:33.568766,0,213,0.6880418062210083,0.157716765999794,-0.1156099662184715,0.6988263130187988,-0.3427734375,0.92236328125,0.15185546875,0.9046924114227296,0.752845287322998,-8.446363040093274e-07,0.8131216764450073,0.663541316986084,0.0080920299515128,0.7539049983024597,0.5828849673271179,-0.0034760942216962,0.7021084427833557,0.5318921208381653,-0.0244026836007833,0.6626189947128296,0.4803005158901214,-0.0455075353384017,0.8612603545188904,0.4379068613052368,0.0155094722285866,0.7727241516113281,0.3927741348743438,-0.0247915759682655,0.7111513614654541,0.4100573062896728,-0.0612759515643119,0.670214056968689,0.4428299069404602,-0.0833369046449661,0.8874920010566711,0.4473114609718323,-0.0110299298539757,0.7799103260040283,0.3859269022941589,-0.0485183522105217,0.7119166851043701,0.420268714427948,-0.0786889791488647,0.6709790229797363,0.4632143378257751,-0.0966700166463851,0.9006240963935852,0.4792578816413879,-0.0415657721459865,0.7964931130409241,0.4201763570308685,-0.0776154249906539,0.727394163608551,0.4515745639801025,-0.0947801992297172,0.6842350959777832,0.4888994991779327,-0.1015461087226867,0.8962528109550476,0.5321294069290161,-0.0717532634735107,0.7973033785820007,0.5072000026702881,-0.1015646010637283,0.7393643260002136,0.5128386616706848,-0.11392692476511,0.6985896825790405,0.522054135799408,-0.1183603256940841
2023-08-01 16:05:33.632837,1,214,0.6887548565864563,0.1515370160341262,-0.1144278272986412,0.6996853351593018,-0.32275390625,0.89501953125,0.17529296875,0.9011315703392028,0.7513038516044617,-8.393541293116868e-07,0.8125010132789612,0.6640332937240601,0.0022122734226286,0.7516351938247681,0.5842853784561157,-0.0112971113994717,0.6974121332168579,0.5323164463043213,-0.0326899513602256,0.6603166460990906,0.4780745506286621,-0.0532776750624179,0.864260733127594,0.4351503252983093,0.0125730400905013,0.7753801941871643,0.3921716511249542,-0.0282178875058889,0.7129992842674255,0.408484399318695,-0.0656079798936843,0.6697403788566589,0.4392792284488678,-0.0882554277777671,0.8889331817626953,0.443795382976532,-0.0103109274059534,0.779203474521637,0.3841833472251892,-0.049467422068119,0.7125953435897827,0.4194853007793426,-0.0822017192840576,0.6707584261894226,0.4618072211742401,-0.1014907732605934,0.9009792804718018,0.4737192094326019,-0.0372811667621135,0.7958254218101501,0.4191592931747436,-0.0734191462397575,0.7290347814559937,0.4514931440353393,-0.0922976434230804,0.6846827268600464,0.4892553687095642,-0.0997362583875656,0.8960416316986084,0.5257612466812134,-0.0643825456500053,0.7962639331817627,0.507217526435852,-0.0935730338096618,0.7398412823677063,0.5131093263626099,-0.1071206256747245,0.6986839771270752,0.5217372179031372,-0.1121540740132331
2023-08-01 16:05:33.684716,2,215,0.6895462870597839,0.1472174823284149,-0.1134607344865799,0.6999853849411011,-0.33740234375,0.8740234375,0.20849609375,0.8967994451522827,0.7497954964637756,-8.34458376175462e-07,0.8070980906486511,0.6616183519363403,0.0027541927993297,0.7477853298187256,0.5823268890380859,-0.0107927732169628,0.695207417011261,0.5289308428764343,-0.0323418639600276,0.6566251516342163,0.4764949977397918,-0.0533038079738616,0.8600170016288757,0.4335002899169922,0.0121234385296702,0.7709054946899414,0.3902665972709656,-0.0284630768001079,0.7083509564399719,0.4073505997657776,-0.0656059682369232,0.6663343906402588,0.4399609863758087,-0.0881084352731704,0.8844777941703796,0.442918598651886,-0.0108793303370475,0.7743536233901978,0.3838356137275696,-0.0492677502334117,0.706714391708374,0.4196695685386657,-0.0815590694546699,0.6652761101722717,0.4623812735080719,-0.1008327528834343,0.8963840007781982,0.4735638201236725,-0.0378574207425117,0.7913552522659302,0.4197792708873749,-0.073728859424591,0.7223926782608032,0.4524107873439789,-0.0922729298472404,0.6775943040847778,0.4904454052448272,-0.0996197983622551,0.890706479549408,0.526313066482544,-0.0648799017071724,0.7929118275642395,0.503778338432312,-0.0936293378472328,0.7367141246795654,0.5094213485717773,-0.1063638478517532,0.6957800388336182,0.5187551379203796,-0.1109034940600395
2023-08-01 16:05:33.747823,3,216,0.6917643547058105,0.1379676461219787,-0.1112167835235595,0.7000413537025452,-0.35595703125,0.89404296875,0.2080078125,0.8933512568473816,0.7511389255523682,-8.283732313429937e-07,0.8033670783042908,0.6626935601234436,0.0037176930345594,0.7440045475959778,0.5818347334861755,-0.009426143951714,0.6914079189300537,0.5287116765975952,-0.0307360999286174,0.6528197526931763,0.475853681564331,-0.0515041872859001,0.8567924499511719,0.435260534286499,0.0122490040957927,0.7660596370697021,0.3906611204147339,-0.0285432841628789,0.7025072574615479,0.4066424965858459,-0.0656459182500839,0.6605710387229919,0.4381030201911926,-0.088077001273632,0.8799951076507568,0.4458084106445312,-0.0115682203322649,0.7686686515808105,0.3842045664787292,-0.0502614006400108,0.7012156844139099,0.4191634953022003,-0.0818894207477569,0.6605924367904663,0.4612572193145752,-0.1004477590322494,0.8909983038902283,0.4778496921062469,-0.0393481701612472,0.7850061058998108,0.4196032583713531,-0.0757069364190101,0.717500627040863,0.4509655833244324,-0.0932782217860221,0.6743103861808777,0.488189697265625,-0.0996900498867034,0.8853216171264648,0.5312861204147339,-0.0670823454856872,0.7866073846817017,0.5045249462127686,-0.0962398648262023,0.7305280566215515,0.508733332157135,-0.1082959473133087,0.6903071999549866,0.517191469669342,-0.1122054532170295
2023-08-01 16:05:33.815723,4,217,0.6944804191589355,0.1284159570932388,-0.1082049086689949,0.6996413469314575,-0.35986328125,0.900390625,0.2197265625,0.8894868493080139,0.7517711520195007,-8.179534347618755e-07,0.7973609566688538,0.6597326993942261,0.0051589421927928,0.7369387149810791,0.57909095287323,-0.0077104019001126,0.6825411915779114,0.5275475382804871,-0.0288223568350076,0.644871711730957,0.4764182269573211,-0.04940827190876,0.8526252508163452,0.4304130375385284,0.0142401065677404,0.7604148387908936,0.3908468782901764,-0.0253711603581905,0.697971761226654,0.407697319984436,-0.0626010447740554,0.6549177169799805,0.4388119578361511,-0.0853752791881561,0.8747223615646362,0.4408175647258758,-0.009851342998445,0.761428713798523,0.3823385238647461,-0.0463771820068359,0.696073055267334,0.4175305366516113,-0.0779106989502906,0.6550710797309875,0.4586949348449707,-0.0971543863415718,0.8850380182266235,0.4729800522327423,-0.0376049615442752,0.777582585811615,0.4211335182189941,-0.0714225322008133,0.7110735177993774,0.4522455334663391,-0.0889942049980163,0.6663809418678284,0.4881194233894348,-0.0962801501154899,0.878333568572998,0.5274787545204163,-0.0652823224663734,0.7785456776618958,0.5066660046577454,-0.0917170569300651,0.7225905060768127,0.5117200016975403,-0.1030358225107193,0.680999755859375,0.5197643637657166,-0.107107363641262
2023-08-01 16:05:33.882532,5,218,0.6956157088279724,0.1199565827846527,-0.104988195002079,0.7005045413970947,-0.341796875,0.90869140625,0.2138671875,0.853586733341217,0.7624420523643494,-8.421769166488957e-07,0.7541979551315308,0.6723249554634094,0.0092719681560993,0.6939074993133545,0.5900684595108032,-0.001958581386134,0.643530011177063,0.5406476259231567,-0.0209773927927017,0.6069127917289734,0.4984513819217682,-0.0405878201127052,0.8146178722381592,0.4334157705307007,0.0093487659469246,0.7131400108337402,0.3951481580734253,-0.025540443137288,0.6468804478645325,0.4197362959384918,-0.0582949109375476,0.6040865778923035,0.4530847370624542,-0.0786947384476661,0.8354972004890442,0.4459723532199859,-0.0153444083407521,0.7144088745117188,0.392436683177948,-0.0467464253306388,0.646852970123291,0.4296490252017975,-0.0734422728419303,0.6052524447441101,0.4719090163707733,-0.090240865945816,0.8427877426147461,0.4830397963523865,-0.0423258617520332,0.7293541431427002,0.4312899112701416,-0.0723945721983909,0.6596325039863586,0.4614830017089844,-0.0883071050047874,0.6129757761955261,0.4955083429813385,-0.0957182794809341,0.8338583707809448,0.5420876741409302,-0.0684907361865043,0.7300829887390137,0.5245552062988281,-0.0942141488194465,0.670928955078125,0.5301783680915833,-0.1049927473068237,0.6262483596801758,0.5372015237808228,-0.1087938249111175
2023-08-01 16:05:33.947602,6,219,0.6965704560279846,0.1091310754418373,-0.1018463522195816,0.7017886638641357,-0.34814453125,0.8759765625,0.22998046875,0.8430500626564026,0.7616308927536011,-8.620088465249864e-07,0.7428646087646484,0.6728460788726807,0.0119206914678215,0.6805459856987,0.5909460783004761,0.0020140009000897,0.6300942897796631,0.5413666367530823,-0.0159561168402433,0.5953144431114197,0.4983797669410705,-0.0344226546585559,0.8005515336990356,0.4296571314334869,0.0087220454588532,0.6969054937362671,0.3931218981742859,-0.0261956248432397,0.6303616762161255,0.4172695279121399,-0.058771226555109,0.5864028334617615,0.4509184956550598,-0.0790263190865516,0.8227395415306091,0.4403881132602691,-0.0166513491421937,0.6989458203315735,0.3899914920330047,-0.0462240539491176,0.6294082403182983,0.423433244228363,-0.0708920806646347,0.5845504403114319,0.4617473483085632,-0.0871486812829971,0.8294873833656311,0.4778218269348144,-0.043988611549139,0.7119441628456116,0.4275472164154053,-0.0733001977205276,0.6419609785079956,0.4568694531917572,-0.086441196501255,0.5934608578681946,0.4870837926864624,-0.0926084220409393,0.8180577158927917,0.5386109352111816,-0.0702860504388809,0.7123721241950989,0.5223135948181152,-0.0958752259612083,0.6532723903656006,0.5297242999076843,-0.1047687605023384,0.6078602075576782,0.5359576344490051,-0.1074304208159446
2023-08-01 16:05:34.009415,7,220,0.6978239417076111,0.0997601076960563,-0.0980056077241897,0.7024845480918884,-0.3583984375,0.90625,0.203125,0.8222928047180176,0.7614673972129822,-8.070038006735558e-07,0.7181071043014526,0.6748151779174805,0.014072922989726,0.6526463031768799,0.5991488099098206,0.0010529903229326,0.5943281650543213,0.5557976365089417,-0.0203639194369316,0.5483160018920898,0.5211541056632996,-0.0427721738815307,0.7753901481628418,0.4339626431465149,0.0023968152236193,0.6651009321212769,0.3924891054630279,-0.0301528051495552,0.5974979400634766,0.4218170344829559,-0.0598910525441169,0.5568827986717224,0.4568490087985992,-0.079128161072731,0.7948262095451355,0.4455054402351379,-0.0241449642926454,0.6654857993125916,0.3910015821456909,-0.0530761070549488,0.5956974029541016,0.4261710345745086,-0.0764857605099678,0.5525118112564087,0.4676293730735779,-0.0929941311478614,0.7974334955215454,0.4842517077922821,-0.0515188463032245,0.6759323477745056,0.4314016699790954,-0.0769693627953529,0.6043868064880371,0.4598555564880371,-0.0890001878142356,0.5558589696884155,0.4927215874195099,-0.0965510383248329,0.7828242182731628,0.5443511009216309,-0.0776982456445694,0.6752440929412842,0.5283709764480591,-0.100718930363655,0.6133697032928467,0.5333896279335022,-0.1102885603904724,0.5660030841827393,0.5388763546943665,-0.1149121597409248
2023-08-01 16:05:34.072635,8,221,0.6994650959968567,0.0875356867909431,-0.0907398983836174,0.7034574151039124,-0.32958984375,0.89306640625,0.21435546875,0.8104398250579834,0.7622825503349304,-8.25026802431239e-07,0.7068549394607544,0.6771201491355896,0.0159167032688856,0.6448320150375366,0.5989459753036499,0.0048203733749687,0.5885173082351685,0.5575511455535889,-0.0149702047929167,0.5434707999229431,0.5247513055801392,-0.0361178927123546,0.7670843601226807,0.4248582720756531,0.0042169536463916,0.6520617604255676,0.3873535096645355,-0.0258013885468244,0.5829913020133972,0.4119507074356079,-0.0534927137196064,0.5410436391830444,0.4451568722724914,-0.0714014321565628,0.7831328511238098,0.4376800954341888,-0.0220065638422966,0.6501563787460327,0.3893467783927917,-0.0474983863532543,0.5792731046676636,0.4246265888214111,-0.0687289535999298,0.5341536998748779,0.463492214679718,-0.0844976603984832,0.78239905834198,0.4781464040279388,-0.0488101579248905,0.658109724521637,0.4303525686264038,-0.0725734308362007,0.5863066911697388,0.4601438641548157,-0.0841646641492843,0.5365980267524719,0.4916324615478515,-0.0920667126774787,0.7638702988624573,0.540057897567749,-0.0742388293147087,0.6563343405723572,0.5268839597702026,-0.0956726893782615,0.5957670211791992,0.5365409851074219,-0.1043193638324737,0.5494477152824402,0.5451692938804626,-0.1088087484240531
2023-08-01 16:05:34.155595,9,222,0.700751543045044,0.0754008814692497,-0.0807926282286644,0.7047939896583557,-0.3486328125,0.87353515625,0.27197265625,0.7945445775985718,0.7617478370666504,-8.668326358929335e-07,0.6909969449043274,0.6744096875190735,0.0150144034996628,0.6319772005081177,0.594849705696106,0.002262991387397,0.5784884691238403,0.5498126745223999,-0.0187949333339929,0.5337645411491394,0.514430046081543,-0.0413340479135513,0.7544219493865967,0.4236480891704559,-0.0005433709011413,0.6350880861282349,0.3840083181858063,-0.032793540507555,0.5656870007514954,0.4165529608726501,-0.0608361959457397,0.5292723178863525,0.4568928480148315,-0.0784048959612846,0.7702352404594421,0.4385305047035217,-0.0264620743691921,0.6340231895446777,0.3883583545684814,-0.0535503104329109,0.5627228617668152,0.432247519493103,-0.0732420608401298,0.522038996219635,0.4788134396076202,-0.0870282277464866,0.7685497403144836,0.4806216657161712,-0.0528742410242557,0.6421020030975342,0.4323961436748504,-0.0775877684354782,0.5715821981430054,0.4699144959449768,-0.0870312750339508,0.5272303223609924,0.5069573521614075,-0.0928351283073425,0.7503065466880798,0.5432886481285095,-0.0778663754463195,0.6423940062522888,0.5329651832580566,-0.0997579246759414,0.5833799839019775,0.545107364654541,-0.1073000580072403,0.5405867695808411,0.5550984740257263,-0.1104887798428535
2023-08-01 16:05:34.226982,10,223,0.7018221020698547,0.0659339874982833,-0.0710626691579818,0.7057256102561951,-0.40185546875,0.89599609375,0.2421875,0.7828859686851501,0.7646796703338623,-8.679076586304291e-07,0.6771014332771301,0.6716234683990479,0.0197494346648454,0.6227832436561584,0.5912282466888428,0.0103094512596726,0.5736246705055237,0.5432412624359131,-0.0085134962573647,0.5317263603210449,0.5043617486953735,-0.0292072538286447,0.7425038814544678,0.4298610389232635,0.0051229917444288,0.6265990138053894,0.3851871490478515,-0.023910054937005,0.558692216873169,0.4123252928256988,-0.0489114038646221,0.5189319252967834,0.449137270450592,-0.063725970685482,0.756412148475647,0.4455241858959198,-0.0210654567927122,0.6233499050140381,0.3952353596687317,-0.0442596487700939,0.553369402885437,0.4347159564495086,-0.0623973943293094,0.5108335018157959,0.479277491569519,-0.0754610002040863,0.7532563805580139,0.4857281148433685,-0.047287218272686,0.6259156465530396,0.4502009749412536,-0.0674478784203529,0.556633710861206,0.4834749102592468,-0.0772059112787246,0.5111803412437439,0.5177178382873535,-0.0841407477855682,0.7337533235549927,0.5442324876785278,-0.0718739554286003,0.626707911491394,0.5376793146133423,-0.0876655057072639,0.5707578659057617,0.5501987934112549,-0.0935457125306129,0.5295603275299072,0.5620746612548828,-0.0965726152062416
2023-08-01 16:05:34.299516,11,224,0.7026172876358032,0.0597065202891826,-0.064842440187931,0.7060874700546265,-0.3583984375,0.896484375,0.18701171875,0.7158399820327759,0.7674826383590698,-7.858753861000878e-07,0.6093649864196777,0.6805916428565979,0.0170045793056488,0.5512998700141907,0.59330153465271,0.0078216232359409,0.4998059570789337,0.5470115542411804,-0.0093372575938701,0.4551376700401306,0.5169774889945984,-0.0287963654845953,0.6705047488212585,0.4315952360630035,-0.0016037533059716,0.5480437874794006,0.3937593102455139,-0.0300283320248127,0.4787512719631195,0.4292477369308471,-0.0533888228237628,0.4360940754413605,0.4696692824363708,-0.0687218606472015,0.6803195476531982,0.4456448554992676,-0.0279787965118885,0.5364358425140381,0.3884190917015075,-0.054052647203207,0.4670112729072571,0.4338728785514831,-0.0717982947826385,0.4244323968887329,0.4832998514175415,-0.0843297913670539,0.6727980375289917,0.4892385303974151,-0.0544415675103664,0.5406675934791565,0.425696313381195,-0.0807714238762855,0.4718810319900512,0.4616077840328216,-0.0923636481165885,0.4257013201713562,0.4983753263950348,-0.0990334674715995,0.6510465741157532,0.5539980530738831,-0.0789064019918441,0.5479390025138855,0.532999575138092,-0.1054189428687095,0.4883743524551391,0.5372722148895264,-0.117914542555809,0.4424459338188171,0.5421031713485718,-0.1243992075324058
2023-08-01 16:05:34.359188,12,225,0.7040759921073914,0.0529699139297008,-0.0574824772775173,0.7058094143867493,-0.3984375,0.89794921875,0.24365234375,0.697648286819458,0.7673143148422241,-8.686854471307015e-07,0.5939630270004272,0.677807629108429,0.0191396549344062,0.53824782371521,0.5952194333076477,0.0082274274900555,0.4841668009757995,0.5481486916542053,-0.0111897317692637,0.4364878535270691,0.5190690755844116,-0.0330683514475822,0.6550995707511902,0.4327476322650909,-0.0031670350581407,0.5309512615203857,0.3982546329498291,-0.0315064303576946,0.4641249775886535,0.4371899664402008,-0.0557087920606136,0.4286141097545624,0.4772112965583801,-0.0718118920922279,0.664213240146637,0.4472958743572235,-0.0310269687324762,0.5226494073867798,0.3902377486228943,-0.0577444210648536,0.4556877613067627,0.4367613494396209,-0.0774565860629081,0.414065420627594,0.487041175365448,-0.0913060531020164,0.6582955718040466,0.4906505048274994,-0.0580044537782669,0.5252253413200378,0.4296457171440124,-0.0828967317938804,0.4569568634033203,0.4661725163459778,-0.0942765027284622,0.4104623794555664,0.5034764409065247,-0.101782239973545,0.6359899640083313,0.5554479956626892,-0.0827858373522758,0.5267683267593384,0.5379647612571716,-0.1067895889282226,0.4673208594322204,0.542587161064148,-0.1178994625806808,0.4205543994903564,0.54488205909729,-0.1242478936910629
2023-08-01 16:05:34.412676,13,226,0.7049130201339722,0.0484199710190296,-0.0524317249655723,0.7056939601898193,-0.423828125,0.8896484375,0.203125,0.6569859981536865,0.7674059867858887,-7.806460757819877e-07,0.5522745251655579,0.685074508190155,0.0183434765785932,0.4976032078266144,0.605561375617981,0.0073678777553141,0.442211389541626,0.5613179206848145,-0.0113094449043273,0.3932026028633117,0.5351284146308899,-0.0325705558061599,0.6135030388832092,0.4444308280944824,-0.0080036791041493,0.4853797852993011,0.4028794765472412,-0.0359508283436298,0.4184474945068359,0.4406089782714844,-0.0575669705867767,0.3843750953674316,0.4783759415149688,-0.0718592479825019,0.6188046932220459,0.458749771118164,-0.0347220934927463,0.4730361998081207,0.395098328590393,-0.0601588897407054,0.4063653349876404,0.4407052993774414,-0.0760765522718429,0.366647720336914,0.4873558282852173,-0.0880466699600219,0.6093244552612305,0.5014652609825134,-0.0606644749641418,0.47378870844841,0.4394971132278442,-0.0844466015696525,0.4054758548736572,0.4755633175373077,-0.0943119823932647,0.3595955371856689,0.5094603896141052,-0.1017617434263229,0.5847963094711304,0.563738226890564,-0.0845648422837257,0.4838853478431701,0.543779730796814,-0.1083578467369079,0.4260667562484741,0.5493395924568176,-0.1204596906900405,0.3794507384300232,0.5509480834007263,-0.1283480674028396
2023-08-01 16:05:34.481281,14,227,0.7046929001808167,0.0444963797926902,-0.0503220781683921,0.7063255310058594,-0.38232421875,0.8681640625,0.21630859375,0.6531421542167664,0.7672182321548462,-8.543448188902403e-07,0.5508221983909607,0.6853593587875366,0.0225057229399681,0.4990237653255462,0.6055442094802856,0.0141232190653681,0.4474114179611206,0.5589343309402466,-0.0027050417847931,0.3997056484222412,0.5296061038970947,-0.0219995733350515,0.6178824305534363,0.4429280459880829,-0.003412366611883,0.4891799092292785,0.4010983109474182,-0.0292165447026491,0.4224080741405487,0.4367211759090423,-0.0492296703159809,0.3896423578262329,0.4751433730125427,-0.0621641129255294,0.6209354996681213,0.4560380578041076,-0.0301847085356712,0.4742733836174011,0.3967857956886291,-0.0530385449528694,0.4075097441673279,0.4404778480529785,-0.0669119730591774,0.3699584305286407,0.4891134798526764,-0.0776980966329574,0.6091811656951904,0.498210072517395,-0.0557259805500507,0.4689978063106537,0.4421021342277527,-0.0778120085597038,0.4017545580863952,0.4778539538383484,-0.084708496928215,0.3593159019947052,0.5137539505958557,-0.0901109725236892,0.5822797417640686,0.5604718923568726,-0.0789005905389785,0.4782646298408508,0.5391932129859924,-0.1001875028014183,0.4223896563053131,0.5442823767662048,-0.108847290277481,0.3793234229087829,0.5458205938339233,-0.1143316403031349
2023-08-01 16:05:34.536373,15,228,0.7044822573661804,0.0382053479552269,-0.0445217117667198,0.7072926759719849,-0.38623046875,0.92626953125,0.16552734375,0.6433854699134827,0.7684568762779236,-8.629854164610151e-07,0.5385103225708008,0.6847810745239258,0.0183004736900329,0.4838626384735107,0.6012469530105591,0.0082517825067043,0.4295210242271423,0.5511519312858582,-0.0096562895923852,0.3816844224929809,0.5149117112159729,-0.0296776797622442,0.6026288270950317,0.4434941709041595,-0.0068377121351659,0.4775276780128479,0.4003605246543884,-0.0346372909843921,0.4093822240829468,0.4378121197223663,-0.056838646531105,0.3755504488945007,0.4767776727676391,-0.0713973715901374,0.6094601154327393,0.4586461186408996,-0.0322625413537025,0.4664952456951141,0.4028865396976471,-0.0571886748075485,0.398260235786438,0.4446802139282226,-0.0743449032306671,0.3577219843864441,0.4892636239528656,-0.0877844914793968,0.6007171273231506,0.501200258731842,-0.0568676069378852,0.4633184671401977,0.4497407078742981,-0.0800359025597572,0.3948938250541687,0.4852931499481201,-0.0898536965250969,0.3501018285751343,0.5193167328834534,-0.0975939929485321,0.5770787000656128,0.5628969669342041,-0.0794858112931251,0.4735319316387176,0.5449776649475098,-0.1013728156685829,0.4153959155082702,0.5485990643501282,-0.1124791726469993,0.3690159022808075,0.5482431054115295,-0.1200688406825065
2023-08-01 16:05:34.600833,16,229,0.7029107213020325,0.033009260892868,-0.0404838882386684,0.709357500076294,-0.36669921875,0.8916015625,0.201171875,0.6313994526863098,0.764345645904541,-8.616721629550739e-07,0.529443621635437,0.6860125064849854,0.0208475142717361,0.4755719304084778,0.606772243976593,0.0125241819769144,0.4221647679805755,0.5569267868995667,-0.0033678179606795,0.3743487000465393,0.525093674659729,-0.0213281083852052,0.5962074995040894,0.4450580477714538,-0.0079665640369057,0.4692524969577789,0.4027606248855591,-0.0324382223188877,0.4012191891670227,0.4416639506816864,-0.0507726073265075,0.3682307004928589,0.4826935529708862,-0.0631629824638366,0.6010401844978333,0.4572266340255737,-0.0337985381484031,0.4547935426235199,0.3966121673583984,-0.0552465468645095,0.3888804316520691,0.4418048858642578,-0.0665688440203666,0.3525575399398803,0.4906761646270752,-0.0759597718715667,0.5893377065658569,0.4992087781429291,-0.0583336986601352,0.4507432579994201,0.4403531551361084,-0.0785346627235412,0.3861204981803894,0.4776094853878021,-0.0834344252943992,0.3448989391326904,0.5135126113891602,-0.0883554741740226,0.5615249276161194,0.5624111890792847,-0.0808310881257057,0.4592413008213043,0.5441646575927734,-0.1035120263695716,0.4007552862167358,0.5463123321533203,-0.1139322370290756,0.3543031215667724,0.5441548228263855,-0.120690107345581
2023-08-01 16:05:34.665590,17,230,0.7011384963989258,0.0262759793549776,-0.0406051650643348,0.7113829255104065,-0.3359375,0.87744140625,0.216796875,0.5987000465393066,0.7621265649795532,-8.04044987035013e-07,0.493406593799591,0.6835454702377319,0.0318422727286815,0.4374444484710693,0.6045799255371094,0.0291078872978687,0.3819077908992767,0.5582730174064636,0.0164106860756874,0.3348181545734405,0.5318161845207214,0.0008850953890942,0.5476557612419128,0.4375765919685364,0.0074876593425869,0.424334168434143,0.3906910419464111,-0.0096773533150553,0.3578738868236542,0.4298206865787506,-0.0233770627528429,0.3228685259819031,0.4691707491874695,-0.0330324284732341,0.5488985776901245,0.4466233849525451,-0.0230409689247608,0.4090486764907837,0.3887800574302673,-0.0356684513390064,0.3425347208976745,0.4329280853271484,-0.0434249080717563,0.3048261404037475,0.4808500409126282,-0.0514690019190311,0.5354824066162109,0.4878166019916534,-0.0517443940043449,0.3985000252723694,0.4266711473464966,-0.0648964196443557,0.3326152265071869,0.4648827910423279,-0.0675096660852432,0.291510671377182,0.5021044611930847,-0.0719619169831276,0.5068231821060181,0.5520798563957214,-0.0777671709656715,0.3987305760383606,0.5296435356140137,-0.0958065539598465,0.3413325548171997,0.5350787043571472,-0.1031194999814033,0.3000038862228393,0.538246750831604,-0.1077914088964462
2023-08-01 16:05:34.726392,18,231,0.7016028761863708,0.0209345296025276,-0.0402916260063648,0.711120069026947,-0.4130859375,0.875,0.19921875,0.5757265090942383,0.7559285759925842,-8.858316959958756e-07,0.4787964522838592,0.6700489521026611,0.0307438317686319,0.4242452979087829,0.5891849398612976,0.0272933039814233,0.3691810071468353,0.5401046276092529,0.0141442259773612,0.3239713907241821,0.5123383402824402,-0.0017205850454047,0.5435314774513245,0.4269008040428161,0.0047416780143976,0.4200687408447265,0.3874430954456329,-0.0136690698564052,0.3525803685188293,0.4208464026451111,-0.0292591415345668,0.3151519894599914,0.4558683633804321,-0.0404735952615737,0.5415676832199097,0.4390836358070373,-0.0246730223298072,0.4021792411804199,0.3852841854095459,-0.0406256467103958,0.3381264209747314,0.4280988276004791,-0.0524994917213916,0.2990741729736328,0.4735543131828308,-0.0635512396693229,0.524893581867218,0.4807624816894531,-0.0517219342291355,0.3892658352851867,0.4227928519248962,-0.0671775937080383,0.3287950158119201,0.4615426659584045,-0.0726969093084335,0.2883509397506714,0.4986672401428222,-0.079033762216568,0.4937166273593902,0.5456750392913818,-0.0759122297167778,0.3877816200256347,0.5248408913612366,-0.0938329249620437,0.3302722573280334,0.5295186638832092,-0.1023304685950279,0.2855472564697265,0.5312018394470215,-0.1085508689284324
2023-08-01 16:05:34.784813,19,232,0.7022191882133484,0.0177145581692457,-0.0400087684392929,0.7106150388717651,-0.3837890625,0.8505859375,0.21435546875,0.5733189582824707,0.7529636025428772,-8.71837130489439e-07,0.4699568152427673,0.6634929180145264,0.0358142666518688,0.4124853610992431,0.5821089744567871,0.0354382097721099,0.3579126894474029,0.5318952798843384,0.0248413011431694,0.3133206069469452,0.5041645169258118,0.0109192328527569,0.5293110609054565,0.425385057926178,0.0095646800473332,0.4028424918651581,0.3810766339302063,-0.0053006075322628,0.3361501097679138,0.4175195395946502,-0.0185633413493633,0.3014376163482666,0.4572156965732574,-0.0274855382740497,0.5292373299598694,0.4379298090934753,-0.0201456602662801,0.3879631757736206,0.3814926445484161,-0.029093949124217,0.3226593732833862,0.4221442341804504,-0.0365212522447109,0.2858507633209228,0.4697800278663635,-0.0448737256228923,0.5134252309799194,0.4806036055088043,-0.0469814650714397,0.3766720294952392,0.4250186085700989,-0.0560171082615852,0.3141853809356689,0.4591462314128876,-0.059616420418024,0.2754020392894745,0.4960127770900726,-0.0655440390110015,0.4815417826175689,0.5457727909088135,-0.0705648735165596,0.37271249294281,0.5261582732200623,-0.0831350088119506,0.3181643486022949,0.5328794717788696,-0.0882412865757942,0.2785507440567016,0.5407398343086243,-0.0922375917434692
2023-08-01 16:05:34.855071,20,233,0.7030544877052307,0.0134011218324303,-0.0379621461033821,0.7099955081939697,-0.39501953125,0.8642578125,0.2998046875,0.5512982606887817,0.7533091306686401,-8.936341941989667e-07,0.4529549181461334,0.6805777549743652,0.0434813313186168,0.3983268737792969,0.6065316796302795,0.0465004257857799,0.3447349965572357,0.5579766035079956,0.0385790131986141,0.2987027764320373,0.5359989404678345,0.0262084193527698,0.4951000213623047,0.4314207434654236,0.0154529577121138,0.3660036623477936,0.3973085284233093,0.0055237123742699,0.3026001751422882,0.4396565556526184,-0.0050880596973001,0.2698664665222168,0.4804487824440002,-0.0135978711768984,0.4928844571113586,0.4372367262840271,-0.0171063970774412,0.3464936017990112,0.3862480521202087,-0.0230799671262502,0.2861790657043457,0.4362716674804687,-0.0285098887979984,0.2547402679920196,0.489923894405365,-0.0360026471316814,0.477064698934555,0.4772914350032806,-0.0456395782530307,0.3368459045886993,0.4213245213031769,-0.0512690395116806,0.2757331132888794,0.4633046984672546,-0.0518680363893508,0.2386234253644943,0.5030872225761414,-0.0569868944585323,0.4462906420230865,0.5428413152694702,-0.0703063607215881,0.3375372290611267,0.5239357948303223,-0.0815069153904914,0.2838070690631866,0.533466100692749,-0.0850849077105522,0.2459320873022079,0.5384191274642944,-0.0884758979082107
2023-08-01 16:05:34.913101,21,234,0.7036491632461548,0.0160160642117261,-0.033925462514162,0.7095564603805542,-0.4013671875,0.8974609375,0.17578125,0.5353627800941467,0.7469853162765503,-9.678984724814654e-07,0.4681324660778045,0.6603783965110779,0.0517298579216003,0.4214418232440948,0.5808786749839783,0.0615152232348918,0.3763269186019897,0.5166839957237244,0.0600108504295349,0.3337162733078003,0.4899183213710785,0.0536313615739345,0.4917837381362915,0.429433524608612,0.0184892360121011,0.3668217658996582,0.3921821117401123,0.0124068511649966,0.3020434379577636,0.4307440519332886,0.0068786153569817,0.2693650722503662,0.4670596718788147,0.0020922590047121,0.4879370033740997,0.4345275163650512,-0.0140097588300704,0.3436166048049927,0.3831788301467895,-0.0170452538877725,0.2835341691970825,0.4320572018623352,-0.0194132830947637,0.2523859739303589,0.4827525913715362,-0.0249435435980558,0.4703645408153534,0.4728428721427917,-0.0411694757640361,0.3322510123252868,0.4161261916160583,-0.0445033982396125,0.2728926539421081,0.4590921998023987,-0.0447077080607414,0.23798668384552,0.5007004737854004,-0.0498446337878704,0.4379670917987823,0.5358242988586426,-0.063088446855545,0.3270891904830932,0.5227945446968079,-0.072774238884449,0.2750652134418487,0.5333507657051086,-0.0771137401461601,0.2380496710538864,0.5382209420204163,-0.0813316032290458
2023-08-01 16:05:34.983375,22,235,0.7033419609069824,0.0183534547686576,-0.0290746372193098,0.7100197076797485,-0.42333984375,0.89404296875,0.13916015625,0.5318460464477539,0.7501453161239624,-9.666836149335722e-07,0.4664558172225952,0.6665510535240173,0.0463468469679355,0.4144760370254516,0.5878143310546875,0.0521339997649192,0.3610635995864868,0.5314165949821472,0.0478576347231864,0.3095016479492187,0.5137167572975159,0.0391270034015178,0.4848701953887939,0.4294102489948272,0.0088248196989297,0.3548330068588257,0.3903450965881347,-0.0002212843246525,0.2903379797935486,0.4321859180927276,-0.0071701318956911,0.2609134912490845,0.4737984836101532,-0.0130587806925177,0.4800159931182861,0.4386437535285949,-0.0219813957810401,0.3350895941257477,0.3872793018817901,-0.0261900667101144,0.2753713130950928,0.4344618618488312,-0.0276743024587631,0.2454396039247512,0.4854545593261719,-0.0333923362195491,0.4626917243003845,0.480815589427948,-0.0478124134242534,0.3251582682132721,0.4261665940284729,-0.0517935790121555,0.2657122611999511,0.4674583077430725,-0.0512667782604694,0.2314063310623169,0.5066240429878235,-0.0566751435399055,0.4322239756584167,0.5467265248298645,-0.0690173953771591,0.3219394087791443,0.5319403409957886,-0.0805672407150268,0.2674614787101745,0.5404679179191589,-0.0861249715089798,0.2280838191509246,0.5447291731834412,-0.0915760099887847
2023-08-01 16:05:35.046176,23,236,0.7022417187690735,0.0176828987896442,-0.0289042554795742,0.7111318707466125,-0.3583984375,0.916015625,0.1357421875,0.5317652225494385,0.7501227855682373,-9.51531887949386e-07,0.47291961312294,0.6667104363441467,0.046816449612379,0.4235574603080749,0.585673451423645,0.0542360953986644,0.3733752965927124,0.5268540382385254,0.0513875260949134,0.3244456350803375,0.5074222087860107,0.0440398901700973,0.4823156893253326,0.4321135282516479,0.0130475955083966,0.3523244261741638,0.3940394222736358,0.004238165449351,0.2860644161701202,0.4330340623855591,-0.0032700453884899,0.253572404384613,0.471038669347763,-0.0089434888213872,0.4767612218856811,0.4396126866340637,-0.0174161288887262,0.3302083015441894,0.3882489800453186,-0.0214420799165964,0.2698881030082702,0.4365517199039459,-0.0229998007416725,0.2393076121807098,0.4897722005844116,-0.027763282880187,0.4586444199085235,0.4794529676437378,-0.0430804193019866,0.3219212889671325,0.4210813045501709,-0.0457736141979694,0.2627124190330505,0.4627517163753509,-0.044763870537281,0.2280524224042892,0.5047548413276672,-0.0491141825914382,0.4270810782909393,0.543750524520874,-0.0642521828413009,0.3190897405147552,0.5292794704437256,-0.0737558305263519,0.2677954137325287,0.5369855761528015,-0.0781797021627426,0.2307162284851074,0.5414347052574158,-0.0823588520288467
2023-08-01 16:05:35.114848,24,237,0.7014631032943726,0.0133384345099329,-0.0294233802706003,0.7119731307029724,-0.36669921875,0.912109375,0.14404296875,0.5197656750679016,0.7386468648910522,-9.29697421270248e-07,0.503757894039154,0.631770670413971,0.0619022138416767,0.4694844484329223,0.5454027056694031,0.0790560990571975,0.4307413399219513,0.476217120885849,0.0828273519873619,0.3896398246288299,0.4512256383895874,0.0809700861573219,0.4819816052913666,0.4255785346031189,0.027365006506443,0.3617843985557556,0.3842623829841614,0.0249585900455713,0.3000174462795257,0.4157217144966125,0.0247772205621004,0.2663096785545349,0.44496950507164,0.0246174726635217,0.4674122929573059,0.4357836246490478,-0.0077131558209657,0.3296810984611511,0.3865345120429992,-0.0062240515835583,0.272777259349823,0.4288631081581116,-0.0018314844928681,0.2434441298246383,0.476106584072113,-0.0015777943190187,0.4434868693351745,0.4751375913619995,-0.0367988236248493,0.3125053644180298,0.4252751469612121,-0.0334724709391593,0.2560539841651916,0.460750550031662,-0.0277954135090112,0.2221152186393737,0.4975802004337311,-0.0286509692668914,0.4111507833003998,0.5366942286491394,-0.0603295303881168,0.3075277805328369,0.5209483504295349,-0.0630733221769332,0.2603936195373535,0.5256303548812866,-0.0627398565411567,0.2259262353181839,0.5276689529418945,-0.0632710754871368
2023-08-01 16:05:35.191452,25,238,0.7003871202468872,0.0092141972854733,-0.0314961299300193,0.7130082845687866,-0.35693359375,0.89892578125,0.177734375,0.5158722996711731,0.73776775598526,-9.425926918993356e-07,0.4926152229309082,0.6349436044692993,0.0529459118843078,0.4583059251308441,0.5470697283744812,0.0657311305403709,0.423307716846466,0.4772377014160156,0.0669513493776321,0.3859978318214416,0.4487878084182739,0.0632732883095741,0.4816575050354004,0.4218585789203644,0.0181290972977876,0.3563451468944549,0.3839589953422546,0.0115713747218251,0.2920963168144226,0.4183704257011413,0.0070508373901247,0.2581296563148498,0.4508501291275024,0.0038930997252464,0.4696024954319,0.4331074953079223,-0.0136295417323708,0.327736884355545,0.3869717717170715,-0.0149947209283709,0.2698369920253753,0.4296974837779999,-0.0128632746636867,0.2396464794874191,0.4794793426990509,-0.0144731542095541,0.4469262063503265,0.4728052914142608,-0.0401899367570877,0.3139775395393371,0.4217892587184906,-0.0389037504792213,0.2576770484447479,0.4579318761825561,-0.033846016973257,0.2241634726524353,0.4969781935214996,-0.035287145525217,0.4150749444961548,0.535784900188446,-0.0621104799211025,0.3090584278106689,0.5203078389167786,-0.0682379752397537,0.260017991065979,0.5250851511955261,-0.0696378052234649,0.2241479307413101,0.528268575668335,-0.0710987225174903
2023-08-01 16:05:35.269185,26,239,0.6996880769729614,0.0052724108099937,-0.0324924550950527,0.7136896252632141,-0.3798828125,0.90087890625,0.158203125,0.4985851049423218,0.7208330035209656,-7.857845503167482e-07,0.4885426461696625,0.6146441698074341,0.0498054176568985,0.4625148177146911,0.5323776006698608,0.0596594624221324,0.4293166995048523,0.4701239466667175,0.0580937899649143,0.3896371722221374,0.4502979815006256,0.0511195436120033,0.4620558023452759,0.4235937297344208,0.0165614001452922,0.3452035188674927,0.3811974823474884,0.0068247970193624,0.2848979234695434,0.4109402894973755,0.0011718726018443,0.2524963021278381,0.4389796555042267,-0.002209312049672,0.4428261220455169,0.4355435967445373,-0.0153821557760238,0.3083137273788452,0.3815649151802063,-0.0216220524162054,0.2520245611667633,0.4235518276691437,-0.0205168630927801,0.2255788296461105,0.4702140688896179,-0.0212753843516111,0.416387140750885,0.474927693605423,-0.0427390858530998,0.2916346192359924,0.4121213555335998,-0.0472011268138885,0.2341611236333847,0.4502617716789245,-0.0435109175741672,0.2028051614761352,0.4891988635063171,-0.0439073368906974,0.3851160407066345,0.5344578623771667,-0.0652546063065528,0.2843599617481231,0.5173283815383911,-0.0756332799792289,0.2389622032642364,0.5235366821289062,-0.0773171037435531,0.2094542533159256,0.5246453881263733,-0.0777442082762718
2023-08-01 16:05:35.341566,27,240,0.6987278461456299,0.0039561712183058,-0.034692857414484,0.7145348787307739,-0.3271484375,0.88232421875,0.248046875,0.4880364537239074,0.7201499938964844,-8.131409572342818e-07,0.4905265867710113,0.6124772429466248,0.0511047579348087,0.4762910008430481,0.5306562781333923,0.0607691444456577,0.4645359516143799,0.4648167490959167,0.0577216073870658,0.4528025090694427,0.4318362176418304,0.049485832452774,0.4548733234405517,0.418976753950119,0.0204363223165273,0.3363966941833496,0.3814303278923034,0.0092447055503726,0.2742183804512024,0.4143267571926117,0.0030411956831812,0.2412127405405044,0.4450597167015075,8.95963967195712e-05,0.4355745613574981,0.4309684336185455,-0.012174136005342,0.3009547889232635,0.3821038901805877,-0.0190129969269037,0.2441729605197906,0.4242361783981323,-0.0170806311070919,0.2171270549297332,0.471888393163681,-0.0162838976830244,0.4091896414756775,0.4715382158756256,-0.0405279248952865,0.2836202383041382,0.4144839346408844,-0.0438956171274185,0.2293428927659988,0.4518445134162903,-0.0365797653794288,0.198611170053482,0.491703450679779,-0.0335888564586639,0.3781583309173584,0.5340827703475952,-0.0644599795341491,0.2779666185379028,0.5186997056007385,-0.0730019882321357,0.2336698770523071,0.5233418345451355,-0.0725786015391349,0.2021630853414535,0.5236200094223022,-0.0708262771368026
2023-08-01 16:05:35.398965,28,241,0.6991687417030334,0.0009977782610803,-0.032050285488367,0.7142372131347656,-0.40576171875,0.88671875,0.2421875,0.4659531712532043,0.7202690243721008,-7.990596486706636e-07,0.4480253159999847,0.6074166297912598,0.0514003075659275,0.4116356372833252,0.5168426632881165,0.063661128282547,0.3611042201519012,0.4621184468269348,0.0650358721613884,0.308063805103302,0.4553537666797638,0.0615847669541835,0.430753231048584,0.4204559624195099,0.0177318602800369,0.3125605881214142,0.3799732327461242,0.0112041030079126,0.2493394613265991,0.4084872007369995,0.0095989564433693,0.2124909311532974,0.4381008148193359,0.0096423514187335,0.4129328429698944,0.4292501807212829,-0.0133332628756761,0.2788298428058624,0.3748243749141693,-0.0143981408327817,0.2217714786529541,0.4165606200695038,-0.0084727192297577,0.1904006451368332,0.4641256332397461,-0.0052390717901289,0.3866781592369079,0.4654222726821899,-0.0393666177988052,0.2585955858230591,0.4142529964447021,-0.037303514778614,0.2032989859580993,0.4519114196300506,-0.0302950423210859,0.16978120803833,0.487897664308548,-0.0288562811911106,0.3532765209674835,0.5240222215652466,-0.0607835389673709,0.2518139481544494,0.5126985907554626,-0.0654378533363342,0.2044982761144638,0.522839367389679,-0.0649161338806152,0.1700667291879654,0.5287323594093323,-0.0640272349119186
2023-08-01 16:05:35.461768,29,242,0.6994835734367371,0.0014090249314904,-0.0345249250531196,0.7138128876686096,-0.42236328125,0.87890625,0.20068359375,0.4655442237854004,0.7246451377868652,-8.721821700419241e-07,0.445949524641037,0.6067466139793396,0.0645460709929466,0.4065372347831726,0.5188418030738831,0.0804750174283981,0.3559271097183227,0.4601947069168091,0.0818625837564468,0.3028421401977539,0.4504073858261108,0.0776775851845741,0.4177115559577942,0.4178448915481567,0.0310397949069738,0.2960747480392456,0.3736767172813415,0.0272553991526365,0.2326984703540802,0.4086377918720245,0.0276843756437301,0.1999558955430984,0.4447755515575409,0.0295514967292547,0.4051976203918457,0.42978635430336,-0.0066083632409572,0.2683719992637634,0.3754357695579529,-0.0031833772081881,0.2105113565921783,0.419017344713211,0.0057995156385004,0.1816681176424026,0.4715737104415893,0.0106552839279174,0.3828172087669372,0.4696340262889862,-0.0387682728469371,0.2517465651035309,0.4118261337280273,-0.0330293960869312,0.1967695653438568,0.451546311378479,-0.0219027064740657,0.1668165326118469,0.4936690032482147,-0.0181623306125402,0.3516454398632049,0.5309508442878723,-0.06541109085083,0.2461725622415542,0.5151141881942749,-0.0670602917671203,0.2009065896272659,0.523436963558197,-0.0636159628629684,0.1706798523664474,0.5298475623130798,-0.0608611367642879
2023-08-01 16:05:35.521471,30,243,0.6983815431594849,0.0027123759500682,-0.0397398956120014,0.7146163582801819,-0.42041015625,0.87939453125,0.1796875,0.4605497121810913,0.7259103059768677,-8.505708706252335e-07,0.4507019221782684,0.5993010997772217,0.0664314627647399,0.4144668579101562,0.5089390277862549,0.0838047564029693,0.364260196685791,0.4509331583976745,0.0859947353601455,0.3111083209514618,0.4426381886005401,0.0829042196273803,0.4181092381477356,0.4188919365406036,0.0369389541447162,0.2993362843990326,0.3750215470790863,0.0368833355605602,0.2382788062095642,0.4038316011428833,0.0402681492269039,0.2036159783601761,0.4339752793312073,0.0438102856278419,0.4017039239406585,0.4317027330398559,-0.0012614645529538,0.2683041989803314,0.3776830434799194,0.0058121625334024,0.2098295241594314,0.4151272177696228,0.0160922277718782,0.1770927011966705,0.4611098170280456,0.0213304068893194,0.3772960305213928,0.4697512984275818,-0.0339729599654674,0.2506528496742248,0.4135715961456299,-0.0249718986451625,0.1973697394132614,0.4475588500499725,-0.0132562732324004,0.1659073233604431,0.4849720895290375,-0.0097866980358958,0.3452155888080597,0.5282131433486938,-0.0612438134849071,0.2427530586719513,0.5148395299911499,-0.0603071637451648,0.1959399729967117,0.5201597213745117,-0.0563996508717536,0.1618979275226593,0.5243381261825562,-0.0537821017205715
2023-08-01 16:05:35.581755,31,244,0.6966969966888428,0.0062033259309828,-0.0490924753248691,0.7156568169593811,-0.40576171875,0.9013671875,0.22509765625,0.4542805850505829,0.7299066781997681,-8.844261856211233e-07,0.4410803914070129,0.6092926263809204,0.0619962401688098,0.4033015966415405,0.516983151435852,0.0773081555962562,0.3544439375400543,0.4548463821411133,0.0787886306643486,0.3028632402420044,0.4422670602798462,0.075374960899353,0.4127947092056274,0.420496255159378,0.029935035854578,0.2910089492797851,0.3783596754074096,0.0273791793733835,0.2292619794607162,0.4125558137893677,0.0285858195275068,0.1959618479013443,0.446353554725647,0.0305761750787496,0.3978226482868194,0.4317738115787506,-0.006268513854593,0.2622804045677185,0.379226803779602,-0.0017910819733515,0.206242561340332,0.4220393896102905,0.0071476940065622,0.1763989925384521,0.4714521169662475,0.0114618903025984,0.3737073242664337,0.4692167639732361,-0.0370304957032203,0.2453260272741317,0.4128522872924804,-0.0294330697506666,0.1928877830505371,0.4509840011596679,-0.0182258337736129,0.1623959243297577,0.4908110797405243,-0.0152263771742582,0.3414689302444458,0.528020441532135,-0.0626825392246246,0.2384393215179443,0.515234112739563,-0.0630562603473663,0.1918574273586273,0.5218629837036133,-0.0600629709661006,0.1582197099924087,0.5259401202201843,-0.0581083297729492
2023-08-01 16:05:35.644484,32,245,0.6945037841796875,0.0108526470139622,-0.0596480965614318,0.7169301509857178,-0.326171875,0.8955078125,0.23486328125,0.4481225311756134,0.7343477010726929,-8.57050451941177e-07,0.3931460976600647,0.6410781145095825,0.0458745844662189,0.3450899124145508,0.5586424469947815,0.0543481186032295,0.2932140827178955,0.5005398392677307,0.0530373752117157,0.2453216910362243,0.4824314713478088,0.0489371865987777,0.396269679069519,0.4196911752223968,0.0173937026411294,0.2754050493240356,0.3805055618286133,0.011307755485177,0.2130470424890518,0.4165704846382141,0.0078651970252394,0.1782243102788925,0.4512611627578735,0.0062403730116784,0.3891284763813019,0.4283691048622131,-0.0110311554744839,0.2525679469108581,0.3799826502799988,-0.0118430405855178,0.1943912953138351,0.4236825108528137,-0.009784179739654,0.16010482609272,0.471436083316803,-0.0101628042757511,0.3701884746551513,0.4649577140808105,-0.0349591299891471,0.2384096980094909,0.4216300845146179,-0.0333497859537601,0.1824751645326614,0.459301233291626,-0.0290388725697994,0.1465694904327392,0.4955780208110809,-0.0298106092959642,0.3390937149524688,0.5243965983390808,-0.0548756010830402,0.2362621128559112,0.5163516998291016,-0.0582036897540092,0.1877372711896896,0.5242478847503662,-0.0586089566349983,0.1508374214172363,0.5282500386238098,-0.05904271453619
2023-08-01 16:05:35.705875,33,246,0.6925517916679382,0.0131522286683321,-0.0670825839042663,0.7181217670440674,-0.330078125,0.88427734375,0.31298828125,0.448271244764328,0.7367560863494873,-8.963854725152487e-07,0.3749643862247467,0.6520443558692932,0.0497955977916717,0.3265553116798401,0.5750138163566589,0.0597463771700859,0.2764573395252228,0.5232458710670471,0.058852382004261,0.2318399846553802,0.5040307641029358,0.0554276853799819,0.3956885635852813,0.4214166104793548,0.0253514945507049,0.2755885422229767,0.3830597400665283,0.023080350831151,0.2132242918014526,0.4223454296588897,0.020885694772005,0.1778590679168701,0.4606728553771972,0.0197117421776056,0.3893430531024933,0.4262170791625976,-0.0040948502719402,0.2515789568424225,0.3779714703559875,0.0003810308407992,0.1912271529436111,0.4217502772808075,0.0029527824372053,0.1551593542098999,0.4688931107521057,0.0015086611965671,0.3719797134399414,0.4610365927219391,-0.0289408229291439,0.2381663620471954,0.4174893796443939,-0.0233107414096593,0.1821230202913284,0.4559506475925445,-0.019025145098567,0.1457693427801132,0.4927031695842743,-0.0211713407188653,0.3411344587802887,0.520179271697998,-0.0496345460414886,0.2365203201770782,0.5158094763755798,-0.04953383654356,0.1859295666217804,0.5268966555595398,-0.0491105131804943,0.1470889151096344,0.5340790152549744,-0.0499817691743373
2023-08-01 16:05:35.769781,34,247,0.6912631392478943,0.0128532769158482,-0.0685095191001892,0.7192333936691284,-0.39794921875,0.8798828125,0.2392578125,0.4470762014389038,0.7357494831085205,-8.909076996133081e-07,0.3566823899745941,0.6550409197807312,0.0483941324055194,0.3043790757656097,0.578545868396759,0.0564964599907398,0.2518763244152069,0.529670238494873,0.0536596700549125,0.2068747580051422,0.5105234384536743,0.0483153238892555,0.3929008841514587,0.4221506714820862,0.0246595256030559,0.2753581404685974,0.379716694355011,0.021822078153491,0.2130845785140991,0.4190398752689361,0.0186246335506439,0.1772924959659576,0.4588109850883484,0.0163981541991233,0.3880189955234527,0.4288537800312042,-0.0054465089924633,0.2517585158348083,0.3760107755661011,-0.0023558295797556,0.1905701011419296,0.4207369685173034,-0.0025675750803202,0.1545361876487732,0.4674729704856872,-0.0064365481957793,0.3717986643314361,0.4649692475795746,-0.0310835298150777,0.2391874194145202,0.4171602129936218,-0.0266245827078819,0.1818424761295318,0.4550854563713074,-0.0247641913592815,0.1440006494522094,0.4914321005344391,-0.02899313531816,0.342228889465332,0.5244417786598206,-0.0526189282536506,0.2359488904476165,0.5161824226379395,-0.0524728521704673,0.1838767677545547,0.5271033048629761,-0.0526883825659751,0.1440154761075973,0.5339825749397278,-0.0547692701220512
2023-08-01 16:05:35.836866,35,248,0.6905391216278076,0.0120533350855112,-0.0679887980222702,0.7199915647506714,-0.337890625,0.884765625,0.2255859375,0.4425459504127502,0.7325063347816467,-8.726988767193689e-07,0.3454411923885345,0.6576074957847595,0.0435792431235313,0.2953199744224548,0.5825420618057251,0.0482950583100318,0.2424095869064331,0.5372974872589111,0.0420071333646774,0.1950923800468444,0.520463764667511,0.0332935191690921,0.3895002901554107,0.4221256077289581,0.0237218588590621,0.2730440497398376,0.3834615349769592,0.0180036518722772,0.2129614204168319,0.42404904961586,0.0115781743079423,0.1786629408597946,0.464964747428894,0.0070108389481902,0.3873652219772339,0.4265790581703186,-0.0059095467440783,0.2524650692939758,0.373770534992218,-0.0068019027821719,0.1924040168523788,0.419786274433136,-0.0111509608104825,0.1566786170005798,0.467490553855896,-0.0176578294485807,0.3739294409751892,0.4610955119132995,-0.0317749045789241,0.241286426782608,0.4113246500492096,-0.0323545187711715,0.1831825077533722,0.4509939849376678,-0.0343821495771408,0.1449418663978576,0.4902932047843933,-0.0404505543410778,0.3457557559013366,0.518990159034729,-0.0537947192788124,0.2374789118766784,0.5146039724349976,-0.056926853954792,0.1838431656360626,0.5283287763595581,-0.0595323480665683,0.1428267210721969,0.5385290384292603,-0.0632435977458953
2023-08-01 16:05:35.891534,36,249,0.6901578307151794,0.0111489864066243,-0.0677379369735717,0.7203953266143799,-0.32421875,0.89697265625,0.27197265625,0.443856805562973,0.7322973012924194,-8.64049297888414e-07,0.3490834832191467,0.6590042114257812,0.039276797324419,0.2977040112018585,0.5836626291275024,0.0426277890801429,0.2434417754411697,0.5383747816085815,0.0357836224138736,0.1944953501224517,0.5231975317001343,0.0262140110135078,0.3917915225028991,0.4218612313270569,0.0205597169697284,0.2714408338069916,0.390748918056488,0.0129695478826761,0.2089299261569976,0.4313434362411499,0.0043490738607943,0.1734426617622375,0.4711532592773437,-0.0017235489794984,0.3887629210948944,0.4242691397666931,-0.0074725858867168,0.254566490650177,0.3739838600158691,-0.0095518287271261,0.1939733773469925,0.4199200272560119,-0.0150525961071252,0.1577465832233429,0.4676103293895721,-0.0222889948636293,0.374142974615097,0.4585027694702148,-0.0320889204740524,0.2430887073278427,0.408044159412384,-0.0348365828394889,0.1852864027023315,0.4483423233032226,-0.0376670882105827,0.1475528478622436,0.4875166416168213,-0.0436702854931354,0.3444059789180755,0.5184575915336609,-0.0531173609197139,0.2376844882965088,0.5134416222572327,-0.0580833591520786,0.185758039355278,0.5259383916854858,-0.0607569925487041,0.1466038972139358,0.5353434085845947,-0.0640626698732376
2023-08-01 16:05:35.951651,37,250,0.6896843314170837,0.0102090658619999,-0.0678108632564544,0.7208557724952698,-0.35986328125,0.8974609375,0.251953125,0.4423429667949676,0.7286217212677002,-8.796649240139232e-07,0.3458486199378967,0.6532447338104248,0.0438391156494617,0.2944484949111938,0.5802175402641296,0.0489704273641109,0.2393090724945068,0.5349730253219604,0.0432437546551227,0.1901660412549972,0.5187770128250122,0.0346377715468406,0.3910722136497497,0.4225842952728271,0.0228883996605873,0.2725081443786621,0.3864869177341461,0.0185259822756052,0.211830124258995,0.4277668297290802,0.0133207933977246,0.178000807762146,0.4687278270721435,0.0095471469685435,0.3889296054840088,0.4260359406471252,-0.006371134892106,0.2539877593517303,0.3732557296752929,-0.006714557763189,0.1936776489019394,0.4200395345687866,-0.0104990536347031,0.1586895883083343,0.4690723717212677,-0.0164912603795528,0.3747062087059021,0.459952175617218,-0.0314813368022441,0.2423391938209533,0.4102280139923095,-0.031759962439537,0.184963122010231,0.4499652683734894,-0.03316330909729,0.1481122225522995,0.4893140494823456,-0.0387038178741931,0.3450213372707367,0.5176777243614197,-0.0525371208786964,0.2366914749145507,0.5110118389129639,-0.0552355647087097,0.1844994723796844,0.5244625210762024,-0.0566131621599197,0.1458071917295456,0.5347189903259277,-0.0593479834496974
2023-08-01 16:05:36.011739,38,251,0.6889462471008301,0.01038702391088,-0.0698462650179863,0.7213645577430725,-0.3583984375,0.88623046875,0.255859375,0.4397655427455902,0.7244704365730286,-8.695709539097152e-07,0.3437274694442749,0.6508300304412842,0.039875790476799,0.2939193248748779,0.5774362683296204,0.0434649176895618,0.2414382100105285,0.5325836539268494,0.0367413498461246,0.1944954693317413,0.517055869102478,0.0272647608071565,0.3903446197509765,0.4208935797214508,0.0210519395768642,0.2725346386432647,0.3893722891807556,0.0137743987143039,0.2102011442184448,0.4297056198120117,0.0053962101228535,0.1739082932472229,0.4688438773155212,-0.0005545070162042,0.3878427743911743,0.4247184991836548,-0.0069627682678401,0.255434513092041,0.3760013282299042,-0.0090989517048001,0.1944943815469741,0.4227011799812317,-0.0146864308044314,0.1583866328001022,0.4703221619129181,-0.0220072790980339,0.3734912276268005,0.458965927362442,-0.0314857997000217,0.2445976138114929,0.407649964094162,-0.0343402735888958,0.1861448884010315,0.4487760365009308,-0.0372568108141422,0.1480309665203094,0.4883584380149841,-0.0433079563081264,0.3445787727832794,0.5176342725753784,-0.0523130744695663,0.239619567990303,0.5122599005699158,-0.057762261480093,0.1875726580619812,0.5250421166419983,-0.060611043125391,0.1483426839113235,0.5345064401626587,-0.0639102980494499
2023-08-01 16:05:36.079770,39,252,0.6878812313079834,0.0120312236249446,-0.0732811167836189,0.7220141887664795,-0.32958984375,0.87841796875,0.31396484375,0.4399861097335815,0.7276284694671631,-8.672249123264919e-07,0.341762512922287,0.6533450484275818,0.0399384386837482,0.2909256815910339,0.579701840877533,0.042615782469511,0.2361737191677093,0.5366072058677673,0.0347996279597282,0.1875689327716827,0.5219993591308594,0.0239270962774753,0.3879562020301819,0.4198957681655884,0.0202747080475091,0.266443133354187,0.3905874788761139,0.0125277452170848,0.2047147750854492,0.4332703351974487,0.0034299264661967,0.1713285148143768,0.4743285477161407,-0.0032320590689778,0.3869607448577881,0.424003005027771,-0.0085335215553641,0.2508519291877746,0.3771702945232391,-0.0106095988303422,0.1915469318628311,0.4250784516334533,-0.0160054601728916,0.1574572026729583,0.47402223944664,-0.0233973618596792,0.3736515045166015,0.4590959846973419,-0.0338486582040786,0.2415682524442672,0.4086543619632721,-0.0364548005163669,0.1849500238895416,0.4503006935119629,-0.0385308265686035,0.1485583335161209,0.4903277158737182,-0.0443711318075656,0.3445328176021576,0.5185948014259338,-0.0555655322968959,0.2371627390384674,0.5142191648483276,-0.0621359981596469,0.1856448799371719,0.527341365814209,-0.0652890726923942,0.147068589925766,0.536582350730896,-0.0687854960560798
2023-08-01 16:05:36.145495,40,253,0.6871379613876343,0.0144582092761993,-0.0756409913301467,0.7224339246749878,-0.3466796875,0.90283203125,0.31298828125,0.4364715814590454,0.7218753695487976,-8.865420113579603e-07,0.3481340408325195,0.6469123363494873,0.041407261043787,0.2966397702693939,0.5726077556610107,0.0447601228952407,0.2431904971599578,0.5271708965301514,0.0375901497900486,0.1950867027044296,0.5126546621322632,0.0273162294179201,0.391832560300827,0.4214583039283752,0.0188646484166383,0.2707306742668152,0.3880731463432312,0.011680593714118,0.2091709077358245,0.4311387240886688,0.0037218420766294,0.1769216507673263,0.4721802473068237,-0.0019962892401963,0.3878977596759796,0.4267209470272064,-0.0098629891872406,0.2532243728637695,0.3769121170043945,-0.0104471798986196,0.1922297030687332,0.4240976274013519,-0.0141711430624127,0.1578328013420105,0.4722310602664947,-0.0209564715623855,0.3714125156402588,0.4618922770023346,-0.0348685197532177,0.2417957782745361,0.4097501337528229,-0.0349870696663856,0.184128537774086,0.4516804218292236,-0.0363827906548976,0.1481665223836898,0.4912019371986389,-0.0427426472306251,0.3408377766609192,0.5195255875587463,-0.0561607927083969,0.2359081655740738,0.5152459740638733,-0.060346882790327,0.1848820149898529,0.5286927223205566,-0.0631808266043663,0.1473174393177032,0.5381406545639038,-0.0672250837087631
2023-08-01 16:05:36.209367,41,254,0.6859375834465027,0.0206613019108772,-0.0812346935272216,0.7228164672851562,-0.3291015625,0.9072265625,0.29248046875,0.4405876100063324,0.7255614995956421,-8.514171554452332e-07,0.342992216348648,0.6519338488578796,0.0366863347589969,0.2907022535800934,0.5775929689407349,0.036733690649271,0.2357859760522842,0.5353925228118896,0.0264404043555259,0.1871243715286255,0.5202098488807678,0.0130634885281324,0.3902056515216827,0.4216671586036682,0.0165735352784395,0.2680331468582153,0.3933780193328857,0.0051008854061365,0.2061315923929214,0.4369214177131653,-0.0072690555825829,0.1733151972293853,0.4776993989944458,-0.0160687621682882,0.3883049786090851,0.4266196489334106,-0.0125198224559426,0.2545657157897949,0.3772289156913757,-0.0188886746764183,0.1959952861070633,0.4264456033706665,-0.0265325233340263,0.1629495024681091,0.4759277403354645,-0.034618355333805,0.3736877739429474,0.4619876444339752,-0.0384723879396915,0.2459259033203125,0.4064152538776397,-0.044092621654272,0.1883280128240585,0.4491037726402282,-0.0465952157974243,0.1513585895299911,0.4886991679668426,-0.0519403517246246,0.3438283801078796,0.5211997628211975,-0.0611152499914169,0.2381523996591568,0.5144816637039185,-0.0696663483977317,0.1860045045614242,0.5276104211807251,-0.0727927461266517,0.14738529920578,0.5358840227127075,-0.0757434144616127
2023-08-01 16:05:36.274574,42,255,0.6844558119773865,0.025697810575366,-0.0870112404227256,0.7233870625495911,-0.3388671875,0.8779296875,0.318359375,0.4518746137619018,0.7272046804428101,-8.769135888542223e-07,0.3534064590930938,0.6596090793609619,0.0337455384433269,0.3048190772533417,0.5895390510559082,0.0321879349648952,0.2525367140769958,0.5521658658981323,0.0207377057522535,0.2053307592868805,0.5362962484359741,0.0064417123794555,0.4043023586273193,0.4230799078941345,0.0131126893684268,0.2848464250564575,0.3954063057899475,-0.0021304718684405,0.2224833071231842,0.4400616288185119,-0.0181852877140045,0.1886445581912994,0.4832940399646759,-0.0295143704861402,0.4028040170669555,0.4260980784893036,-0.0147155951708555,0.2660792768001556,0.3759438991546631,-0.0249992124736309,0.2075582146644592,0.4241457879543304,-0.0351078175008297,0.17551189661026,0.4763021469116211,-0.0449534207582473,0.3887011408805847,0.461997926235199,-0.0397643223404884,0.2565883696079254,0.4097638726234436,-0.049127958714962,0.1980723142623901,0.45112144947052,-0.0529527477920055,0.1617611199617386,0.4929225742816925,-0.0589272156357765,0.3596097230911255,0.5205458402633667,-0.0616959817707538,0.2533548772335052,0.5158281326293945,-0.0732270702719688,0.1994620710611343,0.5314589142799377,-0.0778882429003715,0.1598937660455703,0.5441535115242004,-0.0820002481341362
2023-08-01 16:05:36.357380,43,256,0.6808499097824097,0.0322174541652202,-0.0941474437713623,0.7256319522857666,-0.33447265625,0.8984375,0.30712890625,0.4557131230831146,0.7294368147850037,-8.787783372099511e-07,0.3574614822864532,0.658806562423706,0.0353785268962383,0.3081562221050262,0.584539532661438,0.0350924357771873,0.2522016167640686,0.5421195030212402,0.0246893651783466,0.2006020098924636,0.5266947746276855,0.0110524343326687,0.4061520099639892,0.4224451184272766,0.0166239663958549,0.2852211594581604,0.3994689285755157,0.0057314177975058,0.2217427194118499,0.4433008134365082,-0.0071135102771222,0.1859993934631347,0.4835447967052459,-0.0166679378598928,0.4055099785327911,0.4254814088344574,-0.0114576295018196,0.271759033203125,0.3781615197658539,-0.0180375538766384,0.2128758430480957,0.4260929226875305,-0.0269961841404438,0.1778300106525421,0.4751471877098083,-0.0364677906036376,0.3920692503452301,0.4605424404144287,-0.0363371931016445,0.2630577683448791,0.4086174070835113,-0.0426501780748367,0.2043478786945343,0.4496852159500122,-0.0460893213748931,0.1658399254083633,0.4889755845069885,-0.0523774251341819,0.3631260395050049,0.5191867351531982,-0.0579429119825363,0.2558039426803589,0.514633297920227,-0.0672934874892234,0.201709046959877,0.5286783576011658,-0.0710812509059906,0.1610071361064911,0.5388316512107849,-0.0747166648507118
2023-08-01 16:05:36.434893,44,257,0.6770393252372742,0.0399169214069843,-0.1036290079355239,0.7275201082229614,-0.2861328125,0.892578125,0.32958984375,0.4849222898483276,0.7142525315284729,-8.700948228579364e-07,0.3839269280433655,0.6423152685165405,0.0328758731484413,0.3289735615253448,0.5749152302742004,0.030705276876688,0.2706168293952942,0.5413132309913635,0.0181060284376144,0.2211735397577285,0.522026002407074,0.002936785807833,0.4226504266262054,0.4140603244304657,0.0143825877457857,0.3081448972225189,0.3874163031578064,-0.0016049906844273,0.2480018436908722,0.429301381111145,-0.0174323376268148,0.213278442621231,0.468705952167511,-0.0284996833652257,0.4254800677299499,0.419021874666214,-0.0146362325176596,0.2949485182762146,0.3726188838481903,-0.0268664397299289,0.234194815158844,0.4190816879272461,-0.0381252728402614,0.1981155574321746,0.468639612197876,-0.048277597874403,0.4160577058792114,0.4536310136318207,-0.0414048694074153,0.2912486493587494,0.3995778560638428,-0.0533457584679126,0.2314092218875885,0.4409424066543579,-0.0574654377996921,0.1928125470876693,0.4829643666744232,-0.0626303330063819,0.3919956088066101,0.5111598968505859,-0.0651725158095359,0.2871975898742676,0.5030680894851685,-0.079547993838787,0.2312967926263809,0.51785808801651,-0.0842926502227783,0.1895942538976669,0.5305370092391968,-0.0874499008059501
2023-08-01 16:05:36.505309,45,258,0.6739657521247864,0.0521548800170421,-0.1124712154269218,0.7282857894897461,-0.27392578125,0.8779296875,0.29248046875,0.4872132539749145,0.7043492794036865,-8.544144520783448e-07,0.3816510736942291,0.6344322562217712,0.032093446701765,0.3298706114292145,0.5654802918434143,0.0307474266737699,0.2742844820022583,0.5318057537078857,0.0187676902860403,0.2265458405017852,0.5126969218254089,0.0038621360436081,0.4290441870689392,0.4100521206855774,0.0164102241396904,0.3144018352031708,0.3853711485862732,0.0013446676312014,0.2556785941123962,0.4232697188854217,-0.0146178780123591,0.2201884984970092,0.4579459726810455,-0.0262441150844097,0.4345342516899109,0.4148077368736267,-0.0119463400915265,0.2988634407520294,0.3751589655876159,-0.0253793057054281,0.238314688205719,0.4205343425273895,-0.0395518653094768,0.2018070966005325,0.4680423140525818,-0.0520200096070766,0.4277268648147583,0.4484504461288452,-0.0380486510694026,0.2972943782806396,0.4037305414676666,-0.0509583428502082,0.2363309413194656,0.4431634247303009,-0.0577202327549457,0.1966011226177215,0.4836579263210296,-0.0646527707576751,0.4051758646965027,0.5033556818962097,-0.0611606538295745,0.3013776540756225,0.4973143339157104,-0.0751730725169181,0.2454467415809631,0.5095049738883972,-0.0809918493032455,0.2033155262470245,0.5193666815757751,-0.085368275642395
2023-08-01 16:05:36.575952,46,259,0.6720497012138367,0.0633499994874,-0.1186821535229682,0.7281829714775085,-0.30908203125,0.841796875,0.31201171875,0.4968703389167785,0.6935985088348389,-8.560481887798232e-07,0.3932303190231323,0.6317467093467712,0.030095824971795,0.3423154652118683,0.5652240514755249,0.0285726487636566,0.2895210981369018,0.5329059362411499,0.017246589064598,0.2421753108501434,0.5153650641441345,0.0026560097467154,0.4333069324493408,0.4066472053527832,0.0099988700821995,0.3179705440998077,0.3874261975288391,-0.0068634641356766,0.2576011717319488,0.4279382526874542,-0.0233357660472393,0.2232041209936142,0.4657384157180786,-0.0345692411065101,0.4399241507053375,0.4113641381263733,-0.0167877078056335,0.3055381774902344,0.3746232390403747,-0.0315400250256061,0.2442220449447631,0.4177878499031067,-0.0449616014957428,0.2078537940979004,0.4648500680923462,-0.0565301403403282,0.434418648481369,0.4455140233039856,-0.0412789806723594,0.3060605227947235,0.4100581407546997,-0.0547834411263465,0.2444382309913635,0.446350485086441,-0.0619921796023845,0.2046199440956115,0.4846038222312927,-0.0690959244966507,0.4139326810836792,0.4999328255653381,-0.0627856031060218,0.3103190064430237,0.4956099390983581,-0.0754660740494728,0.2546965181827545,0.5087090730667114,-0.0807811468839645,0.2133310884237289,0.5204907655715942,-0.0850589945912361
2023-08-01 16:05:36.633260,47,260,0.6714268922805786,0.0747301653027534,-0.1241205781698226,0.7267704606056213,-0.2763671875,0.86376953125,0.3388671875,0.5356619954109192,0.687968909740448,-8.452110478174291e-07,0.4396707117557525,0.617316484451294,0.0216578096151351,0.3812765181064605,0.5504801273345947,0.0142721505835652,0.320305734872818,0.5180617570877075,-0.0019871881231665,0.271582156419754,0.4962201714515686,-0.0198074821382761,0.4944576025009155,0.3873118758201599,0.0058806361630558,0.3770973980426788,0.3625364899635315,-0.0143105359748005,0.3133854269981384,0.3987264633178711,-0.0342550761997699,0.2751653492450714,0.4368163049221039,-0.0484407246112823,0.4993321895599365,0.3927122950553894,-0.0196423530578613,0.364255279302597,0.3531768321990967,-0.0362755060195922,0.3008924424648285,0.3952504992485046,-0.0526481941342353,0.2592473030090332,0.441163033246994,-0.0673480108380317,0.4891982674598694,0.4280479550361633,-0.0438569709658622,0.3624452352523803,0.3834032118320465,-0.0584802813827991,0.3030810952186584,0.4217686057090759,-0.0655998662114143,0.2624925374984741,0.4619969427585602,-0.0733004510402679,0.4617750942707062,0.485254555940628,-0.0661491751670837,0.3606612682342529,0.4763063490390777,-0.0830326452851295,0.3074585497379303,0.4927523732185364,-0.0901029706001281,0.2661977410316467,0.5099044442176819,-0.0951982140541076
2023-08-01 16:05:36.689547,48,261,0.6717355251312256,0.0865697339177131,-0.1262931823730468,0.7247945070266724,-0.283203125,0.90234375,0.22607421875,0.5505717396736145,0.6863006949424744,-8.370495265808131e-07,0.4523149132728576,0.6181739568710327,0.0268874652683734,0.3958132565021515,0.5510579347610474,0.0225711315870285,0.3404245972633362,0.5149592161178589,0.0081466399133205,0.2945993542671203,0.488842248916626,-0.0088030509650707,0.5048171281814575,0.3924395740032196,0.0113818142563104,0.3952955603599548,0.3692257404327392,-0.0103940526023507,0.3309778571128845,0.3992031514644623,-0.0310651212930679,0.291151762008667,0.434550017118454,-0.0448797196149826,0.5107055902481079,0.399819016456604,-0.0177437160164117,0.3813721537590027,0.3576213717460632,-0.0344724208116531,0.3173311650753021,0.3926144242286682,-0.0503327324986457,0.2758857607841491,0.4345461428165436,-0.0636778846383094,0.5028167366981506,0.4354205429553985,-0.046035386621952,0.3780141174793243,0.3987545669078827,-0.0631713345646858,0.3135631680488586,0.4298067092895508,-0.0724018514156341,0.2688032388687134,0.462135910987854,-0.0804391875863075,0.4799013435840606,0.4901524782180786,-0.0719294846057891,0.3806256651878357,0.4772107005119324,-0.0892394408583641,0.325920969247818,0.4890974760055542,-0.0968218967318534,0.2824397683143616,0.5007078051567078,-0.1019144728779792
2023-08-01 16:05:36.750836,49,262,0.6719140410423279,0.0993505343794822,-0.128191739320755,0.7226533889770508,-0.28564453125,0.90234375,0.2900390625,0.5635990500450134,0.684914231300354,-8.052547286752088e-07,0.4687142968177795,0.6164555549621582,0.022098870947957,0.4102165400981903,0.5474786162376404,0.0140071306377649,0.3511886298656463,0.5121568441390991,-0.0032324625644832,0.3018785715103149,0.4862393736839294,-0.0224337764084339,0.5188274383544922,0.3904560208320617,0.0058543100021779,0.4086657166481018,0.3644979596138,-0.0192779228091239,0.3441338539123535,0.3959275782108307,-0.0416935645043849,0.3052675724029541,0.4328100681304931,-0.0561960414052009,0.5263157486915588,0.398653119802475,-0.0217571463435888,0.3973457217216491,0.3529325127601623,-0.0417220033705234,0.3330929577350616,0.3912180960178375,-0.0575461015105247,0.2917297184467315,0.4355262815952301,-0.0697738155722618,0.5199329853057861,0.434584379196167,-0.0489449724555015,0.3953392803668976,0.3943231701850891,-0.0672646164894104,0.3316595554351806,0.4262064397335052,-0.0745726451277732,0.2878590524196625,0.4591615200042724,-0.0805751085281372,0.4982422590255737,0.4901544153690338,-0.0741714611649513,0.3980187773704529,0.4772395193576813,-0.0921009257435798,0.3438366949558258,0.4887958168983459,-0.0986229330301284,0.3017244040966034,0.4999211430549621,-0.1023752465844154
2023-08-01 16:05:36.817986,50,263,0.672170877456665,0.1148346662521362,-0.1320535689592361,0.7194172143936157,-0.205078125,0.93017578125,0.29736328125,0.5802510380744934,0.6866738796234131,-8.031983043110813e-07,0.4822233319282532,0.6178670525550842,0.0178060568869113,0.425609290599823,0.548269510269165,0.0078946081921458,0.3711596131324768,0.5110349059104919,-0.0102078551426529,0.3245666027069092,0.4868492782115936,-0.0300645623356103,0.5340993404388428,0.3879708051681518,0.0014734723372384,0.4233946502208709,0.3667355179786682,-0.0270090904086828,0.3595105409622192,0.3980712592601776,-0.0523645356297493,0.3200094997882843,0.434702455997467,-0.0682552903890609,0.542128324508667,0.3962195217609405,-0.0243646502494812,0.4143085777759552,0.354151964187622,-0.0465496927499771,0.3495300710201263,0.3908651173114776,-0.0635367855429649,0.306661307811737,0.4334902167320251,-0.076191671192646,0.5366301536560059,0.4331343472003937,-0.0501708723604679,0.4137229323387146,0.3946142196655273,-0.0708399787545204,0.3496468663215637,0.4267318546772003,-0.0786957219243049,0.3052188158035278,0.4590007662773132,-0.0843088999390602,0.5158239603042603,0.4907834529876709,-0.0743690133094787,0.4157113432884216,0.4799509644508362,-0.0930849909782409,0.361587643623352,0.4929089844226837,-0.0992666408419609,0.3193196654319763,0.5044518709182739,-0.1022935733199119
2023-08-01 16:05:36.875844,51,264,0.6738656759262085,0.1251048296689987,-0.128044843673706,0.716839075088501,-0.3662109375,0.923828125,0.2373046875,0.6387393474578857,0.7105830907821655,-9.064957566806696e-07,0.5441479682922363,0.6327269077301025,0.0197319295257329,0.4864129424095154,0.5616249442100525,0.0125024924054741,0.4303547441959381,0.528632640838623,-0.0043549500405788,0.3854952454566955,0.5007030963897705,-0.0224576462060213,0.5941539406776428,0.396713376045227,0.0129782259464263,0.4829901456832886,0.3648364543914795,-0.0125689515843987,0.4231148362159729,0.3970033228397369,-0.0373722165822982,0.388741135597229,0.4300349652767181,-0.0534973293542861,0.6042516231536865,0.4076074361801147,-0.0130062699317932,0.472289115190506,0.3684253692626953,-0.0363464206457138,0.4122796356678009,0.4118368625640869,-0.0567934848368167,0.3752006888389587,0.4587590396404266,-0.0709262937307357,0.6017565131187439,0.4418227672576904,-0.0392804630100727,0.4750335216522217,0.4195453226566314,-0.0569496043026447,0.4142461121082306,0.4544459879398346,-0.0658035352826118,0.3734612762928009,0.4898280501365661,-0.0720703229308128,0.5865702033042908,0.493992805480957,-0.0644568726420402,0.486427903175354,0.4913198053836822,-0.077308639883995,0.4339369535446167,0.5043504238128662,-0.0823175832629203,0.3914864957332611,0.5152953267097473,-0.0852560251951217
2023-08-01 16:05:36.944449,52,265,0.6735492944717407,0.1381479799747467,-0.1290787756443023,0.7145524621009827,-0.27490234375,0.90185546875,0.21875,0.6636127233505249,0.7087613940238953,-8.651536518300418e-07,0.5638784766197205,0.63368159532547,0.0245442781597375,0.505654513835907,0.5586190819740295,0.0202698186039924,0.4473164677619934,0.5200283527374268,0.0055806040763854,0.399639368057251,0.4890808761119842,-0.0112724797800183,0.612942099571228,0.4009338617324829,0.0176846943795681,0.5009925365447998,0.3808073997497558,-0.0046673878096044,0.4390762746334076,0.4146973192691803,-0.0267959088087081,0.4025521576404571,0.4484695494174957,-0.0417177565395832,0.6237722039222717,0.4051085114479065,-0.0112855937331914,0.4943548142910003,0.3619066476821899,-0.0310160461813211,0.4300574362277984,0.4027249813079834,-0.0483395233750343,0.3882287442684173,0.4477238953113556,-0.0603314004838466,0.6220996379852295,0.4376771748065948,-0.0401548482477664,0.4967937469482422,0.3963719010353088,-0.0588526725769043,0.4321783483028412,0.4297775626182556,-0.0676053017377853,0.3871124982833862,0.4632404446601867,-0.0733610540628433,0.6048548221588135,0.4915309846401214,-0.0671210289001464,0.4989475607872009,0.4874881505966186,-0.0852751955389976,0.4427026808261871,0.5015513300895691,-0.0925347134470939,0.3986063301563263,0.5132668018341064,-0.09596648812294
2023-08-01 16:05:36.998985,53,266,0.6739183664321899,0.1477607190608978,-0.1277578026056289,0.7125158309936523,-0.26806640625,0.92822265625,0.2578125,0.6743620038032532,0.7079631686210632,-8.689651167514967e-07,0.5762264132499695,0.6286920309066772,0.0218045208603143,0.5188511610031128,0.5554830431938171,0.014812278561294,0.4626996517181396,0.5189430713653564,-0.002500214613974,0.415809154510498,0.4896697103977203,-0.0214333049952983,0.6287980079650879,0.3982967138290405,0.0154907666146755,0.5180363059043884,0.3751164674758911,-0.01153982616961,0.4554457366466522,0.407838225364685,-0.0374103188514709,0.4178836643695831,0.4415643811225891,-0.0541914626955986,0.6398571133613586,0.4057972431182861,-0.0131015013903379,0.5114970803260803,0.3654672503471374,-0.036825556308031,0.4474536180496216,0.4066349864006042,-0.0567772909998893,0.4054334759712219,0.4507094025611877,-0.0700819119811058,0.6391667723655701,0.4393612146377563,-0.0421537272632122,0.5154930949211121,0.3962593078613281,-0.0634305775165557,0.450879693031311,0.4289244711399078,-0.0722103714942932,0.4049635827541351,0.4620406925678253,-0.0772265195846557,0.6237054467201233,0.4947001934051513,-0.069703884422779,0.5198540687561035,0.4898908138275146,-0.0886048302054405,0.4639780521392822,0.5005708932876587,-0.0953346863389015,0.4199851155281067,0.5092154145240784,-0.098038800060749
2023-08-01 16:05:37.065785,54,267,0.6744406819343567,0.1547611653804779,-0.1252908855676651,0.7109718322753906,-0.35205078125,0.9375,0.2119140625,0.6985270977020264,0.7114574313163757,-8.370565751647518e-07,0.5997110605239868,0.6264814734458923,0.0178583730012178,0.5384538769721985,0.5517916679382324,0.0093279080465435,0.4807677268981933,0.5123423337936401,-0.008565510623157,0.4338802099227905,0.482801228761673,-0.0276469979435205,0.6503292322158813,0.3961711227893829,0.0148268304765224,0.5442733764648438,0.3754302263259887,-0.0128818899393081,0.4815767705440521,0.4023328721523285,-0.0405422933399677,0.4406226277351379,0.4307853281497955,-0.0593275912106037,0.6663970947265625,0.4024067521095276,-0.0130138909444212,0.5402323603630066,0.3651365637779236,-0.0369514636695385,0.4773821532726288,0.4017346203327179,-0.0592074431478977,0.4349479079246521,0.4406913518905639,-0.0750146657228469,0.6704694628715515,0.4361653923988342,-0.0417809002101421,0.5487639904022217,0.3994802236557007,-0.0633847117424011,0.4827560186386108,0.4286278486251831,-0.0740229040384292,0.4348425567150116,0.4579024910926819,-0.0811645165085792,0.658806562423706,0.4928557872772217,-0.069512628018856,0.5574154853820801,0.490058958530426,-0.089487075805664,0.5010897517204285,0.4997477829456329,-0.0975363701581955,0.4559638798236847,0.5069329738616943,-0.1015728339552879
2023-08-01 16:05:37.129303,55,268,0.6734029650688171,0.1653796881437301,-0.1258925497531891,0.7094568610191345,-0.29248046875,0.92529296875,0.1630859375,0.7393547892570496,0.7243165969848633,-8.829271678223449e-07,0.648400068283081,0.6366068720817566,0.0132249593734741,0.5864346623420715,0.5599563717842102,0.0053095258772373,0.5299347043037415,0.5215610861778259,-0.0116754649206995,0.485196053981781,0.4895749092102051,-0.0290588829666376,0.6953325271606445,0.4051384627819061,0.0176779199391603,0.597816526889801,0.3767624497413635,-0.0127758616581559,0.5367205142974854,0.4026512503623962,-0.0428877174854278,0.4984902441501617,0.4354683756828308,-0.0623014010488987,0.7123324871063232,0.4142442345619201,-0.0079734465107321,0.5969464778900146,0.3751160502433777,-0.0335106588900089,0.5335143208503723,0.4103319942951202,-0.0568938106298446,0.4911068081855774,0.4511854350566864,-0.0723491236567497,0.7181846499443054,0.4486071169376373,-0.0361166819930076,0.6058073043823242,0.4141929745674133,-0.0593413338065147,0.5410728454589844,0.4394246935844421,-0.07124675065279,0.4958763122558594,0.4674864709377289,-0.0779387056827545,0.7107070088386536,0.5046919584274292,-0.0638787224888801,0.6109258532524109,0.5036173462867737,-0.0828744322061538,0.5577678680419922,0.5128721594810486,-0.0901394113898277,0.5167158842086792,0.521359920501709,-0.0931903198361396
2023-08-01 16:05:37.186335,56,269,0.6729758381843567,0.1711117476224899,-0.1254700124263763,0.7085771560668945,-0.28662109375,0.921875,0.26806640625,0.7541012763977051,0.7216101884841919,-8.145324272845755e-07,0.6632994413375854,0.6378819942474365,0.0103105651214718,0.6029576659202576,0.5632551908493042,-1.330761006101966e-05,0.5474334359169006,0.5229380130767822,-0.0189740825444459,0.5042297840118408,0.4840376079082489,-0.038022231310606,0.7053874731063843,0.4098071455955505,0.0149031840264797,0.6089615821838379,0.3812384307384491,-0.0165357552468776,0.548766016960144,0.4074228405952453,-0.0478206500411033,0.5098423957824707,0.438384085893631,-0.0684045851230621,0.7241953015327454,0.4150531888008117,-0.0100639956071972,0.6075391173362732,0.37289959192276,-0.0376806780695915,0.5459307432174683,0.4092817008495331,-0.064138188958168,0.505504846572876,0.4486867189407348,-0.0821771174669265,0.731346070766449,0.4458644986152649,-0.0375200323760509,0.6200717687606812,0.4015212655067444,-0.0618574321269989,0.5542919635772705,0.4278906881809234,-0.0768115669488906,0.507175087928772,0.4580465853214264,-0.0859748572111129,0.7231486439704895,0.5001117587089539,-0.0647304207086563,0.6224403381347656,0.4935145676136017,-0.0866070911288261,0.5655889511108398,0.5007873773574829,-0.0977791026234626,0.5207154750823975,0.5084099769592285,-0.1036458238959312
2023-08-01 16:05:37.256354,57,270,0.6728264689445496,0.1770349293947219,-0.1242385953664779,0.7074798941612244,-0.294921875,0.9033203125,0.18408203125,0.7786497473716736,0.7188781499862671,-7.814929858795949e-07,0.6882052421569824,0.6366453170776367,0.0049482616595923,0.6267960667610168,0.5634520649909973,-0.0056396080181002,0.5705187916755676,0.5177883505821228,-0.0242802239954471,0.5298885107040405,0.4729100465774536,-0.0414981432259082,0.7310377359390259,0.4098119139671325,0.0173735879361629,0.6433711051940918,0.3713449835777282,-0.0154004339128732,0.5835179090499878,0.3873514533042907,-0.0477877594530582,0.5409103631973267,0.4116379916667938,-0.0685757622122764,0.7526332139968872,0.4163427650928497,-0.0042374213226139,0.6438009142875671,0.3722886443138122,-0.0320104993879795,0.5816799998283386,0.3992530405521393,-0.0583312958478927,0.5383914709091187,0.4288080036640167,-0.0765096545219421,0.7626199126243591,0.4456687569618225,-0.0295973084867,0.6550663709640503,0.4045312404632568,-0.0563162676990032,0.5896213054656982,0.4278767108917236,-0.0699391290545463,0.5414164066314697,0.4550986289978027,-0.0770729184150695,0.7560935020446777,0.4980598986148834,-0.0554307587444782,0.6587504744529724,0.4856616854667663,-0.077719360589981,0.6030797958374023,0.4899420738220215,-0.08719502389431,0.5591351985931396,0.4964202344417572,-0.0913136154413223
2023-08-01 16:05:37.315307,58,271,0.6725954413414001,0.183861494064331,-0.1232129782438278,0.7061365842819214,-0.2783203125,0.9169921875,0.2080078125,0.7815154790878296,0.7166944742202759,-7.549419365204812e-07,0.6958434581756592,0.6347291469573975,0.0027677933685481,0.6347976922988892,0.5604243278503418,-0.0093616284430027,0.581540048122406,0.5129445791244507,-0.0290496442466974,0.5417192578315735,0.4653120636940002,-0.0474241524934768,0.7351638078689575,0.4095326066017151,0.0127554638311266,0.6506128907203674,0.3666052222251892,-0.0239430572837591,0.5906581878662109,0.3821998834609985,-0.0583975166082382,0.5496171712875366,0.4091159701347351,-0.0798537880182266,0.7594807147979736,0.4153320789337158,-0.0082172350957989,0.6555573344230652,0.3687508106231689,-0.0406286045908927,0.5920450687408447,0.3991967439651489,-0.0687082707881927,0.5505635738372803,0.4332475662231445,-0.0869670212268829,0.7715679407119751,0.4450843334197998,-0.0331937782466411,0.6699215769767761,0.3984364867210388,-0.0625941529870033,0.6049834489822388,0.4249583482742309,-0.0774867609143257,0.560272753238678,0.4561681449413299,-0.0848283171653747,0.7670383453369141,0.4982801377773285,-0.0586822368204593,0.6723925471305847,0.4872037172317505,-0.0839461088180542,0.6167721748352051,0.491525650024414,-0.0957935750484466,0.5749834775924683,0.4972431361675262,-0.1009905710816383
2023-08-01 16:05:37.394372,59,272,0.673004150390625,0.1882227063179016,-0.1205198690295219,0.7050620913505554,-0.322265625,0.9228515625,0.17041015625,0.7900742888450623,0.7148652076721191,-8.114993761410005e-07,0.70587557554245,0.6354637145996094,0.0027469932101666,0.6452038884162903,0.5597678422927856,-0.0093709286302328,0.5919669270515442,0.5137377381324768,-0.0288536120206117,0.5517361164093018,0.4694461822509765,-0.047430332750082,0.7469802498817444,0.4053938686847687,0.0083822589367628,0.6596879363059998,0.3633857369422912,-0.0292014293372631,0.5995564460754395,0.3789311051368713,-0.0632595717906951,0.5578108429908752,0.4071156680583954,-0.0838745832443237,0.7702127695083618,0.4130566418170929,-0.0126644521951675,0.6645023822784424,0.3689051866531372,-0.04732496291399,0.6013227105140686,0.4022409319877624,-0.0757543966174125,0.5591942071914673,0.4404272437095642,-0.0931984186172485,0.7811594009399414,0.4445956349372864,-0.0373856574296951,0.6772095561027527,0.4021424949169159,-0.0687030106782913,0.6113485097885132,0.4287934005260467,-0.0853275209665298,0.5652972459793091,0.4601352512836456,-0.0929728150367736,0.7758238911628723,0.4987088739871979,-0.0623431764543056,0.6799477338790894,0.4847730994224548,-0.0890730395913124,0.6219828128814697,0.4873245060443878,-0.102226436138153,0.5775708556175232,0.4925601482391357,-0.1077390611171722
2023-08-01 16:05:37.474562,60,273,0.6733052730560303,0.1957478374242782,-0.1207561120390892,0.7026811242103577,-0.2978515625,0.91748046875,0.1669921875,0.807579755783081,0.7188713550567627,-8.329627121383965e-07,0.720673680305481,0.6335011720657349,0.0082964701578021,0.6649007201194763,0.5566962957382202,-0.0014099109685048,0.6150246858596802,0.510773241519928,-0.0196727961301803,0.5762558579444885,0.466952383518219,-0.0377474538981914,0.7722854614257812,0.4067736268043518,0.0172422751784324,0.6845047473907471,0.3729588389396667,-0.0178414918482303,0.6240906715393066,0.3888266086578369,-0.0521631129086017,0.5804729461669922,0.4152556657791137,-0.0734090730547905,0.7946629524230957,0.414703756570816,-0.0064641744829714,0.6892604231834412,0.3687625527381897,-0.0356640666723251,0.6263187527656555,0.396554559469223,-0.0632157698273658,0.5821835994720459,0.4299750626087188,-0.08126812428236,0.8047361969947815,0.4451997578144073,-0.0334579944610595,0.7011086344718933,0.3993425369262695,-0.0615645460784435,0.6365068554878235,0.4234319627285003,-0.0767452865839004,0.5892989635467529,0.4526867866516113,-0.0841335579752922,0.7974295616149902,0.4980452954769134,-0.0603188090026378,0.7006951570510864,0.4849452972412109,-0.0832106545567512,0.6462804079055786,0.4901519119739532,-0.0924119427800178,0.6039082407951355,0.4975346028804779,-0.0956604182720184
2023-08-01 16:05:37.546502,61,274,0.674181342124939,0.2023507952690124,-0.1186772584915161,0.7003210186958313,-0.35400390625,0.92822265625,0.14501953125,0.8406113386154175,0.7279918789863586,-8.312441650559776e-07,0.7535964250564575,0.6391164064407349,0.0072770803235471,0.6963797807693481,0.5585894584655762,-0.002938127843663,0.641681432723999,0.5100573301315308,-0.0221785958856344,0.6027719974517822,0.4597009718418121,-0.0407815128564834,0.8058022856712341,0.4151204228401184,0.020094234496355,0.7176549434661865,0.3757671117782593,-0.0141640184447169,0.6590018272399902,0.3922669887542724,-0.0479769296944141,0.618861734867096,0.419358879327774,-0.0693473666906356,0.8265550136566162,0.4241634905338287,-0.0046188812702894,0.7182643413543701,0.3729125261306762,-0.0357332304120063,0.658779501914978,0.4038497805595398,-0.0659651383757591,0.6191763281822205,0.4390333890914917,-0.0851651579141616,0.836106538772583,0.4539564847946167,-0.0328130349516868,0.7322880029678345,0.4018619954586029,-0.0632095038890838,0.6681289672851562,0.4256667494773865,-0.0799261331558227,0.6225301027297974,0.4556959271430969,-0.0872329771518707,0.8293160200119019,0.5054751038551331,-0.0608803629875183,0.7324084639549255,0.4828128218650818,-0.0866933315992355,0.6771873831748962,0.482759028673172,-0.0978016480803489,0.634604811668396,0.487508088350296,-0.1015871167182922
2023-08-01 16:05:37.613026,62,275,0.6734018325805664,0.2058595567941665,-0.1176683008670806,0.7002184987068176,-0.31005859375,0.919921875,0.17626953125,0.8414872884750366,0.7260634303092957,-7.702375910412229e-07,0.7578541040420532,0.6393914222717285,0.0046440148726105,0.7000370621681213,0.5630225539207458,-0.0079790111631155,0.6476792097091675,0.5134904980659485,-0.0290169119834899,0.6109827160835266,0.461393654346466,-0.0494889318943023,0.8032170534133911,0.4148274958133697,0.016860706731677,0.7183880805969238,0.3778281211853027,-0.0218335185199975,0.6588013172149658,0.3912487626075744,-0.058416448533535,0.6155233979225159,0.4171338379383087,-0.0810191109776496,0.8269137740135193,0.4223558902740478,-0.0074246935546398,0.7216743230819702,0.3704680502414703,-0.042756300419569,0.6609615087509155,0.4016188681125641,-0.0736661478877067,0.6204003691673279,0.4389424920082092,-0.0922641307115554,0.8392202854156494,0.4529715180397033,-0.0358149223029613,0.7404564023017883,0.3992016911506653,-0.0693311914801597,0.6769014596939087,0.4239551723003387,-0.0860504359006881,0.6315264701843262,0.4552809596061706,-0.0925197899341583,0.8355337381362915,0.506278395652771,-0.0643553063273429,0.741879403591156,0.4891131222248077,-0.093030147254467,0.6887025833129883,0.4905374348163605,-0.1053617745637893,0.6479400396347046,0.4952115416526794,-0.1093499213457107
2023-08-01 16:05:37.676281,63,276,0.672380268573761,0.2078025192022323,-0.1164755895733833,0.7008255124092102,-0.29638671875,0.91943359375,0.17822265625,0.845081090927124,0.7268961668014526,-8.016081096684502e-07,0.7618990540504456,0.6402968168258667,0.0060684196650981,0.7065644860267639,0.5642016530036926,-0.0049896594136953,0.6543766260147095,0.5169329047203064,-0.0248982887715101,0.6149478554725647,0.4661387801170349,-0.0444521196186542,0.8093952536582947,0.4141049087047577,0.0201836302876472,0.7256984114646912,0.3797145783901214,-0.0174279548227787,0.667694091796875,0.3962589502334595,-0.0534130558371543,0.6262544393539429,0.4248386919498443,-0.0754643604159355,0.8332949280738831,0.4212313294410705,-0.0039756400510668,0.7298201322555542,0.3740804195404053,-0.0382884368300437,0.6703093647956848,0.4070098102092743,-0.0687030032277107,0.6303984522819519,0.4464715123176574,-0.0868545845150947,0.8453766703605652,0.4516206979751587,-0.0322708971798419,0.7469558715820312,0.4031645655632019,-0.0642600208520889,0.6841589212417603,0.4281758069992065,-0.0807961672544479,0.6391839981079102,0.4596537351608276,-0.087367869913578,0.840537428855896,0.5047019720077515,-0.0607439391314983,0.7471241354942322,0.4886851012706756,-0.0875185504555702,0.6944105625152588,0.4908963143825531,-0.0992361381649971,0.6541157364845276,0.4955832362174988,-0.1030157282948494
2023-08-01 16:05:37.730621,64,277,0.6716038584709167,0.2115356177091598,-0.1185306459665298,0.7001081109046936,-0.29638671875,0.9072265625,0.19482421875,0.860231339931488,0.7256325483322144,-8.216948117478751e-07,0.7723186612129211,0.6408499479293823,0.0149053856730461,0.7158437967300415,0.5667881965637207,0.0044654384255409,0.6653730869293213,0.5220292210578918,-0.0174094922840595,0.6247502565383911,0.4721480011940002,-0.040142074227333,0.8173136711120605,0.419420450925827,0.024141764268279,0.7309583425521851,0.3805503249168396,-0.014327248558402,0.6727588772773743,0.396108329296112,-0.0506996251642704,0.6329448223114014,0.4247774481773376,-0.0735978633165359,0.8418945074081421,0.4269500970840454,-0.007670460268855,0.7365237474441528,0.3722028136253357,-0.0443954765796661,0.676442563533783,0.4063527882099151,-0.076995812356472,0.6390865445137024,0.4459612369537353,-0.0970913097262382,0.8538809418678284,0.4558022916316986,-0.0430274792015552,0.7548592686653137,0.40120530128479,-0.0776051133871078,0.6913819909095764,0.4295297265052795,-0.0962304025888443,0.6493638753890991,0.4630487263202667,-0.104848526418209,0.8502473831176758,0.5044245719909668,-0.0777242705225944,0.7565453052520752,0.4868783354759216,-0.1079425290226936,0.7021862864494324,0.4911109209060669,-0.1220220029354095,0.6626055240631104,0.4969271719455719,-0.1280553638935089
2023-08-01 16:05:37.794122,65,278,0.6712461113929749,0.2148830741643905,-0.116549827158451,0.6997643113136292,-0.33544921875,0.92333984375,0.1591796875,0.8556089997291565,0.7263457775115967,-7.933828669592913e-07,0.7732466459274292,0.640756368637085,0.0049540987238287,0.7161467671394348,0.564874529838562,-0.0069949384778738,0.6637690663337708,0.5165666937828064,-0.0276120416820049,0.6241085529327393,0.4659001231193542,-0.047739990055561,0.8187479972839355,0.4158295392990112,0.0183124188333749,0.7360566854476929,0.3787926733493805,-0.0197463873773813,0.6771642565727234,0.3954819738864898,-0.0558390766382217,0.6368035078048706,0.4256332516670227,-0.0780069977045059,0.8434682488441467,0.4227748215198517,-0.0056087910197675,0.7408870458602905,0.3738828599452972,-0.0410762913525104,0.6797140836715698,0.4071095585823059,-0.0723083466291427,0.6398913860321045,0.4471057653427124,-0.0910857841372489,0.8567461967468262,0.4518505930900574,-0.0336900353431701,0.756941556930542,0.4041771292686462,-0.0658552348613739,0.693553626537323,0.4317822456359863,-0.0829452648758888,0.6504774689674377,0.4653099477291107,-0.0901739373803138,0.8536540865898132,0.5028178095817566,-0.0620445348322391,0.7587032914161682,0.4863081574440002,-0.0883548557758331,0.7052820324897766,0.4905836880207062,-0.1003695502877235,0.6660288572311401,0.4975035786628723,-0.1047796756029129
2023-08-01 16:05:37.854516,66,279,0.6703362464904785,0.2188021093606948,-0.1156876012682914,0.6995651125907898,-0.29638671875,0.92041015625,0.130859375,0.8649595975875854,0.7302238941192627,-8.09873426987906e-07,0.7807025909423828,0.6435578465461731,0.0135774761438369,0.7241577506065369,0.5669360160827637,0.0037982510402798,0.6722179651260376,0.5198865532875061,-0.0170616395771503,0.6314524412155151,0.4693532586097717,-0.0382777489721775,0.8282110095024109,0.4224767982959747,0.0264333076775074,0.7430561780929565,0.3807687163352966,-0.0097068464383482,0.6843456029891968,0.3941105306148529,-0.0442238003015518,0.6437387466430664,0.4211694896221161,-0.0659917443990707,0.8511238098144531,0.4297257363796234,-0.0035830454435199,0.7454220056533813,0.37343230843544,-0.0383112765848636,0.6851259469985962,0.406084269285202,-0.06930872797966,0.6465538144111633,0.4434781968593597,-0.0881751105189323,0.8618897795677185,0.4578478336334228,-0.0373418778181076,0.7612773180007935,0.4024301171302795,-0.0698834583163261,0.6981455683708191,0.4292600750923157,-0.0869562327861785,0.6554406881332397,0.4608539342880249,-0.0944622308015823,0.857297420501709,0.5062820315361023,-0.0706979781389236,0.7622066140174866,0.4874664545059204,-0.0991326719522476,0.7089664340019226,0.4893423020839691,-0.1124935075640678,0.6697764992713928,0.4930348694324493,-0.1180169284343719
2023-08-01 16:05:37.921584,67,280,0.6694812178611755,0.2212153524160385,-0.1166405752301216,0.6994667053222656,-0.30126953125,0.90283203125,0.17919921875,0.8747934103012085,0.7258355021476746,-8.112997988973802e-07,0.7938631176948547,0.6366332769393921,0.0046079591847956,0.7384107708930969,0.5611984729766846,-0.0066161439754068,0.6895637512207031,0.5135678052902222,-0.0268286485224962,0.6532185077667236,0.462387204170227,-0.0464083179831504,0.8350303769111633,0.4170379638671875,0.0210656020790338,0.7579762935638428,0.3815599679946899,-0.0177614875137805,0.7015184164047241,0.3941653668880462,-0.0556019656360149,0.6603610515594482,0.4199468493461609,-0.0793863162398338,0.8607912659645081,0.4230258464813232,-0.0030376021750271,0.7664244174957275,0.377502828836441,-0.0396176986396312,0.7075952887535095,0.4068430960178375,-0.0726745501160621,0.6675583124160767,0.4419824481010437,-0.0929488092660904,0.8771341443061829,0.4511330127716064,-0.0316749848425388,0.7860099077224731,0.4038775563240051,-0.0668867081403732,0.7238478660583496,0.4300287961959839,-0.0849848687648773,0.6801555156707764,0.4635360240936279,-0.0921705886721611,0.8793428540229797,0.5022620558738708,-0.0606680586934089,0.7904518842697144,0.4830847084522247,-0.0901552215218544,0.736167848110199,0.4834360480308532,-0.1030531153082847,0.6947774291038513,0.4867312908172607,-0.1076167449355125
2023-08-01 16:05:37.978900,68,281,0.6690113544464111,0.2235191464424133,-0.115772508084774,0.6993279457092285,-0.29833984375,0.92138671875,0.1630859375,0.869252622127533,0.7204331755638123,-7.677807047912211e-07,0.7925369739532471,0.6379522085189819,0.0018277132185176,0.7370061278343201,0.5590206980705261,-0.0103180445730686,0.6867040991783142,0.5082439184188843,-0.0310942996293306,0.6516177654266357,0.4517852067947387,-0.0511668510735034,0.8351654410362244,0.4169386923313141,0.0182656291872262,0.762657105922699,0.3757492005825043,-0.0233757197856903,0.7045990228652954,0.3876791596412658,-0.0615681074559688,0.6634688377380371,0.4165902137756347,-0.0848970934748649,0.8626437783241272,0.42482990026474,-0.0051083602011203,0.7718498110771179,0.3719595074653625,-0.046308159828186,0.709988534450531,0.4013505280017853,-0.0801721513271331,0.6696736216545105,0.4387118518352508,-0.099596232175827,0.8797497749328613,0.4533093273639679,-0.0335693769156932,0.7892686128616333,0.4034804999828338,-0.073412112891674,0.7248966693878174,0.4314761757850647,-0.0930623710155487,0.6818456053733826,0.466311901807785,-0.0998864695429802,0.8823423385620117,0.5020092129707336,-0.0623276531696319,0.7922011613845825,0.4807218909263611,-0.0955612659454345,0.7377810478210449,0.4833073019981384,-0.1107556670904159,0.6982948184013367,0.4890593886375427,-0.1161234900355339
2023-08-01 16:05:38.042948,69,282,0.668419361114502,0.2276741713285446,-0.1141442880034446,0.6988211870193481,-0.3037109375,0.9296875,0.14794921875,0.8771183490753174,0.720883846282959,-7.908211614449101e-07,0.7974163293838501,0.6383987665176392,0.0050732609815895,0.7423227429389954,0.5617361664772034,-0.007016900461167,0.6922978758811951,0.5133269429206848,-0.0285338759422302,0.6524060964584351,0.4615126252174377,-0.0502030290663242,0.8415569067001343,0.4184309244155884,0.0196864400058984,0.768631100654602,0.3768822848796844,-0.0210949499160051,0.7106808423995972,0.3849545419216156,-0.0598030351102352,0.666872501373291,0.4104090929031372,-0.0838196501135826,0.8677961826324463,0.4256987273693084,-0.0056669269688427,0.7747834920883179,0.373083084821701,-0.0458362586796283,0.7129999995231628,0.4014870226383209,-0.0819821059703826,0.6706711053848267,0.4379912316799164,-0.1036057472229003,0.8831372261047363,0.4536111652851105,-0.035493966192007,0.791049599647522,0.4054459929466247,-0.0733135566115379,0.725662350654602,0.430720567703247,-0.0961175039410591,0.6799086332321167,0.4639503061771393,-0.1059940159320831,0.8833610415458679,0.5015204548835754,-0.0653174445033073,0.7931877970695496,0.4806682467460632,-0.0961337238550186,0.7394463419914246,0.4812602400779724,-0.1124753803014755,0.6991285085678101,0.4862630367279053,-0.1196071058511734
2023-08-01 16:05:38.102948,70,283,0.667812168598175,0.2312332391738891,-0.1138256639242172,0.6982848048210144,-0.2880859375,0.9140625,0.16357421875,0.8787940144538879,0.7203772068023682,-7.772220556034881e-07,0.7974862456321716,0.6359479427337646,0.0071094087325036,0.7422015070915222,0.5614349842071533,-0.0043939552269876,0.693745493888855,0.5115013122558594,-0.0261445362120866,0.6564963459968567,0.4571320712566376,-0.047987975180149,0.8365728855133057,0.4228917062282562,0.0233961418271064,0.7670194506645203,0.3814832866191864,-0.0180126577615737,0.709658145904541,0.3902092278003692,-0.0570031218230724,0.6663393378257751,0.4160104393959045,-0.081216923892498,0.8646160364151001,0.429086685180664,-0.0039651314727962,0.7766573429107666,0.3744337558746338,-0.0449923686683177,0.7148747444152832,0.4026519060134887,-0.0810514166951179,0.6732292175292969,0.4380887150764465,-0.1024824976921081,0.8821413516998291,0.4552998840808868,-0.0360877178609371,0.7951370477676392,0.4038229584693908,-0.075128898024559,0.7306541800498962,0.4310638904571533,-0.0974086076021194,0.6866480708122253,0.4660424292087555,-0.1067775711417198,0.8852487206459045,0.5020908713340759,-0.068152792751789,0.797833263874054,0.4814436435699463,-0.1002082824707031,0.7440876960754395,0.4834755063056946,-0.1164057254791259,0.7041700482368469,0.4895272850990295,-0.1233482211828231
2023-08-01 16:05:38.169026,71,284,0.6672722697257996,0.2358853369951248,-0.1118346750736236,0.6975662112236023,-0.3232421875,0.9326171875,0.14306640625,0.8880709409713745,0.7163598537445068,-7.899549814283091e-07,0.8090463876724243,0.6320134401321411,0.0025728710461407,0.754374623298645,0.5560505390167236,-0.0094902534037828,0.7064107060432434,0.50850510597229,-0.0305756516754627,0.6721109747886658,0.454051673412323,-0.0509726963937282,0.8496425747871399,0.4153540730476379,0.0207093507051467,0.7785099148750305,0.3782222867012024,-0.0212100222706794,0.7227003574371338,0.3879558742046356,-0.0611282773315906,0.6785548329353333,0.4125474691390991,-0.0858846232295036,0.8776279091835022,0.4213036298751831,-0.0037779191043227,0.7890345454216003,0.3693892061710357,-0.0456119515001773,0.7298852205276489,0.3999006152153015,-0.0819882601499557,0.6885645389556885,0.436906635761261,-0.1030700802803039,0.895937979221344,0.4477463662624359,-0.0331961177289485,0.8104948997497559,0.3965822458267212,-0.0733120217919349,0.7486978769302368,0.4256015121936798,-0.094752550125122,0.7049320936203003,0.461512416601181,-0.1025545820593833,0.9002482891082764,0.4965077936649322,-0.0628867596387863,0.8144592046737671,0.4765082895755768,-0.0956525057554245,0.7607789039611816,0.4762445092201233,-0.1110893562436103,0.71993488073349,0.478618174791336,-0.1167392507195472
2023-08-01 16:05:38.223909,72,285,0.6670547127723694,0.2385080456733703,-0.1113236546516418,0.6969642043113708,-0.29345703125,0.91943359375,0.13232421875,0.8899967074394226,0.7185249924659729,-7.868519560361165e-07,0.8123906254768372,0.6344035863876343,0.0014523672871291,0.7584747076034546,0.5580930113792419,-0.0116415526717901,0.7081100344657898,0.5093973875045776,-0.0335425809025764,0.6712414026260376,0.4527357816696167,-0.0549325346946716,0.8560796976089478,0.4149682223796844,0.0191559586673975,0.7854607105255127,0.3775101900100708,-0.0234039276838302,0.7277175188064575,0.3879032135009765,-0.0634536445140838,0.6840554475784302,0.4140920042991638,-0.0882079973816871,0.8827499747276306,0.4215914011001587,-0.0049950471147894,0.7942788600921631,0.368952214717865,-0.0475402362644672,0.7336670160293579,0.400269091129303,-0.0841812118887901,0.6929508447647095,0.4386268258094787,-0.105162039399147,0.8993258476257324,0.4489942491054535,-0.034188188612461,0.8134012222290039,0.3993841707706451,-0.0741698294878006,0.7502332329750061,0.426956295967102,-0.096418373286724,0.7062045335769653,0.4618406593799591,-0.1048133447766304,0.9016751646995544,0.4980756342411041,-0.0637823790311813,0.8164393901824951,0.4760550260543823,-0.0960940197110176,0.7629449367523193,0.4762418270111084,-0.1122734770178794,0.7223746180534363,0.4803813695907593,-0.1185494214296341
2023-08-01 16:05:38.290828,73,286,0.6669967174530029,0.2398575395345688,-0.111700065433979,0.6964961290359497,-0.2685546875,0.92041015625,0.15771484375,0.8950831294059753,0.7161179780960083,-7.754050557196024e-07,0.8161875605583191,0.6312529444694519,0.0017226277850568,0.7624467611312866,0.5573859214782715,-0.0113635687157511,0.7122135758399963,0.5098206996917725,-0.0334623530507087,0.6724659204483032,0.4573655724525451,-0.0552751496434211,0.8569840788841248,0.4165131449699402,0.0206092484295368,0.7897123098373413,0.3790948390960693,-0.0217511747032403,0.7339687943458557,0.3866264224052429,-0.0623482875525951,0.6904385089874268,0.4104856252670288,-0.087618388235569,0.8844656944274902,0.4219326972961426,-0.003336580004543,0.7987185120582581,0.3717026114463806,-0.0456681363284587,0.7407066226005554,0.4005460739135742,-0.0831688940525055,0.7002780437469482,0.4368508458137512,-0.1049862876534462,0.9033180475234984,0.4483901858329773,-0.0323957204818725,0.8195587396621704,0.4004369080066681,-0.0725132748484611,0.7571629285812378,0.4245415925979614,-0.0960342288017273,0.7119314670562744,0.4575444459915161,-0.105427585542202,0.908806562423706,0.4964666068553924,-0.061818927526474,0.825263500213623,0.4751251339912414,-0.0942108482122421,0.771852970123291,0.473958671092987,-0.1110440343618393,0.7299609780311584,0.4769445061683655,-0.1179834231734275
2023-08-01 16:05:38.357994,74,287,0.667227566242218,0.2418305426836013,-0.1112106889486312,0.6956704258918762,-0.37060546875,0.93115234375,0.13525390625,0.9067543148994446,0.7182337641716003,-7.740862315586128e-07,0.8346652984619141,0.6359989047050476,-0.0056197782978415,0.7829704880714417,0.559428870677948,-0.0203593391925096,0.7318637371063232,0.5146132111549377,-0.0415409579873085,0.6955512166023254,0.4656031429767608,-0.0614986009895801,0.8820395469665527,0.4168020784854889,0.0099378423765301,0.8123077750205994,0.3763905763626098,-0.0316998921334743,0.7549846172332764,0.3859920501708984,-0.0706982314586639,0.708946704864502,0.4091134071350097,-0.0949894487857818,0.9086840748786926,0.4224252700805664,-0.0087281242012977,0.8205031156539917,0.3686246573925018,-0.048670906573534,0.7602965831756592,0.3951468765735626,-0.0832919627428054,0.7163994312286377,0.4253434240818023,-0.1041431203484535,0.9252944588661194,0.449427843093872,-0.0322759225964546,0.8400774002075195,0.3973712921142578,-0.0710772424936294,0.777651846408844,0.4235516488552093,-0.0914457663893699,0.7308715581893921,0.4539707899093628,-0.0992844104766845,0.9262652397155762,0.4988043010234833,-0.056536816060543,0.8391000032424927,0.477198839187622,-0.0880318209528923,0.7863407135009766,0.4761717915534973,-0.1023953706026077,0.7451372146606445,0.4765487313270569,-0.1076454147696495
2023-08-01 16:05:38.419700,75,288,0.6662483215332031,0.2456534206867218,-0.1122518479824066,0.6951022148132324,-0.27001953125,0.9208984375,0.16162109375,0.9084341526031494,0.7171280980110168,-7.41478913823812e-07,0.8341189622879028,0.6354764103889465,-0.0040810606442391,0.7811374664306641,0.5562840700149536,-0.0169515460729599,0.7315207719802856,0.5051702260971069,-0.0366262979805469,0.6955891847610474,0.44833704829216,-0.0556389801204204,0.8786450028419495,0.4131589531898498,0.0147106302902102,0.8130396604537964,0.3760687112808227,-0.0244932230561971,0.7575148940086365,0.381500244140625,-0.0618563778698444,0.7145695686340332,0.4025404155254364,-0.0852844938635826,0.9074664115905762,0.4198890924453735,-0.0042102234438061,0.8230089545249939,0.3684931695461273,-0.0430345460772514,0.7644405961036682,0.3942192792892456,-0.0772147998213768,0.7229711413383484,0.4269915223121643,-0.0971759408712387,0.9258319139480592,0.448536217212677,-0.0281866528093814,0.8422869443893433,0.4008417725563049,-0.0667763203382492,0.7794309258460999,0.4231831729412079,-0.0887836292386055,0.7331231832504272,0.4525736272335052,-0.0974046811461448,0.928388237953186,0.4987390339374542,-0.0527022518217563,0.8421043753623962,0.477481484413147,-0.084511674940586,0.7891830801963806,0.4769344329833984,-0.1006384044885635,0.7475375533103943,0.4799371063709259,-0.1069932207465171
2023-08-01 16:05:38.474269,76,289,0.6653674244880676,0.2476108521223068,-0.1100121140480041,0.6956093907356262,-0.333984375,0.9365234375,0.13232421875,0.9077160954475404,0.7155057191848755,-7.620673727615213e-07,0.8336427807807922,0.6365278959274292,-0.0038781932089477,0.7816624641418457,0.5554999709129333,-0.0167385134845972,0.733424961566925,0.5039852261543274,-0.0366649031639099,0.6988967657089233,0.4457300901412964,-0.0555621311068534,0.8784617185592651,0.4145303666591644,0.0155859366059303,0.8158325552940369,0.3734816908836365,-0.0252487696707248,0.7598385214805603,0.3826068937778473,-0.0631934851408004,0.7172771692276001,0.4073712229728699,-0.0866857096552848,0.9083130359649658,0.421073168516159,-0.0039801010861992,0.8260615468025208,0.3662100434303283,-0.0445190854370594,0.7668881416320801,0.3932574391365051,-0.0785844624042511,0.7265307903289795,0.4268456101417541,-0.0979292392730712,0.9281309843063354,0.4488930106163025,-0.0289183855056762,0.8470166921615601,0.3981438875198364,-0.0686556547880172,0.7843459248542786,0.4209912419319153,-0.0895102024078369,0.7388393878936768,0.4505403041839599,-0.0969567373394966,0.9332109093666076,0.4980794787406921,-0.0544909723103046,0.8497532606124878,0.4760955274105072,-0.0874532088637352,0.7970028519630432,0.4747810661792755,-0.1033319681882858,0.7554746270179749,0.4762481451034546,-0.1091659739613533
2023-08-01 16:05:38.533739,77,290,0.6648813486099243,0.2510618567466736,-0.1116001531481742,0.6945834159851074,-0.32080078125,0.927734375,0.11376953125,0.9217489957809448,0.7176781892776489,-7.711441867286339e-07,0.8486328721046448,0.6379566788673401,-0.0049512116238474,0.7980954051017761,0.555172324180603,-0.0181997660547494,0.7473501563072205,0.5045206546783447,-0.0378165915608406,0.7087303996086121,0.4511839747428894,-0.0562660507857799,0.8972511291503906,0.4165920317173004,0.0133716855198144,0.8308132290840149,0.3712226152420044,-0.0267040375620126,0.7743403315544128,0.3786619901657104,-0.0640085116028785,0.7313241362571716,0.4030410349369049,-0.0867599844932556,0.9244237542152404,0.4230118989944458,-0.0046805352903902,0.8393707871437073,0.3638979196548462,-0.0431577898561954,0.7803993225097656,0.3904639482498169,-0.0763076692819595,0.7395687103271484,0.4240392446517944,-0.0953936278820037,0.9426213502883912,0.4505857825279236,-0.0277881268411874,0.8601858019828796,0.3946767449378967,-0.0659556463360786,0.7969807982444763,0.4181500375270843,-0.0861996635794639,0.7505003809928894,0.448319524526596,-0.0934482961893081,0.9456568360328674,0.499792218208313,-0.0514163188636302,0.8595201373100281,0.4751524627208709,-0.0825603008270263,0.8070681691169739,0.4740646481513977,-0.0970109105110168,0.7657296061515808,0.4756152629852295,-0.1020230278372764
