Timestamp,Index,Frame ID,w,x,y,z,ax,ay,az,x_0,y_0,z_0,x_1,y_1,z_1,x_2,y_2,z_2,x_3,y_3,z_3,x_4,y_4,z_4,x_5,y_5,z_5,x_6,y_6,z_6,x_7,y_7,z_7,x_8,y_8,z_8,x_9,y_9,z_9,x_10,y_10,z_10,x_11,y_11,z_11,x_12,y_12,z_12,x_13,y_13,z_13,x_14,y_14,z_14,x_15,y_15,z_15,x_16,y_16,z_16,x_17,y_17,z_17,x_18,y_18,z_18,x_19,y_19,z_19,x_20,y_20,z_20
2023-08-01 16:05:38.598779,0,291,0.6653447151184082,0.2539871037006378,-0.1136452481150627,0.6927421689033508,-0.3447265625,0.92578125,0.0732421875,0.922585129737854,0.706518828868866,-7.793662462063367e-07,0.8490892648696899,0.6342951059341431,-0.0082622077316045,0.7974602580070496,0.5523556470870972,-0.0229456722736358,0.7489079833030701,0.4986758232116699,-0.0433049649000167,0.7102522850036621,0.4450656473636627,-0.0616317093372345,0.8943983316421509,0.406497597694397,0.0072785974480211,0.8344261050224304,0.3524233698844909,-0.0338727943599224,0.7792706489562988,0.3720483183860779,-0.0698388516902923,0.7404086589813232,0.406398594379425,-0.0911492928862571,0.9243363738059998,0.4158623814582824,-0.0083915013819932,0.8417235016822815,0.3598759174346924,-0.0482007935643196,0.783137857913971,0.3924028277397156,-0.0798729360103607,0.7456617951393127,0.4277098774909973,-0.0975512787699699,0.9443424940109252,0.446231871843338,-0.0293163061141967,0.8628494739532471,0.3975380957126617,-0.0668196901679039,0.7997132539749146,0.4220755994319916,-0.0860481187701225,0.7538373470306396,0.4515895843505859,-0.0930142849683761,0.9497652649879456,0.4966728389263153,-0.0511394627392292,0.8682194948196411,0.475856214761734,-0.0809992030262947,0.816730797290802,0.4731643199920654,-0.0954643562436103,0.7758227586746216,0.4733817875385284,-0.1007351875305175
2023-08-01 16:05:38.661582,1,292,0.6655861139297485,0.2564709186553955,-0.1152634248137474,0.6913262605667114,-0.28466796875,0.9130859375,0.1181640625,0.927090346813202,0.7133593559265137,-8.137468512359192e-07,0.8537678718566895,0.6357936859130859,-0.00411341432482,0.8029016852378845,0.5556276440620422,-0.0175379049032926,0.7536575198173523,0.5042345523834229,-0.0381787978112697,0.7163659334182739,0.448886513710022,-0.057693026959896,0.9037895798683168,0.4130942225456238,0.0153257399797439,0.8383892178535461,0.3672945201396942,-0.0252666994929313,0.7824077606201172,0.3794101774692535,-0.0625561401247978,0.7407865524291992,0.4074452221393585,-0.0846036747097969,0.9315857887268066,0.4202674329280853,-0.0032892674207687,0.8445109128952026,0.3665304780006408,-0.0416254177689552,0.7850924730300903,0.3968793153762817,-0.0746048763394355,0.7454411387443542,0.4316968321800232,-0.0932159721851348,0.949589729309082,0.4473451375961303,-0.0272173527628183,0.8638337850570679,0.3962194323539734,-0.0641428455710411,0.7994042038917542,0.4207403659820556,-0.0844499990344047,0.7527948617935181,0.4523561596870422,-0.0918030962347984,0.9523702263832092,0.4950412809848785,-0.0518946200609207,0.8663222789764404,0.4716280996799469,-0.081511378288269,0.8135614991188049,0.4720838069915771,-0.095733992755413,0.7722451090812683,0.4776619374752044,-0.1004149690270423
2023-08-01 16:05:38.742884,2,293,0.66552734375,0.2560836374759674,-0.1147776991128921,0.6916072964668274,-0.291015625,0.91748046875,0.16162109375,0.9299742579460144,0.7077832221984863,-7.627413651789539e-07,0.8582019209861755,0.6363688707351685,-0.0080374525859951,0.8070183992385864,0.5543732643127441,-0.0221473146229982,0.7579594850540161,0.5036485195159912,-0.0421749204397201,0.7197913527488708,0.4507325291633606,-0.0605025254189968,0.90214604139328,0.4050996601581573,0.008815323933959,0.8380883932113647,0.3575896620750427,-0.0325660072267055,0.7850661873817444,0.3727787733078003,-0.0691553056240081,0.7469997406005859,0.4026670455932617,-0.0907297879457473,0.9320516586303712,0.4128667116165161,-0.0074915625154972,0.8474222421646118,0.3621402978897095,-0.0477982982993125,0.7896624803543091,0.3927398920059204,-0.0804179087281227,0.7516618967056274,0.4262787699699402,-0.0982477292418479,0.9524931907653807,0.4426023662090301,-0.0291803907603025,0.8697875142097473,0.3986047506332397,-0.0680392906069755,0.8059797286987305,0.421287328004837,-0.0890641808509826,0.759489119052887,0.4484844505786896,-0.0965260490775108,0.9582119584083556,0.4928170442581177,-0.051700085401535,0.8747797608375549,0.4742317199707031,-0.0829572454094886,0.8217295408248901,0.4732122719287872,-0.0984042659401893,0.7796679139137268,0.4755021333694458,-0.1037237271666526
2023-08-01 16:05:38.819421,3,294,0.6655737161636353,0.2552577555179596,-0.1135165765881538,0.6920759677886963,-0.326171875,0.93505859375,0.146484375,0.9412841796875,0.7182078957557678,-8.206999382309732e-07,0.8708639144897461,0.6431288123130798,-0.0056872018612921,0.8203038573265076,0.5591788291931152,-0.0173781998455524,0.7710605263710022,0.5090019702911377,-0.0353531613945961,0.7328740358352661,0.4577648341655731,-0.052365094423294,0.9146453142166138,0.4141980707645416,0.0137745579704642,0.8476011753082275,0.3700284361839294,-0.0257021971046924,0.7940144538879395,0.3840846419334411,-0.0619339160621166,0.7542455792427063,0.4122237861156463,-0.0832084715366363,0.9438647031784058,0.4207773208618164,-0.0029523693956434,0.8557522892951965,0.3669079542160034,-0.041719514876604,0.7974671125411987,0.3992189764976501,-0.0753514096140861,0.7581092119216919,0.4356001019477844,-0.0936009511351585,0.963831067085266,0.4474732875823974,-0.0246827006340026,0.878878116607666,0.3981241583824157,-0.0624899789690971,0.8135659098625183,0.4229183793067932,-0.0846548154950141,0.7659947872161865,0.4536104202270508,-0.0923948436975479,0.9684833288192748,0.4947777986526489,-0.0469137206673622,0.8808979392051697,0.4743080735206604,-0.0769833475351333,0.827300488948822,0.4749284386634826,-0.0919692292809486,0.7850173711776733,0.4786041975021362,-0.0967216566205024
2023-08-01 16:05:38.888187,4,295,0.6656511425971985,0.2551364004611969,-0.113562949001789,0.6920386552810669,-0.3212890625,0.927734375,0.14111328125,0.9335243701934814,0.7098960876464844,-7.780282089697721e-07,0.8661317229270935,0.6395500898361206,-0.0074583427049219,0.8169784545898438,0.555353045463562,-0.0206406991928815,0.7675442695617676,0.5040189027786255,-0.0396599732339382,0.7293727397918701,0.4514048993587494,-0.057153433561325,0.9153168201446532,0.412482738494873,0.0080429697409272,0.8528228402137756,0.3568776845932007,-0.0310458336025476,0.7981953620910645,0.3721583485603332,-0.0656475871801376,0.7611229419708252,0.4028924405574798,-0.0861672013998031,0.9445240497589112,0.4209348857402801,-0.0073425048030912,0.861021876335144,0.364226758480072,-0.045402143150568,0.8014209866523743,0.3941625356674194,-0.0773248374462127,0.7624459266662598,0.4265643358230591,-0.095516987144947,0.9642789959907532,0.4493923783302307,-0.0276782754808664,0.8781872391700745,0.4024205505847931,-0.064009740948677,0.8125843405723572,0.4266431927680969,-0.0848093032836914,0.7655396461486816,0.4550172686576843,-0.0931479856371879,0.9690529704093932,0.4969497919082641,-0.0486843548715114,0.8809125423431396,0.4746895432472229,-0.0773507505655288,0.8266798257827759,0.4742269515991211,-0.0922874957323074,0.7844924926757812,0.4782705008983612,-0.0981204286217689
2023-08-01 16:05:38.952147,5,296,0.6656708717346191,0.2550868093967438,-0.1136204227805137,0.6920285820960999,-0.3056640625,0.9208984375,0.12451171875,0.935401976108551,0.7147741913795471,-7.7963602507225e-07,0.8633632659912109,0.6389361023902893,-0.0071185557171702,0.8132658004760742,0.5585082769393921,-0.0220099426805973,0.7639148235321045,0.50800621509552,-0.0434600189328193,0.7276961207389832,0.4522560834884643,-0.0635229647159576,0.9103254079818726,0.4143238365650177,0.0104597071185708,0.8468459248542786,0.362227201461792,-0.0318392254412174,0.7930678725242615,0.3766189813613891,-0.0689233839511871,0.7550114393234253,0.4075690507888794,-0.0904973149299621,0.9400726556777954,0.4222952723503113,-0.0071866381913423,0.8553906083106995,0.3645226955413818,-0.0489610061049461,0.7962126731872559,0.3967923521995544,-0.0832867696881294,0.7591379880905151,0.4319067001342773,-0.10175072401762,0.9608747959136964,0.4499669969081878,-0.0302900820970535,0.8770278096199036,0.4001954793930053,-0.0704779028892517,0.8108721971511841,0.4243739247322082,-0.0933481380343437,0.7646272778511047,0.4539245069026947,-0.1015545949339866,0.9661228060722352,0.4968700706958771,-0.0540413782000541,0.8802817463874817,0.4738781452178955,-0.0853804126381874,0.8268442153930664,0.473599374294281,-0.1012017279863357,0.7861201167106628,0.4774267971515655,-0.1067095398902893
2023-08-01 16:05:39.019930,6,297,0.6657398343086243,0.2541558146476745,-0.1131612360477447,0.692379891872406,-0.2939453125,0.9208984375,0.11767578125,0.9346867799758912,0.7142320871353149,-7.807555562067137e-07,0.8646917343139648,0.6413978338241577,-0.0072665736079216,0.8153793811798096,0.5589773654937744,-0.0211131144315004,0.7652548551559448,0.510103702545166,-0.0409144051373004,0.7252711057662964,0.4595384001731872,-0.0594277940690517,0.911460280418396,0.4107978343963623,0.0084293261170387,0.8469967842102051,0.3611173033714294,-0.0323939844965934,0.7930618524551392,0.3778340816497803,-0.0685292705893516,0.7549439072608948,0.409631073474884,-0.0896438062191009,0.941158890724182,0.4189886450767517,-0.0078224642202258,0.8554902672767639,0.3665642738342285,-0.0470123551785945,0.7963533401489258,0.3978330492973327,-0.0800082683563232,0.756824254989624,0.4323015511035919,-0.0984196662902832,0.9609557390213012,0.4487955272197723,-0.0291389971971511,0.8744696974754333,0.4038663506507873,-0.0665645003318786,0.8089591860771179,0.4276981949806213,-0.0883022546768188,0.7611443996429443,0.4556449353694916,-0.0967554077506065,0.964596390724182,0.4984557032585144,-0.0510913655161857,0.8786610960960388,0.477642685174942,-0.0802018716931343,0.8262085318565369,0.4772006273269653,-0.0949625596404075,0.7849754095077515,0.4799690544605255,-0.1003125309944152
2023-08-01 16:05:39.081678,7,298,0.6659772396087646,0.2525969445705414,-0.1130006164312362,0.6927481889724731,-0.29736328125,0.91845703125,0.13720703125,0.9313538074493408,0.7166022062301636,-7.706333917667507e-07,0.8629934787750244,0.6406745910644531,-0.0068035121075809,0.8138368129730225,0.5579583644866943,-0.0207758583128452,0.7640750408172607,0.5064612627029419,-0.0409771054983139,0.7258151769638062,0.4527418911457062,-0.0600075647234916,0.9135506749153136,0.415185809135437,0.0102262822911143,0.8509816527366638,0.3661057353019714,-0.0310220308601856,0.7967419624328613,0.37700155377388,-0.0680122897028923,0.7556334733963013,0.4039765298366546,-0.0897019207477569,0.9425584673881532,0.4227606058120727,-0.006486733444035,0.8582773804664612,0.3660561442375183,-0.0464142598211765,0.7974837422370911,0.3947158753871918,-0.080282486975193,0.7555416226387024,0.4284029901027679,-0.0989511981606483,0.9618616104125975,0.4512758255004883,-0.0282847322523593,0.8763269186019897,0.4019342958927154,-0.0664475709199905,0.8098616600036621,0.4256694316864013,-0.0885007828474044,0.7608673572540283,0.4548445045948028,-0.0966114923357963,0.9646308422088624,0.4999598562717438,-0.05072957649827,0.8793748617172241,0.4782650768756866,-0.080498419702053,0.8266916871070862,0.478203535079956,-0.0955655202269554,0.7849045395851135,0.4821517765522003,-0.1007670015096664
2023-08-01 16:05:39.142808,8,299,0.6663591265678406,0.251097708940506,-0.1128387749195098,0.6929522752761841,-0.30126953125,0.9228515625,0.158203125,0.9312878251075744,0.7125636339187622,-7.69286032209493e-07,0.8619951605796814,0.642582356929779,-0.0084974924102425,0.8106376528739929,0.559512197971344,-0.0223794672638177,0.7607028484344482,0.5086504817008972,-0.0419984795153141,0.7237787246704102,0.4559001624584198,-0.0603594742715358,0.9056939482688904,0.4096204340457916,0.0071054650470614,0.8426772952079773,0.3581038117408752,-0.0341856777667999,0.789162278175354,0.3736269474029541,-0.0703579187393188,0.7508268356323242,0.4064210057258606,-0.0913827046751976,0.9363657832145692,0.4179957211017608,-0.0086777061223983,0.8526957631111145,0.3619207739830017,-0.0488740429282188,0.794643759727478,0.3944600224494934,-0.08181893825531,0.7570993304252625,0.4302460551261902,-0.0995972529053688,0.9571920037269592,0.4484295547008514,-0.0297061540186405,0.8727891445159912,0.4014008045196533,-0.0687083676457405,0.8076111078262329,0.4267132878303528,-0.0912418588995933,0.7610077261924744,0.4562055766582489,-0.099551998078823,0.9624067544937134,0.4983868896961212,-0.0513502806425094,0.8752748966217041,0.4769322574138641,-0.0823173373937606,0.8217297196388245,0.4772475957870483,-0.0984416157007217,0.7802103161811829,0.4812160134315491,-0.1042724773287773
2023-08-01 16:05:39.206722,9,300,0.6668739914894104,0.2492040991783142,-0.1111934855580329,0.6934064030647278,-0.328125,0.92333984375,0.115234375,0.9336495995521544,0.7168534994125366,-7.68339418755204e-07,0.8602966666221619,0.6410509347915649,-0.0028869686648249,0.811301052570343,0.5581983327865601,-0.0135434418916702,0.7603973150253296,0.5093769431114197,-0.0318544209003448,0.7210514545440674,0.4589712619781494,-0.0491573885083198,0.901558518409729,0.4182402491569519,0.0195096358656883,0.8446633815765381,0.3675404787063598,-0.0186665896326303,0.7914401292800903,0.3802016973495483,-0.0542306937277317,0.7508602142333984,0.4094035625457763,-0.0755301937460899,0.9304106831550598,0.4236498177051544,0.0006217000191099,0.8548241853713989,0.3657256960868835,-0.0365778543055057,0.7961840033531189,0.3924462795257568,-0.0703232213854789,0.7542579770088196,0.4245196282863617,-0.0894720554351806,0.9512493014335632,0.4492819905281067,-0.0235866419970989,0.8719992637634277,0.3994054496288299,-0.0593579374253749,0.8071024417877197,0.4217168092727661,-0.082024872303009,0.758205235004425,0.449350893497467,-0.091608852148056,0.9565206170082092,0.4949738681316376,-0.0483727119863033,0.870374858379364,0.472680389881134,-0.0763034000992775,0.815912127494812,0.4742721319198608,-0.0913241952657699,0.7727682590484619,0.4797031581401825,-0.0974594131112098
2023-08-01 16:05:39.265967,10,301,0.6672228574752808,0.2468698173761367,-0.1095914617180824,0.6941604614257812,-0.3291015625,0.92919921875,0.07763671875,0.925591230392456,0.7064088582992554,-7.612303534187959e-07,0.853968620300293,0.6329002976417542,-0.0065138475038111,0.8044033050537109,0.5541927218437195,-0.020841846242547,0.7560614347457886,0.5028983354568481,-0.0415227599442005,0.7188136577606201,0.4503123462200165,-0.0607793256640434,0.9027767777442932,0.4090778827667236,0.0096086133271455,0.842832624912262,0.3579260110855102,-0.031082596629858,0.7885956168174744,0.3722781538963318,-0.0675530657172203,0.7487689256668091,0.402704656124115,-0.0891728326678276,0.9320210218429564,0.417308360338211,-0.0073136123828589,0.8505764007568359,0.3631802797317505,-0.0470659174025058,0.7914450168609619,0.3933354914188385,-0.0801953077316284,0.7511100769042969,0.4268918335437774,-0.0988493859767913,0.951717734336853,0.4465023875236511,-0.029331374913454,0.8699842095375061,0.4002206921577453,-0.067304216325283,0.8059983253479004,0.424008160829544,-0.088747426867485,0.7582337260246277,0.4531732201576233,-0.0970364362001419,0.9564324617385864,0.4953241646289825,-0.0519688911736011,0.8720976114273071,0.4766513109207153,-0.0821181163191795,0.8188713192939758,0.4760882556438446,-0.0974692031741142,0.7763020396232605,0.479602187871933,-0.1032573357224464
2023-08-01 16:05:39.328863,11,302,0.667738139629364,0.2421598136425018,-0.1081783846020698,0.6955442428588867,-0.2841796875,0.916015625,0.07470703125,0.9213579893112184,0.7125862836837769,-7.819165830369457e-07,0.8497082591056824,0.6396021842956543,-0.0031099712941795,0.7995603680610657,0.5583881735801697,-0.0142188025638461,0.7527297735214233,0.508875846862793,-0.0322292894124984,0.7164044380187988,0.4586746096611023,-0.0496033281087875,0.8948066830635071,0.4181541204452514,0.0150533616542816,0.8350918889045715,0.3699398934841156,-0.0244060866534709,0.779710054397583,0.3778406083583832,-0.0604883171617984,0.7356656789779663,0.4022819697856903,-0.081720046699047,0.9245938062667848,0.4237725138664245,-0.003650281112641,0.8462122082710266,0.3645375370979309,-0.04200104996562,0.7851822376251221,0.3903405666351318,-0.075051337480545,0.7419589161872864,0.4237377941608429,-0.0931466817855835,0.9442228674888612,0.449839323759079,-0.0273817181587219,0.864657998085022,0.3971955776214599,-0.0645877569913864,0.7980961203575134,0.4198980927467346,-0.0868626907467842,0.7491198182106018,0.4488825500011444,-0.0953249707818031,0.9473243951797484,0.4957489967346191,-0.0514567196369171,0.8620604872703552,0.4717322289943695,-0.0808471888303756,0.8087488412857056,0.4728515744209289,-0.0956834852695465,0.7669405341148376,0.4774850010871887,-0.1010050997138023
2023-08-01 16:05:39.386782,12,303,0.6688469052314758,0.2364404499530792,-0.1049695238471031,0.6969369649887085,-0.29248046875,0.9208984375,0.0703125,0.9182311296463012,0.714431881904602,-7.498074978684599e-07,0.8465554118156433,0.6429499387741089,-0.002655932912603,0.79558265209198,0.5603709816932678,-0.0136885233223438,0.7468461990356445,0.5105305314064026,-0.0317707695066928,0.7082949876785278,0.4606700539588928,-0.0488455966114997,0.8913233876228333,0.4166730642318725,0.0156256332993507,0.8336678147315979,0.3652378618717193,-0.0225489661097526,0.7776696085929871,0.3733839988708496,-0.0575685650110244,0.7353289127349854,0.4007493853569031,-0.0788300260901451,0.9201035499572754,0.4222611784934997,-0.0034987712278962,0.8411694169044495,0.3621898293495178,-0.0402826480567455,0.7808880805969238,0.3884634375572204,-0.0715067312121391,0.7402132153511047,0.4220194816589355,-0.0892488062381744,0.9397830963134766,0.4492829442024231,-0.0278199464082717,0.8584589958190918,0.3971453309059143,-0.063955545425415,0.7926831841468811,0.421539694070816,-0.0845391973853111,0.7456625699996948,0.4516663551330566,-0.0927449986338615,0.9443104863166808,0.497088223695755,-0.0526395142078399,0.8593289852142334,0.4736354947090149,-0.0819044113159179,0.8050699830055237,0.4749035239219665,-0.0966706275939941,0.7632272839546204,0.480341374874115,-0.1025707572698593
2023-08-01 16:05:39.453298,13,304,0.6708507537841797,0.2271770536899566,-0.09886234998703,0.6989822387695312,-0.30615234375,0.96044921875,0.05419921875,0.9153592586517334,0.7146879434585571,-7.636031114088837e-07,0.8392297625541687,0.6372172236442566,-0.0014615691034123,0.7879201173782349,0.5546588897705078,-0.0128183290362358,0.7396792769432068,0.5053061842918396,-0.0322619043290615,0.7038562893867493,0.452454149723053,-0.0507027506828308,0.8853275775909424,0.4186027944087982,0.0176179111003875,0.8292685747146606,0.3617291748523712,-0.024410268291831,0.7724626064300537,0.3721045553684234,-0.0616566911339759,0.7291090488433838,0.4023152589797973,-0.083217978477478,0.9132327437400818,0.426592469215393,-0.0037106161471456,0.8386621475219727,0.3587931394577026,-0.046537809073925,0.7770232558250427,0.3879477381706238,-0.0810097754001617,0.7363733053207397,0.4253969490528106,-0.0987386479973793,0.93209707736969,0.4531717896461487,-0.0305337216705083,0.8557232618331909,0.3942120373249054,-0.0708671659231185,0.7899781465530396,0.4184788763523102,-0.0936425924301147,0.7443028092384338,0.4495800733566284,-0.1014594137668609,0.9365977644920348,0.4982601702213287,-0.0576789826154708,0.853019118309021,0.4693140387535095,-0.0887294188141822,0.7974981069564819,0.4705336987972259,-0.1038440912961959,0.7561219334602356,0.4774375557899475,-0.1089764684438705
2023-08-01 16:05:39.531718,14,305,0.6726865768432617,0.2150512188673019,-0.0925054028630256,0.701917827129364,-0.330078125,0.95068359375,0.10400390625,0.9107613563537598,0.7196394801139832,-7.637678436367423e-07,0.8350902795791626,0.6361032128334045,-0.0022925562225282,0.7830287218093872,0.5548728108406067,-0.0140248304232954,0.7340218424797058,0.5034700632095337,-0.0336317755281925,0.697562575340271,0.4499368369579315,-0.0520524531602859,0.88142991065979,0.4133275151252746,0.0210736040025949,0.822813868522644,0.3683882355690002,-0.019624775275588,0.7673258185386658,0.3744059801101684,-0.058209378272295,0.7217463850975037,0.3982505798339844,-0.0813314020633697,0.9082275032997132,0.4188536405563354,0.0013096248731017,0.8281776905059814,0.3668758571147918,-0.039424329996109,0.7704539895057678,0.3942742943763733,-0.0748893022537231,0.7288767695426941,0.4282324016094208,-0.0943201333284378,0.9265756607055664,0.444663941860199,-0.0239979401230812,0.8447480797767639,0.399552047252655,-0.0623750016093254,0.7813430428504944,0.4222524762153625,-0.0847181975841522,0.7336549758911133,0.4517856538295746,-0.0926145389676094,0.9306310415267944,0.4917201399803161,-0.0499837361276149,0.8475897312164307,0.468145340681076,-0.0793942064046859,0.7946930527687073,0.4665482640266418,-0.0942132323980331,0.7521554231643677,0.4702440798282623,-0.0992388501763343
2023-08-01 16:05:39.595805,15,306,0.674228847026825,0.2002627253532409,-0.0878399163484573,0.705403745174408,-0.30615234375,0.9423828125,0.1494140625,0.8679109215736389,0.7208847999572754,-7.255235345837718e-07,0.794049859046936,0.630728542804718,-0.0030325422994792,0.7426998615264893,0.5497558116912842,-0.0160919241607189,0.6917282938957214,0.4973351061344147,-0.0356625691056251,0.6564884781837463,0.4441606104373932,-0.0539391823112964,0.8503479361534119,0.4142994284629822,0.011871320195496,0.7780924439430237,0.3731378316879272,-0.0267448965460062,0.7211953401565552,0.382088840007782,-0.062469009310007,0.6792271137237549,0.4050396084785461,-0.0843488276004791,0.8748120665550232,0.4213986098766327,-0.0065073487348854,0.7824333310127258,0.3725062906742096,-0.0430151037871837,0.7244597673416138,0.3981310129165649,-0.0723157078027725,0.6848164796829224,0.4303599596023559,-0.0889936238527298,0.8892163634300232,0.4518982470035553,-0.0296418406069278,0.7973703742027283,0.4048581123352051,-0.0647384375333786,0.735688328742981,0.426811546087265,-0.0803831666707992,0.690060555934906,0.4540229141712188,-0.0848845019936561,0.8885382413864136,0.504044771194458,-0.0535791255533695,0.8004018664360046,0.4829168319702148,-0.0829462185502052,0.7471495866775513,0.4803522825241089,-0.0952323153614997,0.7050406336784363,0.4814848899841308,-0.0983589887619018
2023-08-01 16:05:39.655536,16,307,0.6759852170944214,0.1885688602924347,-0.0848601162433624,0.7073078751564026,-0.37841796875,0.90185546875,0.1337890625,0.860519289970398,0.7177966237068176,-7.283272225322435e-07,0.7831212282180786,0.6339719891548157,-0.00314049446024,0.7278277277946472,0.5508061647415161,-0.016234828159213,0.6770885586738586,0.4958377480506897,-0.0352838113903999,0.6413609385490417,0.4430151581764221,-0.0527235828340053,0.8343380093574524,0.4114415645599365,0.0093373171985149,0.7595934271812439,0.365793228149414,-0.0279414169490337,0.7031906247138977,0.3763028085231781,-0.0620018914341926,0.6640885472297668,0.4028258323669433,-0.0827038884162902,0.8594675064086914,0.4195724725723266,-0.0089686857536435,0.7646621465682983,0.3687478899955749,-0.0424567498266696,0.7054827809333801,0.3953324258327484,-0.0695747584104538,0.6676098704338074,0.4288118183612823,-0.0851851403713226,0.8738844394683838,0.450927734375,-0.0319048464298248,0.7838755249977112,0.4024367034435272,-0.0648714825510978,0.7206239700317383,0.4229589104652405,-0.0798506960272789,0.6766155362129211,0.4497444033622741,-0.0847265645861625,0.8724606037139893,0.5033544898033142,-0.0555967353284359,0.784234881401062,0.4832641780376434,-0.0839607268571853,0.7315090894699097,0.4842865169048309,-0.0956327766180038,0.6918484568595886,0.4895177185535431,-0.0987195968627929
2023-08-01 16:05:39.727718,17,308,0.6780967116355896,0.1725611090660095,-0.0826403200626373,0.7096323370933533,-0.35498046875,0.89111328125,0.16357421875,0.8052530884742737,0.7181311845779419,-7.495227691833861e-07,0.7209280729293823,0.6338473558425903,0.0026997379027307,0.665368914604187,0.5456283688545227,-0.0074067688547074,0.61493319272995,0.4947628974914551,-0.0236912071704864,0.5729749202728271,0.4515840113162994,-0.040275789797306,0.7784128189086914,0.3997658491134643,0.0066178091801702,0.6863267421722412,0.3633431494235992,-0.025496233254671,0.6242287158966064,0.3812229633331299,-0.0559559613466262,0.5801790356636047,0.4075462222099304,-0.075397677719593,0.8005967140197754,0.4103826284408569,-0.0137370293959975,0.6915189623832703,0.3605594635009765,-0.0420694202184677,0.6270614862442017,0.3885665535926819,-0.0655442923307418,0.5823484659194946,0.4216123223304748,-0.0801290944218635,0.8087775707244873,0.4475319385528564,-0.0371981188654899,0.705460786819458,0.3940751552581787,-0.0654755979776382,0.6391201019287109,0.411852478981018,-0.0797249972820282,0.590149998664856,0.4338247776031494,-0.0860770791769027,0.8001800179481506,0.5062932372093201,-0.0607139058411121,0.702826976776123,0.4876182079315185,-0.087973341345787,0.6443806290626526,0.4867394268512726,-0.1002924963831901,0.5984492897987366,0.4893856346607208,-0.1047435626387596
2023-08-01 16:05:39.803325,18,309,0.6792891621589661,0.1550622582435608,-0.0747069865465164,0.7134008407592773,-0.3642578125,0.91845703125,0.16162109375,0.774246096611023,0.7136985659599304,-7.844589049454953e-07,0.6852582097053528,0.6291313767433167,0.0027191280387341,0.6264221668243408,0.5500651001930237,-0.0110638681799173,0.571345329284668,0.506633996963501,-0.0315106250345706,0.5298733115196228,0.4655719995498657,-0.0520082004368305,0.741648256778717,0.3963642716407776,0.005829551257193,0.6443820595741272,0.3631658554077148,-0.0296497326344251,0.5800631046295166,0.3850264251232147,-0.0636422485113143,0.5378938913345337,0.4157176613807678,-0.0854770317673683,0.7630906701087952,0.4053795337677002,-0.0160886440426111,0.6474615335464478,0.3553770780563354,-0.0478024780750274,0.5804838538169861,0.3875284492969513,-0.0751927569508552,0.5369485020637512,0.4257015585899353,-0.0927911326289177,0.7717955112457275,0.4411851763725281,-0.0411329492926597,0.6642218232154846,0.3874183893203735,-0.0707846358418464,0.5938307642936707,0.4092389643192291,-0.0874725505709648,0.5438859462738037,0.4364681839942932,-0.0962352827191352,0.7644181251525879,0.4997460544109344,-0.0662139728665351,0.6638340353965759,0.4843702018260956,-0.0935883074998855,0.6039498448371887,0.4864557385444641,-0.1069110110402107,0.5578535795211792,0.4897134900093078,-0.112878531217575
2023-08-01 16:05:39.878181,19,310,0.6790285706520081,0.1463310569524765,-0.0758580788969993,0.7153691053390503,-0.3046875,0.86767578125,0.22802734375,0.7639440298080444,0.713890552520752,-8.17435420685797e-07,0.6708839535713196,0.6283754110336304,0.0054151690565049,0.6075641512870789,0.5459077954292297,-0.0073919724673032,0.552426815032959,0.4996076226234436,-0.0268891975283622,0.5107412338256836,0.4587109982967376,-0.0464419238269329,0.7248379588127136,0.3933008313179016,0.0052430485375225,0.6279091835021973,0.3614689707756042,-0.0313907414674758,0.561272919178009,0.3837596774101257,-0.0655991658568382,0.5167464017868042,0.4172656834125519,-0.0871842131018638,0.7434066534042358,0.4021730422973633,-0.0180247016251087,0.6262204647064209,0.351068377494812,-0.0501111894845962,0.5597483515739441,0.3873243927955627,-0.0765343979001045,0.5169010758399963,0.4274066388607025,-0.0928989574313163,0.7490234971046448,0.4374856352806091,-0.0439799092710018,0.6400052905082703,0.3829631209373474,-0.0740476176142692,0.5712503790855408,0.4092263281345367,-0.0886828154325485,0.5223023891448975,0.4361976683139801,-0.0957631766796112,0.7387653589248657,0.4958474636077881,-0.0695227831602096,0.6368270516395569,0.4811423718929291,-0.0964568257331848,0.5793163180351257,0.4890396296977997,-0.1070626750588417,0.5357891917228699,0.4951793253421783,-0.1108404695987701
2023-08-01 16:05:39.946185,20,311,0.6799421906471252,0.1360141932964325,-0.0720519945025444,0.716929018497467,-0.33642578125,0.8994140625,0.177734375,0.7218770980834961,0.7076506614685059,-7.578127565466275e-07,0.624574601650238,0.6219698786735535,0.0188718885183334,0.5681453943252563,0.5411216616630554,0.0125772878527641,0.5133388042449951,0.495791345834732,-0.0024022674188017,0.4683815240859985,0.4604748785495758,-0.0186461824923753,0.6833110451698303,0.3914380669593811,0.0136774256825447,0.5787635445594788,0.3553023338317871,-0.011147934012115,0.5133846998214722,0.3752806484699249,-0.0353690795600414,0.4707425534725189,0.4006606936454773,-0.0517675727605819,0.6984131932258606,0.3974036574363708,-0.0134386681020259,0.573908269405365,0.3408577740192413,-0.0343041568994522,0.510288417339325,0.3754984140396118,-0.051193218678236,0.4703348278999328,0.4155334234237671,-0.0626872554421424,0.6991227269172668,0.4311276376247406,-0.0414486452937126,0.5791659951210022,0.3765870332717895,-0.060765016824007,0.5132241249084473,0.4000572562217712,-0.0688605830073356,0.4669703841209411,0.4258967339992523,-0.0742109790444374,0.6827763915061951,0.4872595071792602,-0.0683232843875885,0.5797964334487915,0.4761313498020172,-0.0880359262228012,0.5201804041862488,0.4813620150089264,-0.0960733443498611,0.472608745098114,0.485073447227478,-0.0997544601559639
2023-08-01 16:05:40.000646,21,312,0.6804527044296265,0.1295415610074997,-0.0717243701219558,0.7176758646965027,-0.3447265625,0.89501953125,0.1708984375,0.7024244666099548,0.7114962339401245,-8.429228728346061e-07,0.6072899699211121,0.6197924017906189,0.0205800533294677,0.5512850880622864,0.5388467907905579,0.0138834370300173,0.4972321391105652,0.4935667216777801,-0.0024721366353332,0.4548759758472442,0.4560223221778869,-0.0200370866805315,0.6679174304008484,0.3850414752960205,0.0151123441755771,0.5619288682937622,0.3495413661003113,-0.0115621872246265,0.4968018531799316,0.37458536028862,-0.0373888649046421,0.4552361369132995,0.4065501391887665,-0.0542956516146659,0.6841908693313599,0.3917902708053589,-0.0133677562698721,0.5572547912597656,0.33902508020401,-0.0363835580646991,0.4914686977863312,0.3762521743774414,-0.0559524595737457,0.4486961960792541,0.4186197817325592,-0.0690911635756492,0.6861381530761719,0.4262085855007171,-0.0424940958619117,0.5659295916557312,0.3725806474685669,-0.0633942633867263,0.4988139271736145,0.3988041281700134,-0.0728382393717765,0.4502506554126739,0.4273216128349304,-0.0787936523556709,0.670157253742218,0.4840216636657715,-0.0702014043927192,0.565863847732544,0.4750364124774933,-0.0903263837099075,0.5068886876106262,0.4811230003833771,-0.0980803370475769,0.459391713142395,0.4856714606285095,-0.1014465764164924
2023-08-01 16:05:40.058878,22,313,0.6811960339546204,0.1207524761557579,-0.0705235600471496,0.7186217904090881,-0.28662109375,0.9296875,0.1943359375,0.6913396716117859,0.7074810266494751,-8.516385037182772e-07,0.5927133560180664,0.6169998645782471,0.0214190185070037,0.5344703793525696,0.5355050563812256,0.0152792837470769,0.4755918979644775,0.4913156926631927,-0.0006864219903945,0.4290860295295715,0.4559009075164795,-0.0184311550110578,0.6510874629020691,0.3832840025424957,0.0160603690892457,0.5419521927833557,0.3535401225090027,-0.00886189378798,0.4767661690711975,0.3820689022541046,-0.0333620831370353,0.4379222989082336,0.4146359860897064,-0.0499318018555641,0.66654372215271,0.3913846611976623,-0.0127357142046093,0.5374380946159363,0.3377002775669098,-0.0348263010382652,0.4712752401828766,0.375792384147644,-0.053591538220644,0.4302548766136169,0.4195377230644226,-0.066583015024662,0.6677988171577454,0.4279632568359375,-0.0421349667012691,0.5460821986198425,0.3734442293643951,-0.0634002536535263,0.4782328307628631,0.4002493321895599,-0.0740046575665474,0.4308185875415802,0.4297696352005005,-0.0809960961341857,0.6524949669837952,0.4866994619369507,-0.0698753893375396,0.5485311150550842,0.4750491380691528,-0.0913232788443565,0.488170325756073,0.4800907671451568,-0.1010361015796661,0.4400529265403747,0.4843785166740417,-0.1060524359345436
2023-08-01 16:05:40.125794,23,314,0.6825762987136841,0.1103921234607696,-0.0670337080955505,0.7193119525909424,-0.31298828125,0.90576171875,0.17236328125,0.6423343420028687,0.701236367225647,-7.692699455219554e-07,0.5448863506317139,0.6185790300369263,0.0244836173951625,0.4913237690925598,0.5338371396064758,0.0186716970056295,0.4346305131912231,0.4885265529155731,0.0023597909603267,0.3850514888763428,0.4582102596759796,-0.0166735164821147,0.598345160484314,0.376564085483551,0.0172731261700391,0.49139404296875,0.3345528244972229,-0.0073420125991106,0.4219146966934204,0.357342004776001,-0.0325155407190322,0.3755660653114319,0.387006938457489,-0.049355499446392,0.6101884245872498,0.3853578269481659,-0.0128616616129875,0.4845608472824096,0.3261353373527527,-0.0327910408377647,0.4145892262458801,0.3600674271583557,-0.0528776906430721,0.3678554594516754,0.3975312709808349,-0.067741535604,0.6082414388656616,0.4197975397109985,-0.0430877655744552,0.4882278442382812,0.3603616952896118,-0.0612454824149608,0.419648677110672,0.3871912956237793,-0.0724275857210159,0.3702271580696106,0.4166070222854614,-0.0806810185313224,0.588930606842041,0.4744730591773987,-0.0714707672595977,0.4858128428459167,0.4544614553451538,-0.0879366993904113,0.4285545349121094,0.460951417684555,-0.0952596291899681,0.3834331929683685,0.4686962366104126,-0.0995908379554748
2023-08-01 16:05:40.182767,24,315,0.683850109577179,0.1045814007520675,-0.064287930727005,0.7192209362983704,-0.33544921875,0.89404296875,0.162109375,0.622652530670166,0.6891902685165405,-8.010352985365898e-07,0.5265073776245117,0.6147845983505249,0.0255094859749078,0.4722253382205963,0.5347397327423096,0.0192553177475929,0.4174166619777679,0.4914264678955078,0.002628959249705,0.3675957024097442,0.4637267291545868,-0.017026038840413,0.5743764042854309,0.3715740740299225,0.0105124525725841,0.4623587131500244,0.3273769617080688,-0.0154394563287496,0.3931420445442199,0.3476732969284057,-0.0400924012064933,0.3525992631912231,0.3739913702011108,-0.0565798468887805,0.5859267711639404,0.3793178200721741,-0.0191709958016872,0.4540049731731415,0.3172313868999481,-0.0394633077085018,0.3866223692893982,0.3476011455059051,-0.0582779496908187,0.345408946275711,0.3854350447654724,-0.0732400119304657,0.5839367508888245,0.414366751909256,-0.0483000949025154,0.4581043422222137,0.3541579842567444,-0.066290907561779,0.3920764923095703,0.3850833773612976,-0.0760312005877494,0.347537636756897,0.4195906817913055,-0.0842815935611724,0.5658005475997925,0.4701839685440063,-0.0754240453243255,0.4618560075759887,0.4516259431838989,-0.0929348021745681,0.404267817735672,0.4589550197124481,-0.1015727147459983,0.3587581515312195,0.4662619233131408,-0.1073760613799095
2023-08-01 16:05:40.245595,25,316,0.6855397820472717,0.0956580117344856,-0.0592436268925666,0.7192877531051636,-0.349609375,0.91015625,0.1806640625,0.6141108274459839,0.6881327629089355,-7.88499562531797e-07,0.5173649787902832,0.6137357354164124,0.0208232998847961,0.4635138809680938,0.5349590182304382,0.01182163041085,0.4091191291809082,0.4923381507396698,-0.0067629343830049,0.3594264984130859,0.46530681848526,-0.0274442825466394,0.5638470649719238,0.3688143789768219,0.0069528687745332,0.4487555623054504,0.3272239565849304,-0.022766014561057,0.3806800246238708,0.3487316370010376,-0.0501832291483879,0.337886244058609,0.3789422512054443,-0.067603588104248,0.5741836428642273,0.3747399151325226,-0.0214543808251619,0.4373064935207367,0.3143630921840668,-0.0441722236573696,0.3702812492847442,0.3457390069961548,-0.0640824511647224,0.3271368145942688,0.3862364292144775,-0.0792010501027107,0.5722753405570984,0.4096547067165375,-0.0499568320810794,0.4419146180152893,0.3496031463146209,-0.0708222761750221,0.3746278285980224,0.3813970685005188,-0.0805302634835243,0.3284911513328552,0.4172335267066955,-0.087653748691082,0.5530971884727478,0.4670856297016144,-0.0769062116742134,0.4491363167762756,0.4493042826652527,-0.0963320434093475,0.3914964497089386,0.4551570415496826,-0.1047897338867187,0.3457578420639038,0.4610948860645294,-0.1097404211759567
2023-08-01 16:05:40.312972,26,317,0.686347246170044,0.0866558775305748,-0.0573699921369552,0.7198102474212646,-0.38671875,0.888671875,0.2236328125,0.6027928590774536,0.6838558316230774,-7.549780889348767e-07,0.5051636695861816,0.608588457107544,0.0189692750573158,0.4502319693565368,0.5296571254730225,0.0080953417345881,0.3957884907722473,0.4848158955574035,-0.011819084174931,0.3464930951595306,0.455496072769165,-0.0338290482759475,0.5561370253562927,0.3651031255722046,-0.0003287550352979,0.4399533569812774,0.31375652551651,-0.0332180187106132,0.3679462373256683,0.3316285908222198,-0.0610197782516479,0.3248363733291626,0.3614909648895263,-0.0782036706805229,0.5664108395576477,0.3717270791530609,-0.0287850871682167,0.4290435314178467,0.3023592829704284,-0.0552851893007755,0.3594958782196045,0.3322919011116028,-0.0755156055092811,0.3167719841003418,0.3730296492576599,-0.0902444347739219,0.5632184743881226,0.4078623950481415,-0.0572269074618816,0.4299908578395843,0.3420654535293579,-0.0819606706500053,0.3614566922187805,0.3778808116912842,-0.0922368764877319,0.3164782524108886,0.4165539443492889,-0.0992076843976974,0.5425971150398254,0.467657059431076,-0.0839225202798843,0.4350031018257141,0.4513683915138244,-0.1069472208619117,0.3770217299461365,0.4597266614437103,-0.116857960820198,0.3329306840896606,0.4663663804531097,-0.1224159598350524
2023-08-01 16:05:40.369278,27,318,0.6861659288406372,0.0838259607553482,-0.0598993301391601,0.7201122045516968,-0.29541015625,0.890625,0.216796875,0.5888504981994629,0.6813356876373291,-8.263465360869304e-07,0.4908272624015808,0.6034683585166931,0.0221149306744337,0.4368522465229034,0.5241677165031433,0.0131651842966675,0.3831212222576141,0.4781721830368042,-0.0054336106404662,0.3337579369544983,0.4485974311828613,-0.0268359556794166,0.5470921397209167,0.3610784411430359,0.0017586649628356,0.4326245188713074,0.3050586283206939,-0.0284966807812452,0.3622108399868011,0.3263699412345886,-0.0540888272225856,0.3194367289543152,0.358699083328247,-0.0696555897593498,0.5572426319122314,0.3723712265491485,-0.0261597372591495,0.4196594357490539,0.3072894811630249,-0.05167992785573,0.3488785326480865,0.3437186777591705,-0.0713884383440017,0.305608332157135,0.3883498907089233,-0.0855100825428962,0.5523282885551453,0.4119655787944793,-0.0534971170127391,0.4184361100196838,0.3518590927124023,-0.0772999227046966,0.347515195608139,0.3881322145462036,-0.0886186808347702,0.3012255430221557,0.427171528339386,-0.0960616394877433,0.5300530195236206,0.4718566238880157,-0.0785897299647331,0.4233214855194092,0.4561553299427032,-0.0997952446341514,0.3640400767326355,0.4656957387924194,-0.1095860823988914,0.3192462921142578,0.4744910895824432,-0.1151058450341224
2023-08-01 16:05:40.431762,28,319,0.6868143677711487,0.0782835111021995,-0.0581587590277195,0.7202606201171875,-0.359375,0.92626953125,0.19873046875,0.5469426512718201,0.6751877069473267,-7.937434816085442e-07,0.4425567388534546,0.5987235307693481,0.0189817380160093,0.3851301372051239,0.5255141258239746,0.0077218916267156,0.3256289660930633,0.4835506677627563,-0.0128746358677744,0.2729923725128174,0.4581904113292694,-0.0352497622370719,0.5061519742012024,0.3610763251781463,-0.0003802912542596,0.392232596874237,0.3071889281272888,-0.0291725546121597,0.3252915441989898,0.3461411893367767,-0.0529628135263919,0.2897944450378418,0.3917517066001892,-0.0687046200037002,0.5140451192855835,0.3723241686820984,-0.0282680485397577,0.3769769966602325,0.3088637590408325,-0.0543994978070259,0.3068304359912872,0.3543869256973266,-0.073663130402565,0.2660472989082336,0.403549313545227,-0.088431991636753,0.5049239993095398,0.410342812538147,-0.0561485365033149,0.3722377717494964,0.3502165377140045,-0.0788133293390274,0.3022928237915039,0.3911588788032532,-0.0896970778703689,0.2572866678237915,0.4312664270401001,-0.0984789207577705,0.479238361120224,0.4675886631011963,-0.0823835730552673,0.3738428950309753,0.4504247307777405,-0.1048737913370132,0.3145817816257477,0.4609502255916595,-0.1168511062860488,0.2702819108963012,0.4698844850063324,-0.1248234063386917
2023-08-01 16:05:40.498365,29,320,0.6870954036712646,0.0760641619563102,-0.0595043674111366,0.7201204895973206,-0.3232421875,0.9072265625,0.20849609375,0.5429279804229736,0.6728194355964661,-8.691489483680925e-07,0.4423615336418152,0.5963403582572937,0.0232315361499786,0.3854621052742004,0.5253809094429016,0.0144590884447097,0.3292683362960815,0.4835470616817474,-0.0035163420252501,0.2817178964614868,0.4530893564224243,-0.0238305665552616,0.5093201994895935,0.3579229116439819,-0.0023273492697626,0.3892803788185119,0.3128127455711365,-0.0281080547720193,0.3217320144176483,0.3485504686832428,-0.0495624803006649,0.2853604853153229,0.3937275409698486,-0.0635781437158584,0.5145846009254456,0.370055615901947,-0.0298927128314971,0.3742426633834839,0.3125225901603699,-0.0511416792869567,0.3062697350978851,0.354713499546051,-0.0675025656819343,0.267520546913147,0.4065732359886169,-0.0811796262860298,0.5028449892997742,0.4104269444942474,-0.056145753711462,0.3683055341243744,0.3568156659603119,-0.0763669312000274,0.3003801703453064,0.3939633071422577,-0.0859730094671249,0.2573465406894684,0.435379296541214,-0.0943750217556953,0.4736250042915344,0.470217615365982,-0.0800033435225486,0.3682086765766144,0.4527831375598907,-0.1015945747494697,0.3102220296859741,0.4628658592700958,-0.111951969563961,0.267388105392456,0.4732794761657715,-0.1187357604503631
2023-08-01 16:05:40.566992,30,321,0.6875029802322388,0.070888765156269,-0.0592246986925601,0.7202824950218201,-0.298828125,0.9072265625,0.1708984375,0.537824273109436,0.6704065203666687,-9.065626613846688e-07,0.4343502521514892,0.5946599841117859,0.0250392518937587,0.3781856000423431,0.5237346887588501,0.0184477977454662,0.3227143585681915,0.481990247964859,0.0018525321502238,0.2746677994728088,0.4555919170379638,-0.0182570852339267,0.4974535405635834,0.3649400174617767,0.0049445033073425,0.3756762146949768,0.3301262855529785,-0.0200069956481456,0.3077588081359863,0.3668179512023926,-0.0431475974619388,0.2705891728401184,0.4100445508956909,-0.058726992458105,0.5027554631233215,0.373982310295105,-0.0237960815429687,0.360937237739563,0.319454550743103,-0.0451510585844516,0.2925823330879211,0.3657096028327942,-0.0639446228742599,0.2538537383079529,0.4191689789295196,-0.0790049731731414,0.4926187992095947,0.4120494723320007,-0.0513772815465927,0.3571229577064514,0.3566860556602478,-0.0713899433612823,0.2894812226295471,0.3982186913490295,-0.0827330499887466,0.2484539002180099,0.4414070844650268,-0.0921064019203186,0.4663684368133545,0.4707297086715698,-0.0765137299895286,0.3597745299339294,0.4533946514129638,-0.0981819406151771,0.30164834856987,0.4642938375473022,-0.1095554754137992,0.2598965167999267,0.4748826026916504,-0.1170963943004608
2023-08-01 16:05:40.629876,31,322,0.6884163022041321,0.0679716691374778,-0.0585270449519157,0.7197481393814087,-0.3349609375,0.91259765625,0.15966796875,0.5112632513046265,0.669979989528656,-8.777411721894168e-07,0.403581291437149,0.6010867357254028,0.0291755851358175,0.3496702909469604,0.5296360850334167,0.025631321594119,0.2920008301734924,0.4909168183803558,0.0118955606594681,0.242682084441185,0.466901034116745,-0.0049686422571539,0.4656703174114227,0.3636365234851837,0.0078618805855512,0.3421241641044616,0.3287473618984222,-0.0085595492273569,0.2749550342559814,0.3732972145080566,-0.0242264568805694,0.2397651821374893,0.4183038175106048,-0.0357949435710907,0.4724486172199249,0.3682235181331634,-0.0206046998500823,0.3284856975078583,0.3167478442192077,-0.0348088033497333,0.2605418562889099,0.3652843832969665,-0.0466299094259738,0.2235785126686096,0.4185337424278259,-0.0578101798892021,0.4620570540428161,0.4049688875675201,-0.0470139868557453,0.3251898884773254,0.3471155762672424,-0.0600699633359909,0.2597881257534027,0.3888238668441772,-0.0651616603136062,0.2210565060377121,0.4315758347511291,-0.0718247443437576,0.4334030151367187,0.4627363681793213,-0.0708338841795921,0.3234935104846954,0.4492126107215881,-0.0893693193793296,0.2632246017456054,0.4630682170391083,-0.0980531945824623,0.2202915698289871,0.4753985404968261,-0.1040267869830131
2023-08-01 16:05:40.693791,32,323,0.6898514032363892,0.0653134807944297,-0.0583033263683319,0.7186375856399536,-0.30712890625,0.90576171875,0.2744140625,0.504818320274353,0.6705866456031799,-9.269164706893208e-07,0.4014036357402801,0.5959845781326294,0.0325433500111103,0.3513427376747131,0.5258545875549316,0.0291107147932052,0.2950228154659271,0.4885936975479126,0.0146616417914628,0.2441845536231994,0.4664454460144043,-0.0038164791185408,0.4609687328338623,0.360465407371521,0.0103914598003029,0.3346366882324219,0.3375926315784454,-0.0089377043768763,0.2678154706954956,0.3792724609375,-0.0281115863472223,0.232264295220375,0.4219696819782257,-0.0416958592832088,0.4660930335521698,0.3659186661243438,-0.0206649843603372,0.321744441986084,0.3200815916061401,-0.0362237803637981,0.2572079598903656,0.3660915493965149,-0.0513637065887451,0.2210972756147384,0.4176192283630371,-0.0653918460011482,0.4553403258323669,0.4041509628295898,-0.0492939949035644,0.3204259872436523,0.3497376441955566,-0.0648299977183342,0.2566979527473449,0.391635000705719,-0.0725789368152618,0.2172469347715377,0.4342369735240936,-0.0808931961655616,0.4268770217895508,0.4644302725791931,-0.0746893212199211,0.3179027438163757,0.4490923285484314,-0.0930269435048103,0.2612340450286865,0.4642759561538696,-0.1007731631398201,0.2202945202589035,0.479034274816513,-0.1065014079213142
2023-08-01 16:05:40.764406,33,324,0.6903864145278931,0.0622852109372615,-0.0578180104494094,0.718431830406189,-0.3623046875,0.9208984375,0.22314453125,0.4989249110221863,0.6696752309799194,-9.424120435141958e-07,0.3984413146972656,0.5980258584022522,0.0292391534894704,0.3472851812839508,0.5263049602508545,0.0254787988960742,0.2907853722572326,0.4886832535266876,0.0116136595606803,0.2391841411590576,0.4662227034568786,-0.0062664207071065,0.4549160599708557,0.3589016199111938,0.0076902285218238,0.3295375108718872,0.3408372402191162,-0.011981513351202,0.263279378414154,0.3841197192668915,-0.0317231342196464,0.2278452515602111,0.4285300374031067,-0.0458636656403541,0.4602288901805877,0.3652631640434265,-0.021433487534523,0.317248523235321,0.3239288926124573,-0.0377564691007137,0.2526310682296753,0.3701930940151214,-0.0539954602718353,0.2148116827011108,0.4203475713729858,-0.0687592923641204,0.4496596157550812,0.4040035307407379,-0.048346173018217,0.3161118626594543,0.3488413691520691,-0.0659433081746101,0.2508203983306885,0.3892717063426971,-0.0760487020015716,0.2087054401636123,0.4307795763015747,-0.0855245441198349,0.421628475189209,0.4648670852184295,-0.0720666199922561,0.3117377758026123,0.4505169093608856,-0.093804121017456,0.2541108131408691,0.4636307060718536,-0.1044712588191032,0.2114731520414352,0.4759602844715118,-0.1117369681596756
2023-08-01 16:05:40.825838,34,325,0.6901275515556335,0.062571533024311,-0.0611918494105339,0.7183762192726135,-0.337890625,0.8818359375,0.19775390625,0.4850396513938904,0.6721680760383606,-9.314822477790584e-07,0.3860228657722473,0.6017840504646301,0.0306854173541069,0.3352726399898529,0.5279133915901184,0.0305741932243108,0.277757465839386,0.4891280233860016,0.020988292992115,0.2256083190441131,0.4752278923988342,0.0074377618730068,0.4420534372329712,0.3649064898490906,0.0120271779596805,0.3104184567928314,0.3464628159999847,-0.0013467399403452,0.2428339421749115,0.390785813331604,-0.0170452333986759,0.2073581516742706,0.4331921637058258,-0.0289273038506507,0.4437804520130157,0.3673671185970306,-0.0144731979817152,0.2993981838226318,0.3267721533775329,-0.0244980677962303,0.2342950701713562,0.3752934634685516,-0.0373471267521381,0.1958445906639099,0.4254587590694427,-0.0498294569551944,0.4300559759140014,0.4017567038536072,-0.0381345450878143,0.2945186793804168,0.3522698581218719,-0.0490580648183822,0.2302659749984741,0.395737886428833,-0.056944940239191,0.1889772117137909,0.4367004036903381,-0.0657576322555542,0.3981334567070007,0.4601240158081054,-0.0586654767394065,0.2880059480667114,0.4518886804580688,-0.0745441317558288,0.23074571788311,0.4682382643222809,-0.0827927067875862,0.1886611878871917,0.4802039861679077,-0.0889674127101898
2023-08-01 16:05:40.889173,35,326,0.6900665163993835,0.0622903332114219,-0.0608935318887233,0.7184845805168152,-0.34912109375,0.89453125,0.19921875,0.4802131354808807,0.6732701659202576,-9.351245466859836e-07,0.3798836767673492,0.600848376750946,0.0330412872135639,0.3308566510677337,0.5302736759185791,0.0307241007685661,0.2736221849918365,0.4919449388980865,0.0177717488259077,0.2203294187784195,0.471897542476654,0.000595879915636,0.4353808760643005,0.3691958785057068,0.0133427567780017,0.3072866201400757,0.3490249514579773,-0.0034358368720859,0.2400238662958145,0.3932037055492401,-0.0218315832316875,0.2051581889390945,0.4369107186794281,-0.0348731316626071,0.4385316371917724,0.3714648783206939,-0.015851167961955,0.2944082915782928,0.3255441188812256,-0.0276609733700752,0.2293843030929565,0.3738267123699188,-0.0409942902624607,0.1933296173810959,0.4256283640861511,-0.0538379736244678,0.4264220595359802,0.4066360890865326,-0.0423809811472892,0.2917682230472564,0.3513334095478058,-0.0539993792772293,0.2279856950044632,0.3940187096595764,-0.0613492541015148,0.1887071132659912,0.4364744126796722,-0.0700758174061775,0.3969643414020538,0.4649243950843811,-0.065640777349472,0.2848254740238189,0.4551296830177307,-0.0813367590308189,0.226926177740097,0.4708220362663269,-0.0890239849686622,0.1853786259889602,0.4836825728416443,-0.0951122865080833
2023-08-01 16:05:40.948033,36,327,0.6893443465232849,0.0609788037836551,-0.061773594468832,0.719214916229248,-0.3388671875,0.87744140625,0.20947265625,0.4774354100227356,0.6708996295928955,-9.49010598105815e-07,0.3777558803558349,0.5982919931411743,0.0359893180429935,0.3274591565132141,0.5273808240890503,0.0351294949650764,0.2706704437732696,0.4909946322441101,0.0229040011763572,0.2176804691553115,0.4719155728816986,0.0059562153182923,0.431423157453537,0.3655548989772796,0.0174333285540342,0.3038908243179321,0.3516955971717834,0.0013848828384652,0.2361220419406891,0.3952509760856628,-0.0178521741181612,0.1981165409088134,0.436208963394165,-0.031804509460926,0.4357004165649414,0.3688715100288391,-0.0132011007517576,0.2929179966449737,0.3285532295703888,-0.0246709175407886,0.2267784029245376,0.3756572008132934,-0.0400854051113128,0.1881690323352813,0.4245824515819549,-0.0550124645233154,0.4243432581424713,0.4056106209754944,-0.0408640056848526,0.2921184301376343,0.349920779466629,-0.05273412540555,0.2266138195991516,0.3920847475528717,-0.0614606365561485,0.184806227684021,0.433910608291626,-0.0713415741920471,0.3950631618499756,0.465170681476593,-0.0648651421070098,0.2836707234382629,0.4566109478473663,-0.0802089050412178,0.2260209769010543,0.4718239307403564,-0.0875785797834396,0.1847746670246124,0.4838458299636841,-0.0937032029032707
2023-08-01 16:05:41.009863,37,328,0.6894091367721558,0.0603400543332099,-0.0621386654675006,0.7191751599311829,-0.31884765625,0.9169921875,0.18115234375,0.4753287136554718,0.6655575633049011,-8.75581577020057e-07,0.3726800978183746,0.5947055220603943,0.0252780076116323,0.3212076425552368,0.5256451964378357,0.019496202468872,0.2637542486190796,0.4899732172489166,0.0049110273830592,0.211493045091629,0.4691784977912903,-0.0136594986543059,0.4239140152931213,0.3661074638366699,0.0033958116546273,0.2965864241123199,0.350280225276947,-0.0147782731801271,0.231105163693428,0.3954783380031585,-0.0335518196225166,0.1958707869052887,0.4377054870128631,-0.0468960665166378,0.4300897717475891,0.3677974939346313,-0.0220705345273017,0.287658542394638,0.3231958448886871,-0.0373615883290767,0.224202811717987,0.3726055026054382,-0.0526247173547744,0.1878995299339294,0.4244554936885834,-0.0661728605628013,0.4202532470226288,0.403216153383255,-0.0448366850614547,0.2891413867473602,0.3437105715274811,-0.0596742890775203,0.2259872108697891,0.3866366446018219,-0.0681208670139312,0.1861438006162643,0.430345207452774,-0.0765899568796157,0.3921331763267517,0.4613464772701263,-0.0645701736211776,0.2811101078987121,0.4508318603038788,-0.0829188004136085,0.2248974591493606,0.4652831554412842,-0.0913424417376518,0.18504099547863,0.4773530662059784,-0.0971901640295982
2023-08-01 16:05:41.077842,38,329,0.6897209286689758,0.06045538559556,-0.062121856957674,0.7188680171966553,-0.337890625,0.90673828125,0.21240234375,0.4748440980911255,0.6662617325782776,-9.19487490591564e-07,0.3733746409416199,0.5970005989074707,0.0322325490415096,0.3253053426742553,0.5252994894981384,0.0305514074862003,0.2702550888061523,0.4863670170307159,0.0185530968010425,0.2184790968894958,0.468540757894516,0.0026563056744635,0.4283404052257538,0.363442063331604,0.0129546197131276,0.302243024110794,0.3470334112644195,-0.0037193316966295,0.235463410615921,0.3903698623180389,-0.0220362748950719,0.1981982141733169,0.4323539137840271,-0.0351068004965782,0.4315841197967529,0.365159660577774,-0.0154091510921716,0.2892022728919983,0.3232931494712829,-0.0280229244381189,0.2253873944282531,0.3698417544364929,-0.0413760058581829,0.1888329535722732,0.4201858341693878,-0.0542293339967727,0.4195641577243805,0.4003065824508667,-0.0411855280399322,0.2847839593887329,0.3468138575553894,-0.0544488653540611,0.2220938056707382,0.3898107409477234,-0.0615243203938007,0.1831449568271637,0.4329169988632202,-0.0695049166679382,0.3898588120937347,0.4591060280799866,-0.0636474713683128,0.2790545523166656,0.4474095404148102,-0.0791438147425651,0.2226001173257827,0.4634579122066498,-0.0855541303753852,0.1827988773584365,0.4770842790603637,-0.0907275676727294
2023-08-01 16:05:41.135874,39,330,0.6893394589424133,0.0607044994831085,-0.0633534118533134,0.7191052436828613,-0.3154296875,0.8984375,0.2373046875,0.4749749600887298,0.664127767086029,-9.193091159431788e-07,0.3720615208148956,0.5926632285118103,0.0343821011483669,0.3222151696681976,0.5233315825462341,0.0319763757288455,0.2649595141410827,0.4866451025009155,0.0189265757799148,0.212148368358612,0.4676810503005981,0.0014045499265193,0.4251922070980072,0.3632155060768127,0.0112683856859803,0.2990400195121765,0.346872329711914,-0.0039800289086997,0.2327464073896408,0.3907773494720459,-0.0205478649586439,0.1962638348340988,0.432324469089508,-0.032720498740673,0.4304439425468445,0.3646630644798279,-0.0183444507420063,0.2878514230251312,0.3233814835548401,-0.0293859951198101,0.223577082157135,0.3713945746421814,-0.0416087582707405,0.1869633793830871,0.4208556115627289,-0.054254725575447,0.4202394783496856,0.4009713530540466,-0.0447352677583694,0.2871349453926086,0.3453165292739868,-0.055907666683197,0.2228078246116638,0.3878679275512695,-0.061893705278635,0.1822444051504135,0.4298930168151855,-0.0701146200299263,0.3915700316429138,0.4609133601188659,-0.0675689801573753,0.2803589105606079,0.4518618881702423,-0.0833093598484993,0.2229195088148117,0.4660162925720215,-0.0902091190218925,0.1818956732749939,0.4764881730079651,-0.0959171056747436
2023-08-01 16:05:41.197101,40,331,0.6895039081573486,0.0616207420825958,-0.0631564930081367,0.7188870310783386,-0.35400390625,0.9189453125,0.20654296875,0.4734513163566589,0.6631795763969421,-9.241848601959646e-07,0.3722160160541534,0.5929901003837585,0.0323354676365852,0.3225909471511841,0.5230169892311096,0.0288947690278291,0.265047013759613,0.4849039316177368,0.0151952980086207,0.2111744880676269,0.4657663702964782,-0.0026919920928776,0.4245412945747375,0.3626259565353393,0.0095849018543958,0.2982618808746338,0.347938597202301,-0.006157474592328,0.2324291616678238,0.3926701247692108,-0.0231921691447496,0.196016788482666,0.4344235956668854,-0.0359126701951026,0.4297632575035095,0.363891988992691,-0.019666314125061,0.2858606278896332,0.3231832385063171,-0.0314772985875606,0.2227943688631057,0.37326380610466,-0.0440233387053012,0.1869673430919647,0.4253456890583038,-0.0568156316876411,0.4198437929153442,0.3991774320602417,-0.0459436476230621,0.285072386264801,0.3464413583278656,-0.0577798895537853,0.2219380587339401,0.3909967839717865,-0.0642496347427368,0.1822379380464553,0.4345206618309021,-0.0728142112493515,0.391951322555542,0.4582597613334656,-0.0688661783933639,0.2811071574687958,0.4511629641056061,-0.0847336500883102,0.2237576693296432,0.4672989249229431,-0.0917192697525024,0.1822825372219085,0.4796705842018127,-0.0976980924606323
2023-08-01 16:05:41.255075,41,332,0.6893967986106873,0.0633411034941673,-0.0638806819915771,0.7187761664390564,-0.36279296875,0.900390625,0.212890625,0.4733201265335083,0.6602317094802856,-9.26452059957228e-07,0.3741944432258606,0.5926282405853271,0.0332523211836814,0.3253005146980285,0.5232807993888855,0.0303029343485832,0.2680635750293731,0.4860956370830536,0.0170698966830968,0.2136648148298263,0.4693442285060882,-0.0008599784923717,0.4252402782440185,0.3635082244873047,0.0095856012776494,0.3001541495323181,0.3476025462150574,-0.006717943586409,0.2332029938697815,0.391629695892334,-0.0246235039085149,0.1957374662160873,0.4336445331573486,-0.0377273708581924,0.4298811554908752,0.3648988604545593,-0.0196476988494396,0.2881806790828705,0.3217875361442566,-0.0318500846624374,0.2245587110519409,0.3720332980155945,-0.0450747497379779,0.188332200050354,0.4245017766952514,-0.0580504573881626,0.41911381483078,0.4004364311695099,-0.0456277467310428,0.287820041179657,0.3419384956359863,-0.0579381138086319,0.2249224781990051,0.3869408667087555,-0.0645782649517059,0.1855360567569732,0.4316852688789367,-0.0728430524468422,0.3896323144435882,0.4592935442924499,-0.0680009573698043,0.2796528935432434,0.4501551389694214,-0.0840444192290306,0.2224572300910949,0.4659678339958191,-0.0907382667064666,0.1816934645175933,0.477885365486145,-0.0962218642234802
2023-08-01 16:05:41.317237,42,333,0.6886823773384094,0.0655852034687995,-0.0652152821421623,0.7191397547721863,-0.3291015625,0.8896484375,0.24365234375,0.4765219688415527,0.6629804372787476,-9.203958484249596e-07,0.3753981590270996,0.5957821607589722,0.0323670767247676,0.3267594873905182,0.5252155065536499,0.0300148762762546,0.270390123128891,0.4876290559768677,0.0176400784403085,0.2172220796346664,0.4704125821590423,0.0009027624037116,0.4270097017288208,0.3623846471309662,0.0091597540304064,0.301112413406372,0.3485367596149444,-0.0077340397983789,0.2349366247653961,0.3924978375434875,-0.025445356965065,0.1984339207410812,0.4342638850212097,-0.0380636975169181,0.4316292107105255,0.3633928894996643,-0.0195021163672208,0.2891752123832702,0.3216580152511596,-0.0324228219687938,0.2252047657966613,0.3692184090614319,-0.044961854815483,0.1888619363307953,0.4206225872039795,-0.0569861717522144,0.4214317500591278,0.3998721241950989,-0.0451757162809371,0.288211852312088,0.3470467627048492,-0.0583956465125083,0.2244555205106735,0.3900715708732605,-0.0648944824934005,0.1845819652080536,0.4326670169830322,-0.0724958926439285,0.3931179940700531,0.4601774513721466,-0.0673614144325256,0.2827351093292236,0.4524594843387604,-0.0833265408873558,0.225272536277771,0.4694462418556213,-0.0897766426205635,0.1840355545282364,0.4834357500076294,-0.0948064178228378
2023-08-01 16:05:41.378591,43,334,0.687738299369812,0.0684489533305168,-0.0665655136108398,0.7196525931358337,-0.3486328125,0.88427734375,0.2333984375,0.476749837398529,0.6623224020004272,-9.160727927337576e-07,0.3780251145362854,0.5930633544921875,0.0296496488153934,0.32703498005867,0.5227059125900269,0.0258803348988294,0.268648087978363,0.4839822649955749,0.0127942161634564,0.2149217128753662,0.4653711915016174,-0.0042426660656929,0.432659775018692,0.3612360954284668,0.0039293263107538,0.3039757907390594,0.3486950993537903,-0.0115970643237233,0.2378651797771453,0.3918203711509704,-0.0274347141385078,0.2005432546138763,0.4326660931110382,-0.0391381867229938,0.4364276230335235,0.361591637134552,-0.0231103654950857,0.2918322682380676,0.322775661945343,-0.0354039408266544,0.227392166852951,0.3677592575550079,-0.0473946742713451,0.1891166120767593,0.4165564179420471,-0.0598169341683387,0.4249638617038727,0.3970512151718139,-0.0468728840351104,0.2889628112316131,0.3475765585899353,-0.0596053004264831,0.2259336858987808,0.3899984061717987,-0.0660451650619506,0.1854102313518524,0.4318196773529053,-0.0742972493171691,0.3952921628952026,0.4573659002780914,-0.0673044770956039,0.284700334072113,0.4492415189743042,-0.0835749134421348,0.2270780801773071,0.4659542441368103,-0.0903195366263389,0.1851231157779693,0.4802927374839782,-0.095846801996231
2023-08-01 16:05:41.454611,44,335,0.6867391467094421,0.0761832594871521,-0.0688588246703147,0.7196137309074402,-0.33837890625,0.8984375,0.2158203125,0.4908962845802307,0.6598737835884094,-8.839741099109233e-07,0.3890750110149383,0.593534529209137,0.0290102120488882,0.3353656530380249,0.524609386920929,0.0250765811651945,0.2787105441093445,0.4868392944335937,0.0116462958976626,0.2283262759447097,0.465340107679367,-0.0049530798569321,0.4444886445999145,0.3589934408664703,0.0043861209414899,0.3194148540496826,0.3363065719604492,-0.0134563883766531,0.2537489533424377,0.3791979849338531,-0.0308616738766431,0.2160704284906387,0.4216360449790954,-0.0429170541465282,0.4472388625144958,0.36137655377388,-0.0223338399082422,0.3054623305797577,0.3177730143070221,-0.0349410660564899,0.2409819662570953,0.3609905242919922,-0.0455565005540847,0.2033265978097915,0.4110293984413147,-0.0567771829664707,0.4345448017120361,0.3977456986904144,-0.0465786829590797,0.2983168363571167,0.3538976311683655,-0.0583821684122085,0.2365052700042724,0.3937209546566009,-0.0625959932804107,0.1982578188180923,0.4342405200004577,-0.0692289248108863,0.4042882323265075,0.4566290080547333,-0.0680640861392021,0.2955488562583923,0.4474091529846191,-0.0812218561768531,0.2395147830247879,0.4636030793190002,-0.0859493762254715,0.1998175531625747,0.4784206449985504,-0.0903834998607635
2023-08-01 16:05:41.542965,45,336,0.6858047842979431,0.0865402147173881,-0.0703668966889381,0.7191877961158752,-0.33154296875,0.89599609375,0.2216796875,0.4939558506011963,0.6528695225715637,-8.898693408809777e-07,0.3892639279365539,0.585577130317688,0.0259039085358381,0.3364202976226806,0.5189462304115295,0.0202328767627477,0.2790616154670715,0.4828905761241913,0.0055160210467875,0.2290520370006561,0.4603267908096313,-0.0125922672450542,0.4465814530849457,0.3502704501152038,-0.0011676829308271,0.321981132030487,0.3290317058563232,-0.0193356592208147,0.2582153677940368,0.3748072385787964,-0.0362557545304298,0.2224708646535873,0.4187358021736145,-0.0485826097428798,0.4509473741054535,0.3552226424217224,-0.0273428093641996,0.3085075318813324,0.3139086961746216,-0.042503111064434,0.2462638318538665,0.3604085445404053,-0.0550961419939994,0.2104016840457916,0.4108887612819671,-0.0677198022603988,0.4401220679283142,0.3948102295398712,-0.050832986831665,0.3057248592376709,0.3469513058662414,-0.0656071007251739,0.2454213351011276,0.3892064690589905,-0.0712899714708328,0.2079941630363464,0.4312262833118438,-0.0785249397158622,0.4127304852008819,0.4564357101917267,-0.0715287029743194,0.3043803870677948,0.445282369852066,-0.0890965834259986,0.2472407519817352,0.4615118503570556,-0.0961442291736602,0.2059151977300644,0.475741446018219,-0.1015572026371955
2023-08-01 16:05:41.617154,46,337,0.6844847798347473,0.098002128303051,-0.0703624635934829,0.7189751863479614,-0.27001953125,0.89404296875,0.19775390625,0.4999013841152191,0.6523215770721436,-8.757019145377853e-07,0.3963371813297272,0.5863606333732605,0.0239204708486795,0.3420493900775909,0.5190876722335815,0.0164418388158082,0.2850607335567474,0.4822051227092743,0.0003882943419739,0.2338989675045013,0.459909975528717,-0.0188734773546457,0.4561731815338135,0.3491646945476532,-0.0040919403545558,0.3292834460735321,0.3277158737182617,-0.0249295681715011,0.2638469338417053,0.3714182376861572,-0.0437175631523132,0.2275033146142959,0.4142282903194427,-0.056648626923561,0.4594621658325195,0.3561378121376037,-0.0295514147728681,0.3167206943035126,0.3146867156028747,-0.045989666134119,0.252793401479721,0.3582876622676849,-0.058903157711029,0.2154708057641983,0.4080641567707062,-0.0714803785085678,0.4469693005084991,0.3956671953201294,-0.0526350960135459,0.3109831213951111,0.351375937461853,-0.0682412311434745,0.2492618560791015,0.3915978074073791,-0.0740141570568084,0.2113433182239532,0.4330628216266632,-0.0810417830944061,0.4174704253673553,0.4554119110107422,-0.0731338411569595,0.3085270822048187,0.4463639259338379,-0.0907507166266441,0.2524759769439697,0.4631718099117279,-0.0976809784770011,0.2124881148338318,0.4795533418655395,-0.1028448939323425
2023-08-01 16:05:41.688086,47,338,0.6832177042961121,0.1080443486571312,-0.0645998790860176,0.7192821502685547,-0.38720703125,0.9091796875,0.12548828125,0.532587468624115,0.6516563892364502,-8.786288958617661e-07,0.4302102327346802,0.5844211578369141,0.0194217655807733,0.3722932934761047,0.5150811672210693,0.0089789973571896,0.3175552487373352,0.4757934510707855,-0.0096198562532663,0.2709593772888183,0.4508695602416992,-0.0301817934960126,0.4885711669921875,0.3469497263431549,-0.00787990167737,0.3688589632511139,0.3168438673019409,-0.0350770317018032,0.3024163544178009,0.3536362051963806,-0.0578505098819732,0.26231250166893,0.3973182737827301,-0.0724748820066452,0.4936569333076477,0.3561296761035919,-0.0330829285085201,0.3556587696075439,0.3121397793292999,-0.0561223141849041,0.2876635193824768,0.3532406687736511,-0.071408987045288,0.2456780821084976,0.4018780589103699,-0.0840138345956802,0.4825082421302795,0.3951625823974609,-0.057040762156248,0.3505148589611053,0.3528428971767425,-0.0765653923153877,0.2852013707160949,0.3876491785049438,-0.0829789042472839,0.243899866938591,0.4255853295326233,-0.0892312452197074,0.4552900195121765,0.4546054601669311,-0.079180359840393,0.3495845794677734,0.4429021179676056,-0.0987347587943077,0.2917118370532989,0.4557170271873474,-0.1064526736736297,0.2501251101493835,0.4679702222347259,-0.1114384531974792
2023-08-01 16:05:41.761043,48,339,0.681466817855835,0.1213888227939605,-0.0640724450349807,0.7188619375228882,-0.31396484375,0.89599609375,0.20263671875,0.5420988202095032,0.6535830497741699,-8.703219123162853e-07,0.4411738514900207,0.5843895077705383,0.0183939263224601,0.3827600479125976,0.5138278603553772,0.008119867183268,0.3278408646583557,0.4748276472091675,-0.0099112214520573,0.2839075326919555,0.4468737840652466,-0.0297317579388618,0.5026000738143921,0.3455127775669098,-0.0084228403866291,0.3809863030910492,0.3144652247428894,-0.0357817411422729,0.3136894702911377,0.3549474477767944,-0.0582801587879657,0.2747906446456909,0.4018104970455169,-0.0732421949505806,0.5067253112792969,0.3549134135246277,-0.0340788625180721,0.3644535839557647,0.3059970140457153,-0.0573799982666969,0.2979962229728699,0.3524883985519409,-0.0735053196549415,0.2592902779579162,0.4058506786823272,-0.0866283401846885,0.495291531085968,0.3943172991275787,-0.0586312860250473,0.3609465360641479,0.3440399765968323,-0.0804519057273864,0.2955935001373291,0.3857324719429016,-0.0891939029097557,0.254115492105484,0.4286776781082153,-0.0966594815254211,0.4685535132884979,0.4544359445571899,-0.0812069624662399,0.3657480776309967,0.4439019858837127,-0.1050628274679184,0.3082492649555206,0.4562124013900757,-0.116336889564991,0.2650594115257263,0.465992659330368,-0.1234599202871322
2023-08-01 16:05:41.837586,49,340,0.6801765561103821,0.1363424509763717,-0.0644948408007621,0.7173638939857483,-0.31201171875,0.91064453125,0.17431640625,0.5914425849914551,0.6583032011985779,-8.533900199836353e-07,0.4946723282337188,0.5851757526397705,0.0207595415413379,0.4351570904254913,0.5110781788825989,0.0114640034735202,0.3788871169090271,0.4715197682380676,-0.0069226333871483,0.3331850171089172,0.4457175135612488,-0.0273248832672834,0.545271098613739,0.346318244934082,0.0014954335056245,0.4274074137210846,0.3065149188041687,-0.0271847266703844,0.3608817160129547,0.3308787941932678,-0.0521001853048801,0.3215137124061584,0.3656697869300842,-0.0677396655082702,0.5527687668800354,0.3569128811359405,-0.0257707294076681,0.4159353375434875,0.3035014569759369,-0.049198817461729,0.3496610224246979,0.3389593064785003,-0.0681191310286521,0.3086522221565246,0.3844251632690429,-0.0822228789329528,0.5453668236732483,0.393850028514862,-0.0525168627500534,0.4131722748279571,0.3463332653045654,-0.0729037523269653,0.3465379178524017,0.3805806934833526,-0.0831944644451141,0.3032812774181366,0.4197258353233337,-0.0909278914332389,0.5214250087738037,0.4511388540267944,-0.0774193182587623,0.4162619709968567,0.4414798021316528,-0.0952728912234306,0.3610266745090484,0.452822744846344,-0.1038621515035629,0.3192804455757141,0.4639410972595215,-0.1092721670866012
2023-08-01 16:05:41.894876,50,341,0.6783347725868225,0.1492230147123336,-0.0660411119461059,0.7164028286933899,-0.3408203125,0.9208984375,0.12109375,0.6099977493286133,0.6628599166870117,-8.148231245286297e-07,0.5101920366287231,0.5905263423919678,0.0203533470630645,0.4500805735588074,0.5141792893409729,0.0105106653645634,0.3925641775131225,0.4745610356330871,-0.0087059084326028,0.3449142575263977,0.4479771852493286,-0.0293688178062438,0.5609910488128662,0.3434909284114837,0.0024940911680459,0.4408969283103943,0.3060330152511596,-0.0283027216792106,0.3713683784008026,0.3346372842788696,-0.0549550950527191,0.3301376104354858,0.3728514015674591,-0.071394994854927,0.569069504737854,0.3523569405078888,-0.0259163957089185,0.4313251376152038,0.2967323064804077,-0.0504580028355121,0.362956702709198,0.3314144313335418,-0.0696467161178588,0.3215495944023132,0.3756158053874969,-0.0836970135569572,0.563381552696228,0.3894182443618774,-0.0541328303515911,0.4339572787284851,0.3351207077503204,-0.0760879516601562,0.3667225539684295,0.3693278133869171,-0.0851710364222526,0.3225096464157104,0.4069305956363678,-0.0914700701832771,0.5407185554504395,0.4488168358802795,-0.0806152299046516,0.4371819794178009,0.4324877858161926,-0.1002589836716651,0.3802117705345154,0.4433413445949554,-0.1076787784695625,0.3369004726409912,0.4541351795196533,-0.1114770993590354
2023-08-01 16:05:41.956087,51,342,0.6761554479598999,0.1618692874908447,-0.0691555812954902,0.7154226899147034,-0.30859375,0.93017578125,0.12841796875,0.6240633726119995,0.6663785576820374,-8.30538340323983e-07,0.5250595211982727,0.5908061265945435,0.0213698651641607,0.4632088243961334,0.5113365650177002,0.0125581733882427,0.4065617322921753,0.4699190258979797,-0.0056694541126489,0.3596397042274475,0.4427643716335296,-0.0256269481033086,0.572493314743042,0.3420050144195556,0.0017304685898125,0.452134221792221,0.2984037399291992,-0.0299210716038942,0.3804967701435089,0.3213121592998504,-0.0572778843343257,0.3347030282020569,0.3558511435985565,-0.073926143348217,0.5815718173980713,0.3528908491134643,-0.0267405696213245,0.4437772929668426,0.2977250814437866,-0.0509502105414867,0.3730885088443756,0.3278701901435852,-0.0708493962883949,0.327746570110321,0.3663352727890014,-0.0861056372523307,0.5771662592887878,0.3915753364562988,-0.0549229644238948,0.4493542015552521,0.3385702073574066,-0.0775686576962471,0.381445050239563,0.3702321350574493,-0.0885384827852249,0.3354113698005676,0.4053953886032104,-0.0962896943092346,0.5566148161888123,0.4521258175373077,-0.0811079442501068,0.4545946419239044,0.4350956678390503,-0.1010359600186348,0.3968406319618225,0.4452702403068542,-0.1091319322586059,0.3520277142524719,0.4562718272209167,-0.1136918738484382
2023-08-01 16:05:42.023794,52,343,0.6737866997718811,0.1768205314874649,-0.0733666196465492,0.7136968970298767,-0.263671875,0.921875,0.14111328125,0.6777577996253967,0.6773624420166016,-9.15957855340821e-07,0.5795126557350159,0.5855244398117065,0.0222505182027816,0.5178709030151367,0.5090758800506592,0.0135282985866069,0.4579730927944183,0.4684827029705047,-0.0058086765930056,0.408896803855896,0.4367655217647552,-0.0267567224800586,0.6349538564682007,0.3508616387844085,0.0140147721394896,0.5236263275146484,0.3121280968189239,-0.0136122293770313,0.455862283706665,0.3353265523910522,-0.0403302609920501,0.413692444562912,0.3660824298858642,-0.0582695566117763,0.6478180289268494,0.3575308322906494,-0.0153191210702061,0.5145309567451477,0.3055505752563476,-0.0376730263233184,0.4461824297904968,0.3423095941543579,-0.0591160394251346,0.4022695124149322,0.3832027018070221,-0.0759683772921562,0.6461827754974365,0.3918531239032745,-0.04503970220685,0.5183796882629395,0.342608630657196,-0.0653821304440498,0.4498980045318603,0.3735221326351166,-0.0766419619321823,0.4033624827861786,0.4106829166412353,-0.0855194851756095,0.6280194520950317,0.4483673274517059,-0.0731406211853027,0.5196369290351868,0.4391073286533355,-0.0914094150066375,0.4607726335525512,0.4489390850067138,-0.1000648215413093,0.415071427822113,0.4603118896484375,-0.105861596763134
2023-08-01 16:05:42.079101,53,344,0.672849714756012,0.1852480769157409,-0.0731876492500305,0.7124605178833008,-0.31884765625,0.935546875,0.11669921875,0.6942749619483948,0.667191743850708,-8.854453881212976e-07,0.5971594452857971,0.5808999538421631,0.0245015937834978,0.5371392965316772,0.5058896541595459,0.015369719825685,0.4774829149246216,0.4664234220981598,-0.0046238414943218,0.4273654222488403,0.4371017813682556,-0.0269274115562438,0.6482712626457214,0.3505432605743408,0.012502733618021,0.5354033708572388,0.3196549117565155,-0.0161921773105859,0.4708797335624695,0.349511444568634,-0.0430943630635738,0.4321819841861725,0.3825848698616028,-0.0610171593725681,0.6615315675735474,0.3578184843063354,-0.0191335435956716,0.5276307463645935,0.3066543936729431,-0.0441036187112331,0.4618768095970154,0.3489946722984314,-0.0655482709407806,0.4204153418540954,0.393858402967453,-0.0810132697224617,0.6613884568214417,0.3928408920764923,-0.0507567971944808,0.5346611738204956,0.3425495326519012,-0.0725884512066841,0.4672997593879699,0.3763972520828247,-0.0833346545696258,0.4203095436096191,0.4105355739593506,-0.0912713482975959,0.6454296708106995,0.4492957293987274,-0.0804565101861953,0.540923535823822,0.4408330619335174,-0.1004316061735153,0.4822297096252441,0.4516321122646332,-0.1091161668300628,0.4355599880218506,0.4600879251956939,-0.1144622489809989
2023-08-01 16:05:42.147562,54,345,0.671284556388855,0.1977608352899551,-0.0754014626145362,0.7103396058082581,-0.31494140625,0.908203125,0.07958984375,0.7061031460762024,0.6574059724807739,-8.647322715660266e-07,0.607733964920044,0.5761662721633911,0.0231554936617612,0.548815131187439,0.5049604177474976,0.0140301575884222,0.4933861792087555,0.4663839340209961,-0.0053896065801382,0.4482090473175049,0.4367302060127258,-0.0270127654075622,0.6602437496185303,0.3427515029907226,0.0106057897210121,0.5482065081596375,0.3174551427364349,-0.0169236864894628,0.4851377606391907,0.3467963337898254,-0.0427614226937294,0.4471682608127594,0.3793778419494629,-0.0600060634315013,0.6744629144668579,0.3495669066905975,-0.0201972872018814,0.5434291958808899,0.3039844632148742,-0.0446655079722404,0.4790734648704529,0.3450956046581268,-0.0649317651987075,0.4380998611450195,0.3886691033840179,-0.0788728445768356,0.6752068400382996,0.3854365944862366,-0.0507973544299602,0.5522142648696899,0.3348931074142456,-0.0730411112308502,0.4858010411262512,0.3664467334747314,-0.0819888040423393,0.4398528337478637,0.3989664614200592,-0.0877364352345466,0.6595016121864319,0.4437761008739471,-0.079479843378067,0.5537737011909485,0.437199592590332,-0.1008710190653801,0.4954304993152618,0.4481177031993866,-0.1081967577338218,0.4506402015686035,0.4564284682273865,-0.1113053262233734
2023-08-01 16:05:42.210794,55,346,0.6706043481826782,0.205469012260437,-0.0760307684540748,0.7087253332138062,-0.29638671875,0.92529296875,0.09423828125,0.7385574579238892,0.6793928146362305,-9.181759992316074e-07,0.6583259105682373,0.5951969623565674,0.0055403881706297,0.5958849191665649,0.5090224742889404,-0.0040710340254008,0.5417696237564087,0.4579573273658752,-0.0208034422248601,0.4987240433692932,0.4137971997261047,-0.0372043587267398,0.7048979997634888,0.3477777242660522,0.010487756691873,0.6091828942298889,0.3181372880935669,-0.0233786590397357,0.5468916893005371,0.3392829298973083,-0.0560393221676349,0.5071068406105042,0.3704200088977813,-0.0773456022143364,0.72608882188797,0.3552342355251312,-0.0120259150862693,0.6118659973144531,0.3138350248336792,-0.0415037088096141,0.5458570122718811,0.3454302251338959,-0.0664255172014236,0.500534176826477,0.3852430582046509,-0.0827466771006584,0.7369691729545593,0.3900795578956604,-0.0376503728330135,0.6242356300354004,0.3544811308383941,-0.0657261684536933,0.5567488670349121,0.3765091896057129,-0.0779465362429618,0.5084630250930786,0.4028804302215576,-0.0842388644814491,0.7337387800216675,0.4489974975585937,-0.063453271985054,0.6367413997650146,0.4438314437866211,-0.0877357348799705,0.5832813382148743,0.4499851167201996,-0.0963840633630752,0.5417714715003967,0.4558499753475189,-0.0997675508260726
2023-08-01 16:05:42.264729,56,347,0.6697089672088623,0.2137120813131332,-0.0762825757265091,0.7071053385734558,-0.3212890625,0.91845703125,0.08056640625,0.770302414894104,0.6778918504714966,-8.572931733397127e-07,0.6780385375022888,0.5946937799453735,0.0065887067466974,0.6164129972457886,0.5135045647621155,-0.0055097145959734,0.563072919845581,0.4660041928291321,-0.0256982594728469,0.5218344926834106,0.4225459098815918,-0.0456865802407264,0.7245455384254456,0.3534677624702453,0.0101521834731101,0.6264114379882812,0.316931813955307,-0.0273290667682886,0.5617930889129639,0.3352749943733215,-0.0622067153453826,0.517485499382019,0.3657183647155761,-0.0841780602931976,0.7463415861129761,0.359524130821228,-0.0147020639851689,0.6256685256958008,0.3096165060997009,-0.0477149784564971,0.559579610824585,0.3430694341659546,-0.0752055719494819,0.5158974528312683,0.3856971859931946,-0.0922547429800033,0.7565137147903442,0.3916027247905731,-0.0429026558995246,0.6411656737327576,0.3403388857841491,-0.073886401951313,0.5697489380836487,0.3654138445854187,-0.089228443801403,0.5192772150039673,0.3968888223171234,-0.0964237451553344,0.7505796551704407,0.4478658735752105,-0.0711587071418762,0.6485568284988403,0.4363371133804321,-0.0994385108351707,0.5892598032951355,0.4409506916999817,-0.1120574325323104,0.5432668924331665,0.4469041228294372,-0.1170529872179031
2023-08-01 16:05:42.325863,57,348,0.6691986322402954,0.2163895368576049,-0.0761723890900611,0.7067860960960388,-0.333984375,0.92724609375,0.1181640625,0.7755416631698608,0.6787693500518799,-8.610249437879247e-07,0.6885049939155579,0.5856403708457947,0.0072123766876757,0.6300231218338013,0.5072552561759949,-0.0046907407231628,0.5774726271629333,0.4612681567668915,-0.0248216427862644,0.5367684960365295,0.4180064499378204,-0.0450315400958061,0.7368967533111572,0.349784642457962,0.0135355209931731,0.637286901473999,0.3215734362602234,-0.0223727524280548,0.5742374658584595,0.3431036472320556,-0.0577795691788196,0.5313552021980286,0.3729873895645141,-0.0806129425764083,0.7593234181404114,0.3547645807266235,-0.010475780814886,0.6399996280670166,0.3138893246650696,-0.0415989458560943,0.5759533643722534,0.3483062386512756,-0.0710378661751747,0.5316037535667419,0.3868833780288696,-0.0908869281411171,0.7690786123275757,0.3866434693336487,-0.0375077612698078,0.6557178497314453,0.3418881595134735,-0.065988503396511,0.587117612361908,0.3667141199111938,-0.0827916264533996,0.5365517735481262,0.3957054018974304,-0.0924037471413612,0.7620734572410583,0.4436642527580261,-0.0645303353667259,0.6608097553253174,0.4371114671230316,-0.0900671258568763,0.6026174426078796,0.4424064457416534,-0.1024960279464721,0.5563063621520996,0.4481116235256195,-0.1085059121251106
2023-08-01 16:05:42.388685,58,349,0.6682519316673279,0.2237593382596969,-0.0796992778778076,0.70499587059021,-0.32080078125,0.912109375,0.1220703125,0.8122237324714661,0.6861971616744995,-8.265512292382482e-07,0.7261818051338196,0.5926918983459473,0.0043276804499328,0.6678995490074158,0.5106977820396423,-0.0074008204974234,0.6126959323883057,0.4591944813728332,-0.0278354343026876,0.5721848011016846,0.4067238569259643,-0.0475105941295623,0.7747705578804016,0.3694665133953094,0.0203286428004503,0.691550612449646,0.3273821175098419,-0.0171098709106445,0.6313140392303467,0.3389782011508941,-0.0543399676680564,0.5878807902336121,0.3646788895130157,-0.0779839977622032,0.7995923161506653,0.3735969066619873,-0.0034980867058038,0.6963682174682617,0.3208841681480407,-0.0370518118143081,0.6326584815979004,0.3464135527610779,-0.0690213590860366,0.5874954462051392,0.3803333640098572,-0.0895421281456947,0.8129302859306335,0.4016929566860199,-0.0316210836172103,0.7109941244125366,0.3475425839424133,-0.0633658170700073,0.6449337601661682,0.3692961037158966,-0.0799643769860267,0.5971134901046753,0.3988062441349029,-0.0876331627368927,0.8097432851791382,0.4541549682617187,-0.0601670928299427,0.7131989598274231,0.4381886720657348,-0.0866367816925048,0.6584474444389343,0.4392309188842773,-0.0977803543210029,0.6160985231399536,0.4430877268314361,-0.1020756736397743
2023-08-01 16:05:42.454771,59,350,0.6675701141357422,0.2363611310720443,-0.0837889537215232,0.7010442018508911,-0.3525390625,0.931640625,0.08544921875,0.8239293694496155,0.6851803660392761,-7.61469209464849e-07,0.7389549612998962,0.5976814031600952,0.001473325304687,0.6820707321166992,0.5138677954673767,-0.0096147609874606,0.6279711723327637,0.4642730951309204,-0.0283859744668006,0.5860407948493958,0.4160061180591583,-0.0462413467466831,0.7823696136474609,0.3660013079643249,0.0174603834748268,0.7019675374031067,0.3274814784526825,-0.0188864152878522,0.6423813104629517,0.3361586928367615,-0.0546913556754589,0.5974814891815186,0.358573168516159,-0.0772299244999885,0.8079054355621338,0.3717691898345947,-0.0032537004444748,0.7064116597175598,0.3242976665496826,-0.0353588871657848,0.6438931226730347,0.3485544621944427,-0.0649351477622985,0.5991798043251038,0.3794466853141784,-0.0837495625019073,0.8234692811965942,0.4020124077796936,-0.0285551398992538,0.7235158681869507,0.3572876751422882,-0.0592696443200111,0.6570751667022705,0.375795304775238,-0.0761761516332626,0.6075889468193054,0.4019029438495636,-0.0840250626206398,0.8232306838035583,0.4549553692340851,-0.0546287931501865,0.7313786745071411,0.4395358860492706,-0.0802176371216774,0.6751935482025146,0.4393492639064789,-0.0925328135490417,0.6298574805259705,0.4430853426456451,-0.0977258086204528
2023-08-01 16:05:42.515407,60,351,0.66591477394104,0.245865911245346,-0.0866267755627632,0.6990016102790833,-0.30126953125,0.92578125,0.078125,0.8359130024909973,0.6843239068984985,-7.535049917350989e-07,0.7492237687110901,0.5988481044769287,0.0039082015864551,0.6915903091430664,0.5173441767692566,-0.0062285857275128,0.6384961605072021,0.4673030972480774,-0.024795239791274,0.598152756690979,0.4165799021720886,-0.042315550148487,0.7903289794921875,0.374402105808258,0.0203999578952789,0.7122349739074707,0.3319047689437866,-0.0163918249309062,0.652690052986145,0.3415859341621399,-0.0515393279492855,0.6095076203346252,0.3663937747478485,-0.0731922164559364,0.8162087202072144,0.3777252435684204,-0.0019812672398984,0.7165386080741882,0.3261180520057678,-0.0336239002645015,0.6550369262695312,0.3500170707702636,-0.0609848089516162,0.6133803129196167,0.3828605115413666,-0.0777092799544334,0.8323563933372498,0.4048694372177124,-0.0292309578508138,0.7320492267608643,0.3543058633804321,-0.0594746358692646,0.6670721173286438,0.3725773692131042,-0.0733594894409179,0.6209681034088135,0.399847537279129,-0.078794926404953,0.8328372836112976,0.4550032317638397,-0.0572590492665767,0.7385368347167969,0.4398130476474762,-0.0830341801047325,0.6824469566345215,0.4403039515018463,-0.0938525199890136,0.639156699180603,0.4458458721637726,-0.0974544137716293
2023-08-01 16:05:42.580731,61,352,0.6642141938209534,0.2543138563632965,-0.0895768105983734,0.6972229480743408,-0.31005859375,0.919921875,0.07763671875,0.8440880179405212,0.6820787191390991,-7.697934165662446e-07,0.7585611939430237,0.5957353711128235,0.0046321079134941,0.702202320098877,0.5161420106887817,-0.0054409615695476,0.64966881275177,0.4661076962947845,-0.0239826254546642,0.6091979742050171,0.4163971543312073,-0.0414210706949234,0.8011055588722229,0.3748707771301269,0.021219553425908,0.7253850102424622,0.334645539522171,-0.014664621092379,0.6683834791183472,0.3478087484836578,-0.0495367310941219,0.6276218891143799,0.3743265867233276,-0.0712695270776748,0.826414167881012,0.3798187673091888,-0.0015402504941448,0.7305945158004761,0.3294916450977325,-0.0333549752831459,0.6720695495605469,0.3569058179855346,-0.0611598044633865,0.632308304309845,0.3924820125102997,-0.0780868977308273,0.8426094055175781,0.4076311588287353,-0.0288918279111385,0.7475460171699524,0.3583422303199768,-0.0592737980186939,0.6848968267440796,0.3773432970046997,-0.073109745979309,0.6390866041183472,0.4049680829048157,-0.0784128531813621,0.8436072468757629,0.4585340619087219,-0.0568517632782459,0.752225399017334,0.4415284395217895,-0.0824119672179222,0.6975420117378235,0.4419860541820526,-0.0923945754766464,0.6544301509857178,0.4473438560962677,-0.0954186543822288
2023-08-01 16:05:42.647154,62,353,0.6629845499992371,0.2602327167987823,-0.0927652195096015,0.6957909464836121,-0.3134765625,0.912109375,0.07958984375,0.8743571639060974,0.6859307885169983,-8.19870194845862e-07,0.7964559197425842,0.5983007550239563,0.0040923063643276,0.7409877181053162,0.5235781073570251,-0.0086188307031989,0.6903834342956543,0.4768953621387481,-0.0304642338305711,0.6537154316902161,0.4228338003158569,-0.0516238249838352,0.8423779010772705,0.3802726864814758,0.0159470625221729,0.7750873565673828,0.3333580791950226,-0.026982644572854,0.7208998799324036,0.3463635444641113,-0.0665178522467613,0.6801211833953857,0.3767293691635132,-0.0908178836107254,0.8696901798248291,0.385989248752594,-0.0091422628611326,0.7822952270507812,0.3343952894210815,-0.0495978780090808,0.7258064150810242,0.3595861196517944,-0.0842686221003532,0.6866810917854309,0.3953179717063904,-0.1051903814077377,0.8868402242660522,0.4135428369045257,-0.0389476493000984,0.7997036576271057,0.3652898073196411,-0.077213741838932,0.7388991117477417,0.3868047297000885,-0.0970102101564407,0.6944692730903625,0.4182253777980804,-0.1052087470889091,0.8913233280181885,0.4619892537593841,-0.0689592808485031,0.8060504198074341,0.4417081177234649,-0.1013285964727401,0.752765953540802,0.4424860179424286,-0.1157348901033401,0.7100180387496948,0.4477785527706146,-0.1210933029651641
2023-08-01 16:05:42.724087,63,354,0.6625057458877563,0.2660568058490753,-0.0963612273335456,0.6935520172119141,-0.34716796875,0.91015625,0.06494140625,0.8913221955299377,0.6864936947822571,-7.561596362393175e-07,0.8117393255233765,0.6022518277168274,0.0019628743175417,0.7554181218147278,0.5237075090408325,-0.0089380219578742,0.7035001516342163,0.4772185087203979,-0.0281059388071298,0.6643849611282349,0.4294670820236206,-0.0463556684553623,0.8565897941589355,0.3838637471199035,0.0202252902090549,0.7885940074920654,0.3358992040157318,-0.0178709328174591,0.7329633235931396,0.3444833159446716,-0.05390040948987,0.6901564002037048,0.36979940533638,-0.0757249593734741,0.8834003806114197,0.3897653222084045,-0.0015756982611492,0.7942386865615845,0.3316319584846496,-0.0374962128698825,0.7357959151268005,0.358270913362503,-0.0691422224044799,0.6960700750350952,0.3937923014163971,-0.0872976183891296,0.9006531238555908,0.4155290424823761,-0.0282206162810325,0.81246018409729,0.3618019223213196,-0.0625637397170066,0.7495521903038025,0.3845861554145813,-0.0814684629440307,0.7047080993652344,0.4173202216625213,-0.0884202718734741,0.9031288623809814,0.4625278413295746,-0.0552858226001262,0.8148606419563293,0.4421764314174652,-0.0827197059988975,0.7602183222770691,0.444173127412796,-0.0955087393522262,0.7175874710083008,0.4510431289672851,-0.099644586443901
2023-08-01 16:05:42.805099,64,355,0.6620213389396667,0.2718255817890167,-0.0969705507159233,0.6916900873184204,-0.3828125,0.91015625,0.06884765625,0.8990463018417358,0.683631181716919,-7.880647103775118e-07,0.8185815811157227,0.6012865900993347,0.0035653517115861,0.7622175216674805,0.5235599875450134,-0.0072321309708058,0.711386501789093,0.4760501980781555,-0.0267415922135114,0.6716739535331726,0.4269095659255981,-0.0456540137529373,0.8632597327232361,0.3784689009189605,0.0209376588463783,0.7945029735565186,0.3353812396526336,-0.0183051005005836,0.7394941449165344,0.3458144068717956,-0.0556375682353973,0.6972815990447998,0.3726703524589538,-0.0782867819070816,0.8906165957450867,0.3842210173606872,-0.0019277250394225,0.8021799921989441,0.333683580160141,-0.0384939312934875,0.745406448841095,0.3608790934085846,-0.0701162219047546,0.7066823244094849,0.396646648645401,-0.08824373036623,0.9088379740715028,0.4119780361652374,-0.029643153771758,0.8213043808937073,0.3632688522338867,-0.0649757608771324,0.7603518962860107,0.3865749537944793,-0.0826250612735748,0.7167952060699463,0.4189283847808838,-0.0884426683187484,0.9135862588882446,0.461505264043808,-0.0576968565583229,0.8269088268280029,0.4408766627311706,-0.08668964356184,0.7732253074645996,0.4417471885681152,-0.0989800915122032,0.7312583327293396,0.4469733834266662,-0.1022326350212097
2023-08-01 16:05:42.881623,65,356,0.6613590717315674,0.2766984701156616,-0.0949988812208175,0.6906644105911255,-0.37646484375,0.9384765625,0.021484375,0.9186463356018066,0.6849655508995056,-8.241040632128716e-07,0.8483368158340454,0.6058093905448914,-0.0065988195128738,0.796325147151947,0.5309716463088989,-0.0212379023432731,0.745345950126648,0.4821210503578186,-0.0419177934527397,0.708737850189209,0.4310417473316192,-0.0608822330832481,0.895836353302002,0.3854983747005462,0.0092470608651638,0.8286939859390259,0.3413783311843872,-0.0305688977241516,0.7725816369056702,0.3569567203521728,-0.0672596246004104,0.7310870885848999,0.3867426812648773,-0.0892745107412338,0.9243378639221193,0.3887557983398437,-0.0067478050477802,0.8356579542160034,0.3441141843795776,-0.0423162132501602,0.7770205736160278,0.3719696700572967,-0.0726204961538314,0.7366214394569397,0.4065340161323547,-0.0904895812273025,0.9440962076187134,0.4138559401035309,-0.0277422629296779,0.8559817671775818,0.3723459243774414,-0.0616602413356304,0.7938878536224365,0.3968510925769806,-0.0782127827405929,0.7486297488212585,0.4296335577964782,-0.0840843543410301,0.950610876083374,0.4604602754116058,-0.0498744808137416,0.8653272390365601,0.4467525482177734,-0.0774804800748825,0.8144771456718445,0.4519311785697937,-0.0887046158313751,0.7745412588119507,0.4624569714069366,-0.0914560183882713
2023-08-01 16:05:42.960753,66,357,0.6612725257873535,0.2779087126255035,-0.0959602296352386,0.6901283264160156,-0.31298828125,0.9130859375,0.064453125,0.9333346486091614,0.6809577345848083,-8.057534159888746e-07,0.8562204837799072,0.6070581674575806,-0.0045119537971913,0.8025541305541992,0.5298212766647339,-0.0184100400656461,0.7525409460067749,0.4812442064285278,-0.0390540100634098,0.7167022228240967,0.428286463022232,-0.0587757155299186,0.9075563549995422,0.3850117921829223,0.0093730445951223,0.8359714150428772,0.3418036997318268,-0.0314561016857624,0.7780234813690186,0.3553944528102875,-0.068597063422203,0.7351745963096619,0.3852259218692779,-0.0911541059613227,0.9351819753646852,0.3921828866004944,-0.0095802098512649,0.8428926467895508,0.339989423751831,-0.0490547455847263,0.7827641367912292,0.3739499151706695,-0.0819727405905723,0.7439379096031189,0.4141700863838196,-0.1007124334573745,0.95242440700531,0.4192208647727966,-0.0334171690046787,0.8615906238555908,0.369755208492279,-0.0718288198113441,0.7961112260818481,0.400122582912445,-0.0921067669987678,0.7516335248947144,0.4379141330718994,-0.0995001792907714,0.9549990892410278,0.4667985737323761,-0.0579233057796955,0.8651308417320251,0.4467144906520843,-0.0901069417595863,0.8098124265670776,0.4531550109386444,-0.1052625700831413,0.7688593864440918,0.4654186367988586,-0.1104623824357986
2023-08-01 16:05:43.026941,67,358,0.6619458794593811,0.2788476347923279,-0.0964920073747634,0.6890290975570679,-0.29248046875,0.92138671875,0.09814453125,0.9435763955116272,0.690170168876648,-8.13042049685464e-07,0.8796574473381042,0.6159819960594177,-0.011180636473,0.8296250700950623,0.5359713435173035,-0.0277987904846668,0.780981719493866,0.4888618588447571,-0.0491860136389732,0.7450255155563354,0.4392033815383911,-0.069754809141159,0.924615740776062,0.3993865847587585,0.0007549222791567,0.8587932586669922,0.352541983127594,-0.0429633371531963,0.8030994534492493,0.3629882931709289,-0.0826446786522865,0.7591651678085327,0.3904264569282532,-0.1062210351228714,0.9557199478149414,0.4029886126518249,-0.0140131330117583,0.872180163860321,0.3465303182601928,-0.0560519285500049,0.8118901252746582,0.3757444620132446,-0.0914628952741622,0.7689361572265625,0.4138218462467193,-0.1114913076162338,0.9788446426391602,0.4291678965091705,-0.0336492098867893,0.8977618217468262,0.3716855347156524,-0.0725190788507461,0.831018328666687,0.3967296779155731,-0.0949732661247253,0.7824674248695374,0.4330422282218933,-0.1037939935922622,0.9890264868736268,0.4773560166358948,-0.0542351901531219,0.9032834768295288,0.4541200399398803,-0.0861148163676261,0.8483240604400635,0.45431849360466,-0.1023436337709426,0.8053851127624512,0.4602481424808502,-0.1084588542580604
2023-08-01 16:05:43.078216,68,359,0.6627404689788818,0.2792908847332001,-0.0958950892090797,0.688168466091156,-0.36376953125,0.92724609375,0.0546875,0.942292869091034,0.6865870356559753,-8.015366574909422e-07,0.8771088123321533,0.6171373128890991,-0.0139174172654747,0.8262894749641418,0.5367727279663086,-0.0320463515818119,0.7784347534179688,0.4876781105995178,-0.0545215345919132,0.7425330877304077,0.4347645938396454,-0.0757799670100212,0.9246193170547484,0.3882625997066498,-0.0039765145629644,0.8577520251274109,0.3431790471076965,-0.0501306354999542,0.8020609617233276,0.3601356148719787,-0.0901317298412323,0.7597415447235107,0.3931753039360046,-0.1134491711854934,0.9575281739234924,0.3947482705116272,-0.0185417514294385,0.8718656897544861,0.3449013829231262,-0.0625877082347869,0.8110539317131042,0.3767575025558471,-0.0975849106907844,0.769243597984314,0.4147528409957886,-0.1169771254062652,0.9808105826377868,0.4252479374408722,-0.038490280508995,0.8970622420310974,0.3777148127555847,-0.0807272940874099,0.8279050588607788,0.403720885515213,-0.1042671129107475,0.7783927917480469,0.43698850274086,-0.1133273094892501,0.98954039812088,0.477182000875473,-0.0595377199351787,0.9028687477111816,0.4560855031013489,-0.0946879684925079,0.8464412093162537,0.4585240483283996,-0.112583689391613,0.8027514219284058,0.4663043618202209,-0.1193785145878791
2023-08-01 16:05:43.145066,69,360,0.6626603603363037,0.2809392511844635,-0.095569260418415,0.687619686126709,-0.3193359375,0.92919921875,0.0546875,0.9479594826698304,0.6903347969055176,-7.983432510627608e-07,0.8810425996780396,0.6233100295066833,-0.0147201558575034,0.8301478624343872,0.5432732701301575,-0.0322991348803043,0.7807595133781433,0.4943787157535553,-0.0541047789156436,0.7433825731277466,0.4430293440818786,-0.0743555873632431,0.9317593574523926,0.3924133777618408,-0.0037210511509329,0.8631781339645386,0.3460662364959717,-0.0488721132278442,0.8066486120223999,0.3612425327301025,-0.0871597900986671,0.7633674740791321,0.3922248184680938,-0.1088897958397865,0.962551772594452,0.3984816074371338,-0.0170357972383499,0.8713237047195435,0.3435239791870117,-0.0599702112376689,0.8119279146194458,0.3794645071029663,-0.0926260352134704,0.7738576531410217,0.4201571941375732,-0.1096374988555908,0.9837597608566284,0.4279708564281463,-0.0357900932431221,0.8937172293663025,0.380524218082428,-0.0768119394779205,0.8251819610595703,0.4088254868984222,-0.0987518727779388,0.7777097225189209,0.4441421329975128,-0.1058271899819374,0.9897213578224182,0.478172242641449,-0.0557874999940395,0.9027916789054872,0.4542599320411682,-0.0876275897026062,0.8471623659133911,0.4551469087600708,-0.1036636754870414,0.8041000962257385,0.4641107022762298,-0.1089902371168136
2023-08-01 16:05:43.207687,70,361,0.66248619556427,0.2808918356895447,-0.0953698009252548,0.687834620475769,-0.30419921875,0.93310546875,0.06689453125,0.9548317193984984,0.6948692798614502,-7.566618478449527e-07,0.8861631155014038,0.6264106035232544,-0.0151015818119049,0.8339954614639282,0.5475324988365173,-0.0339245684444904,0.7845653295516968,0.4993771314620971,-0.057304635643959,0.7485597729682922,0.4492574334144592,-0.0792336836457252,0.9338223934173584,0.4007043540477752,-0.0033097374252974,0.8681538701057434,0.3516426682472229,-0.0501449406147003,0.8121793270111084,0.3652591109275818,-0.0906152352690696,0.7685290575027466,0.3961552679538727,-0.113962784409523,0.9637536406517028,0.4056296944618225,-0.0176153611391782,0.8786655068397522,0.3409749269485473,-0.0625684186816215,0.81851726770401,0.3729178309440613,-0.0984688475728035,0.7789008617401123,0.4119616150856018,-0.1180278733372688,0.9850238561630248,0.4320898354053497,-0.0374874137341976,0.9000527858734131,0.3800071179866791,-0.079582042992115,0.8305368423461914,0.4066192209720611,-0.1044190973043441,0.7823108434677124,0.4411622881889343,-0.1138256713747978,0.9906129837036132,0.4786387681961059,-0.0586077123880386,0.9055051803588868,0.452319324016571,-0.0903387442231178,0.8503658771514893,0.4529387652873993,-0.1075760498642921,0.8078930377960205,0.4609063267707824,-0.1144943982362747
2023-08-01 16:05:43.269070,71,362,0.6626085042953491,0.2798237800598144,-0.0961768180131912,0.6880397200584412,-0.30517578125,0.9208984375,0.0869140625,0.952477216720581,0.6979377269744873,-7.770906336190819e-07,0.8850758075714111,0.6276711821556091,-0.0130715817213058,0.833803653717041,0.5470390915870667,-0.0304836630821228,0.7840883731842041,0.4966509938240051,-0.0530071482062339,0.7474014163017273,0.4440231919288635,-0.0738458558917045,0.9345405697822572,0.4071837663650512,-0.0007568253204226,0.8727869391441345,0.3492401838302612,-0.0458692610263824,0.8169710040092468,0.3626579344272613,-0.0837985947728157,0.7769185304641724,0.3957288861274719,-0.1055498421192169,0.9658660292625428,0.4118634760379791,-0.0152876358479261,0.8828930854797363,0.3424133062362671,-0.0595557428896427,0.821499228477478,0.3736396431922912,-0.0930472761392593,0.7821485996246338,0.414748340845108,-0.1107281967997551,0.9883977174758912,0.4364399313926697,-0.0353884249925613,0.9029511213302612,0.3798195421695709,-0.0764763504266738,0.8337382078170776,0.4077596664428711,-0.0983873009681701,0.7861051559448242,0.4440647661685943,-0.1059951484203338,0.9955211877822876,0.4807505309581756,-0.0566885322332382,0.9067232608795166,0.456018716096878,-0.088073544204235,0.8505391478538513,0.4578680694103241,-0.1042841374874115,0.8079198002815247,0.4665113687515259,-0.1104903891682624
