Timestamp,Index,Frame ID,w,x,y,z,ax,ay,az,x_0,y_0,z_0,x_1,y_1,z_1,x_2,y_2,z_2,x_3,y_3,z_3,x_4,y_4,z_4,x_5,y_5,z_5,x_6,y_6,z_6,x_7,y_7,z_7,x_8,y_8,z_8,x_9,y_9,z_9,x_10,y_10,z_10,x_11,y_11,z_11,x_12,y_12,z_12,x_13,y_13,z_13,x_14,y_14,z_14,x_15,y_15,z_15,x_16,y_16,z_16,x_17,y_17,z_17,x_18,y_18,z_18,x_19,y_19,z_19,x_20,y_20,z_20
2023-08-01 16:06:03.310639,0,669,0.7093790769577026,0.2303043007850647,-0.0704714357852935,0.6624010801315308,-0.42236328125,0.87109375,0.08251953125,0.9156646728515624,0.7049691081047058,-9.24727430628991e-07,0.8316289186477661,0.6151511073112488,-0.0038440437056124,0.7691250443458557,0.5264137983322144,-0.0218613389879465,0.7156040072441101,0.4742642641067505,-0.0463745519518852,0.6822879314422607,0.4197322130203247,-0.0698149129748344,0.8990734219551086,0.3619136810302734,-0.0007404476054944,0.8037476539611816,0.3186993598937988,-0.0469876192510128,0.7366016507148743,0.3413712978363037,-0.0870844647288322,0.6902496814727783,0.3785058856010437,-0.1109273359179496,0.926807463169098,0.3807267844676971,-0.0215497594326734,0.8050220012664795,0.3271369934082031,-0.0650429725646972,0.7350648045539856,0.3692040741443634,-0.0971686094999313,0.692930281162262,0.4143905341625213,-0.114969365298748,0.9399874806404114,0.421470433473587,-0.0466691851615905,0.8257685899734497,0.3695899248123169,-0.0879108682274818,0.7531324625015259,0.4046290814876556,-0.1045940220355987,0.7066537737846375,0.4427985548973083,-0.109121099114418,0.9349130392074584,0.481663167476654,-0.0720981359481811,0.8313391208648682,0.4592364728450775,-0.1063169986009597,0.7718465328216553,0.4684887230396271,-0.1188055127859115,0.7302060127258301,0.481019377708435,-0.1211157515645027
2023-08-01 16:06:03.363766,1,670,0.7100849747657776,0.2275160551071167,-0.0691021084785461,0.6627523303031921,-0.4375,0.87353515625,0.0703125,0.916867733001709,0.7052503228187561,-9.571139116815177e-07,0.832341194152832,0.6162286996841431,-0.0052957064472138,0.76874840259552,0.5261141061782837,-0.0241063181310892,0.7156744599342346,0.4727305471897125,-0.0486604236066341,0.6815717220306396,0.4187368154525757,-0.0724333375692367,0.9009447693824768,0.3585639595985412,-0.0052340356633067,0.8003290891647339,0.3183845281600952,-0.053157415241003,0.7313358783721924,0.3412665128707886,-0.0944616496562957,0.6826750040054321,0.3773539066314697,-0.1189058795571327,0.9278586506843568,0.3783435821533203,-0.0257699079811573,0.8006853461265564,0.3225217461585998,-0.0714246407151222,0.7294426560401917,0.3670459687709808,-0.1052040755748748,0.6861553192138672,0.4136452674865722,-0.1236967295408248,0.9402336478233336,0.4206664860248565,-0.0502867512404918,0.8241841197013855,0.3680399060249328,-0.0941035225987434,0.7512145638465881,0.4055178761482239,-0.1131212636828422,0.7041147947311401,0.4441511332988739,-0.1185589432716369,0.9348598718643188,0.4825255572795868,-0.0748664513230323,0.8297906517982483,0.4610276222229004,-0.1111362800002098,0.770109236240387,0.4711138010025024,-0.1249818205833435,0.7274378538131714,0.483273983001709,-0.127898633480072
2023-08-01 16:06:03.428924,2,671,0.7112030982971191,0.2238591164350509,-0.0683556944131851,0.6628761291503906,-0.42919921875,0.8896484375,0.07275390625,0.9036038517951964,0.7000246047973633,-9.221657251146098e-07,0.8204665780067444,0.6092857122421265,-0.0072836484760046,0.7594785094261169,0.522146999835968,-0.02701779268682,0.7039655447006226,0.4713461101055145,-0.0519668497145175,0.6679869294166565,0.4175494015216827,-0.0757521539926529,0.8885380625724792,0.3550998270511627,-0.0060316985473036,0.789686918258667,0.3173564672470093,-0.0531390272080898,0.722720742225647,0.344221830368042,-0.0935160368680954,0.6771854162216187,0.3799635171890259,-0.1176336780190467,0.9165907502174376,0.373692512512207,-0.025466876104474,0.7917054295539856,0.3202663064002991,-0.070973128080368,0.7218354940414429,0.3675034940242767,-0.1037576794624328,0.6794480085372925,0.4159590303897857,-0.121053859591484,0.9301875233650208,0.4166180193424225,-0.0489709712564945,0.8148184418678284,0.3666638731956482,-0.0930631011724472,0.7422962784767151,0.4060833752155304,-0.1112017482519149,0.694039523601532,0.4451431334018707,-0.1155106425285339,0.925407886505127,0.4794089496135711,-0.072680227458477,0.8200007081031799,0.4646577835083008,-0.1095834746956825,0.7596343755722046,0.474875807762146,-0.1233669593930244,0.7151123285293579,0.4851565957069397,-0.1257214248180389
2023-08-01 16:06:03.489155,3,672,0.7130701541900635,0.2185496240854263,-0.0685501992702484,0.6626219153404236,-0.41162109375,0.88623046875,0.083984375,0.899441123008728,0.701711893081665,-9.392579158884472e-07,0.8158264756202698,0.6133610010147095,-0.0064284959807991,0.7543833255767822,0.525131344795227,-0.0246666967868804,0.7027574777603149,0.4739848971366882,-0.0481259785592556,0.6642739772796631,0.4274325668811798,-0.0709332972764968,0.880797803401947,0.3559741675853729,-0.0071546770632267,0.7827095985412598,0.3193701207637787,-0.0557354018092155,0.7152267098426819,0.3455593883991241,-0.0968039035797119,0.6677654981613159,0.38310506939888,-0.1206601783633232,0.9112458825111388,0.3741141259670257,-0.0270858071744442,0.7875130772590637,0.3220018446445465,-0.0716422125697135,0.7149366140365601,0.3658969104290008,-0.1027596369385719,0.6692973375320435,0.4129419922828674,-0.1191108375787735,0.926113486289978,0.417823851108551,-0.0512784533202648,0.810358464717865,0.3701300919055938,-0.0955064296722412,0.7363700270652771,0.4090017080307007,-0.112156830728054,0.6873295307159424,0.4473141431808471,-0.1153752133250236,0.9214796423912048,0.4827814102172851,-0.0756555274128913,0.8160643577575684,0.467889130115509,-0.1125360429286956,0.7563329935073853,0.4789402186870575,-0.1249420940876007,0.7124394774436951,0.4901480078697204,-0.1262566000223159
2023-08-01 16:06:03.551818,4,673,0.7145180702209473,0.2131624966859817,-0.0674626752734184,0.662928581237793,-0.43310546875,0.876953125,0.072265625,0.8950735330581665,0.7015544176101685,-9.107319556278526e-07,0.8104062080383301,0.6098516583442688,-0.0048407916910946,0.7487258911132812,0.5230426788330078,-0.0238843653351068,0.6946301460266113,0.4725612998008728,-0.0485145188868045,0.6563000679016113,0.4233322441577911,-0.0725143775343895,0.8789163827896118,0.358427345752716,-0.0074775521643459,0.7769543528556824,0.319705605506897,-0.0549294054508209,0.7098615765571594,0.3427075743675232,-0.0948164016008377,0.6641183495521545,0.3762271702289581,-0.118573322892189,0.906807005405426,0.3769826889038086,-0.028622655197978,0.7794449329376221,0.3211004137992859,-0.074428416788578,0.7095350623130798,0.3666435480117798,-0.1056546717882156,0.6663267016410828,0.4143972992897033,-0.1216865703463554,0.9197840094566344,0.4203821718692779,-0.0535412840545177,0.8014459013938904,0.3696984648704529,-0.0985148176550865,0.7299956679344177,0.4101776480674743,-0.1144491508603096,0.6830901503562927,0.4492176473140716,-0.1168547347187995,0.9138739705085754,0.4837710857391357,-0.0784529522061348,0.8068152070045471,0.4692403674125671,-0.1164548844099044,0.7475218176841736,0.479358822107315,-0.1293243914842605,0.7044105529785156,0.4890578687191009,-0.1307026892900467
2023-08-01 16:06:03.634915,5,674,0.7157394289970398,0.2038867324590683,-0.0654143989086151,0.6647316813468933,-0.40673828125,0.8798828125,0.07470703125,0.8885502815246582,0.6992171406745911,-9.36444280341675e-07,0.8037588596343994,0.6112737059593201,-0.0060129882767796,0.7423428297042847,0.5263431072235107,-0.0257073007524013,0.6919339895248413,0.4772804975509643,-0.0505008734762668,0.6527324318885803,0.4345411360263824,-0.0749913230538368,0.8717126846313477,0.356118768453598,-0.0111714173108339,0.7703452110290527,0.3219406604766845,-0.0587688460946083,0.703816831111908,0.3479527831077575,-0.0985704436898231,0.6590993404388428,0.3836023807525635,-0.1223234832286834,0.9011988043785096,0.3752293884754181,-0.0316378585994243,0.7747823596000671,0.3276192545890808,-0.0767626613378524,0.7043963670730591,0.3742561042308807,-0.1075686812400817,0.6604676842689514,0.4210119247436523,-0.1240637749433517,0.9153417348861694,0.4196723103523254,-0.0558640547096729,0.797653317451477,0.3743899464607239,-0.1005416214466095,0.724420428276062,0.4136584401130676,-0.1174116656184196,0.6746886372566223,0.4505636394023895,-0.1213839724659919,0.91107839345932,0.4850229620933532,-0.0800820514559745,0.8051052689552307,0.4728319346904754,-0.1181780993938446,0.7457524538040161,0.483631819486618,-0.1315198242664337,0.7009234428405762,0.4925651550292969,-0.133859246969223
2023-08-01 16:06:03.717473,6,675,0.7171046137809753,0.1936915814876556,-0.0612940415740013,0.6666989922523499,-0.4345703125,0.88134765625,0.0712890625,0.8694514036178589,0.6991187334060669,-9.084239422918472e-07,0.7791571021080017,0.6119513511657715,-0.0079166395589709,0.7160337567329407,0.527822732925415,-0.0272700935602188,0.662128210067749,0.4831253290176391,-0.0512306578457355,0.6210721731185913,0.4461629390716553,-0.0752734541893005,0.8416843414306641,0.3546817898750305,-0.0089866807684302,0.7377735376358032,0.323569118976593,-0.05377197265625,0.6688706874847412,0.3525497913360595,-0.0936566740274429,0.6178790926933289,0.3895577788352966,-0.1180530786514282,0.8717435002326965,0.3706446886062622,-0.0275420602411031,0.743252158164978,0.3280402421951294,-0.0685717761516571,0.6702120304107666,0.3747641444206238,-0.1006837636232376,0.6211265921592712,0.4211958646774292,-0.1194889470934867,0.8852161169052124,0.414557009935379,-0.0498426295816898,0.7675098180770874,0.3708716034889221,-0.0902634337544441,0.691007673740387,0.4093129336833954,-0.1099175959825515,0.6378978490829468,0.4466957151889801,-0.1173204705119133,0.8784621357917786,0.4806876480579376,-0.0723732784390449,0.770663321018219,0.4719362258911133,-0.1077264696359634,0.7082601189613342,0.4829391241073608,-0.122373342514038,0.6608805656433105,0.493408203125,-0.126601904630661
2023-08-01 16:06:03.792429,7,676,0.7187186479568481,0.1842361688613891,-0.0580527670681476,0.6679298877716064,-0.47802734375,0.87109375,0.068359375,0.8571980595588684,0.7029393911361694,-9.921146784108714e-07,0.7683582901954651,0.6161337494850159,0.0013371940003708,0.7054904699325562,0.5281383991241455,-0.0138171361759305,0.6534616351127625,0.4785583317279815,-0.0357255414128303,0.6116654872894287,0.43606898188591,-0.0577762275934219,0.8318725824356079,0.3538339734077453,-0.0025973403826355,0.7276339530944824,0.3201181590557098,-0.0481581650674343,0.6579172611236572,0.3488954305648803,-0.087594449520111,0.6085582971572876,0.3875734508037567,-0.1113255843520164,0.8608682155609131,0.3717598021030426,-0.0263028070330619,0.7331723570823669,0.3311251699924469,-0.0671388283371925,0.6602662801742554,0.3764272332191467,-0.096981756389141,0.6125508546829224,0.4211976528167724,-0.1145052090287208,0.8736528754234314,0.4160386025905609,-0.053591813892126,0.7525007724761963,0.3771843910217285,-0.0937291085720062,0.6777757406234741,0.4160317778587341,-0.1104092374444007,0.6262560486793518,0.4516003131866455,-0.1162220761179924,0.8672841787338257,0.4821586012840271,-0.0805809721350669,0.7556840777397156,0.4723555147647857,-0.1153142899274826,0.6927830576896667,0.4841799139976501,-0.1282196193933487,0.6461308002471924,0.4944901466369629,-0.1316319108009338
2023-08-01 16:06:03.863715,8,677,0.7193551659584045,0.1748231798410415,-0.0542799532413482,0.6700885891914368,-0.474609375,0.8759765625,0.13720703125,0.8519787788391113,0.7010586261749268,-9.902021247398809e-07,0.759368360042572,0.6135570406913757,0.0003258004726376,0.6945502758026123,0.5279645323753357,-0.0163869466632604,0.6416828632354736,0.480202704668045,-0.0393136255443096,0.5980820655822754,0.440264344215393,-0.0627708211541175,0.8225165605545044,0.3487767875194549,-0.0068363426253199,0.7113165259361267,0.3206739425659179,-0.0533882938325405,0.6401271820068359,0.3480050563812256,-0.0931852757930755,0.5888918042182922,0.383732408285141,-0.1168415769934654,0.8513087034225464,0.3662645220756531,-0.0303244721144437,0.7172402739524841,0.3274725675582886,-0.0704513192176818,0.642304003238678,0.3707899451255798,-0.0993358865380287,0.5922526121139526,0.4135893583297729,-0.1165331155061721,0.8628300428390503,0.4120001196861267,-0.0572009831666946,0.7383351922035217,0.3751177191734314,-0.0970794111490249,0.6629064679145813,0.4128357172012329,-0.1129829734563827,0.610362708568573,0.4463343620300293,-0.1185655742883682,0.854888916015625,0.4799235761165619,-0.0837917700409889,0.7434417605400085,0.4737943410873413,-0.1184200495481491,0.6810536980628967,0.4863576591014862,-0.1303734630346298,0.6337448358535767,0.4959434568881988,-0.1331058740615844
2023-08-01 16:06:03.929898,9,678,0.7187385559082031,0.1695595681667328,-0.0562458969652652,0.6719381213188171,-0.3779296875,0.8681640625,0.1220703125,0.8104560971260071,0.6941948533058167,-9.098385476136172e-07,0.7113465070724487,0.6064212322235107,-0.0013054796727374,0.647152304649353,0.5188598036766052,-0.0193790215998888,0.5979309678077698,0.4676817059516907,-0.0433362051844596,0.5629631280899048,0.4284406006336212,-0.0685540810227394,0.7736046314239502,0.3459165096282959,-0.0092382170259952,0.660304844379425,0.3118773698806762,-0.0555431321263313,0.5889719724655151,0.3426762819290161,-0.0951673910021781,0.5394210815429688,0.3808739781379699,-0.1194892600178718,0.8017423748970032,0.3635275959968567,-0.0328069254755973,0.665631115436554,0.3101352453231811,-0.0769579038023948,0.5906733870506287,0.3602422475814819,-0.1088901609182357,0.5423339605331421,0.4121512770652771,-0.1270817369222641,0.8129611015319824,0.4088782370090484,-0.0595416724681854,0.6858428716659546,0.3539742231369018,-0.102404698729515,0.6088118553161621,0.3985817730426788,-0.1220886707305908,0.557281494140625,0.4407731890678406,-0.1292890459299087,0.8063864707946777,0.4775047600269317,-0.0858411714434623,0.6906877160072327,0.4686343371868133,-0.1243317797780036,0.6264470815658569,0.4799478650093078,-0.1411261707544326,0.5788107514381409,0.4888339042663574,-0.1469018310308456
2023-08-01 16:06:03.986661,10,679,0.7195342779159546,0.1629924029111862,-0.0540169738233089,0.672893762588501,-0.44873046875,0.88671875,0.07421875,0.7794426083564758,0.6884902715682983,-9.127141424869478e-07,0.664604663848877,0.5977336168289185,0.0013022284256294,0.595303475856781,0.5111356973648071,-0.0166829396039247,0.5434304475784302,0.4559381008148193,-0.0404977202415466,0.5120126605033875,0.4130276143550873,-0.0644725337624549,0.7355835437774658,0.3416613340377807,-0.0128916492685675,0.6131831407546997,0.3002025485038757,-0.0553382560610771,0.5405740737915039,0.3391707241535187,-0.0907632559537887,0.4947308003902435,0.3852545917034149,-0.1128846704959869,0.7568970918655396,0.3584807515144348,-0.0360127352178096,0.6091064214706421,0.3017209768295288,-0.0763677582144737,0.5336771607398987,0.3556342124938965,-0.1040952652692794,0.4883396029472351,0.4113128185272217,-0.1208889558911323,0.7605997323989868,0.4016746878623962,-0.0612221285700798,0.620288610458374,0.3490769267082214,-0.0975881367921829,0.5434226393699646,0.3937148153781891,-0.1132961958646774,0.4936409890651703,0.4376585185527801,-0.1202557384967804,0.746381938457489,0.46865114569664,-0.0860999450087547,0.6265953779220581,0.4623706936836242,-0.1185150370001792,0.5596679449081421,0.4724970459938049,-0.1333882957696914,0.51029372215271,0.4813919365406036,-0.1395643949508667
2023-08-01 16:06:04.050921,11,680,0.7207838892936707,0.1556214392185211,-0.0526764132082462,0.6734075546264648,-0.46533203125,0.88427734375,0.10498046875,0.7620217204093933,0.690303385257721,-1.027067355607869e-06,0.6521559953689575,0.593622088432312,0.0122148273512721,0.585593581199646,0.5097917318344116,-0.0015978257870301,0.5330052971839905,0.4555332958698272,-0.0232482012361288,0.5006942749023438,0.4106968641281128,-0.0456102527678012,0.7248204946517944,0.3321142196655273,-0.0045681637711822,0.5991796851158142,0.3022317886352539,-0.0419539250433445,0.5265169143676758,0.3431679010391235,-0.0743061155080795,0.4827094674110412,0.3891059160232544,-0.0949492305517196,0.7425158619880676,0.3482126593589782,-0.0312617793679237,0.594846785068512,0.303238034248352,-0.0653285458683967,0.5224742889404297,0.3587910532951355,-0.0907514467835426,0.4770008623600006,0.4152038693428039,-0.1077687516808509,0.7442092299461365,0.3923171758651733,-0.0586269535124301,0.6044043898582458,0.3508785665035248,-0.0896227806806564,0.5313680768013,0.3975714445114136,-0.1036349460482597,0.4811560809612274,0.442225307226181,-0.1115044727921485,0.7284795641899109,0.4604536294937134,-0.0846533775329589,0.6110905408859253,0.4551049470901489,-0.1126346290111541,0.5472903251647949,0.4680720567703247,-0.1249022036790847,0.4980920255184173,0.4789741635322571,-0.1307147890329361
2023-08-01 16:06:04.114072,12,681,0.7219104766845703,0.1455594599246978,-0.0541051961481571,0.6743369698524475,-0.4169921875,0.85302734375,0.189453125,0.7507138848304749,0.6908912658691406,-1.0112376003235113e-06,0.6415412425994873,0.5934255719184875,0.0177202671766281,0.5766301155090332,0.507843554019928,0.0063773500733077,0.5243100523948669,0.4541632831096649,-0.013586526736617,0.4878446459770202,0.4112060070037842,-0.0350249446928501,0.7125911116600037,0.3349502682685852,0.0009513664408586,0.5880721807479858,0.3079724609851837,-0.0350710116326808,0.5141879916191101,0.3440924286842346,-0.0676461085677146,0.4672317802906036,0.3849083483219147,-0.0888561159372329,0.7298284769058228,0.3496339321136474,-0.0286450963467359,0.5836237668991089,0.3046208620071411,-0.059884425252676,0.5095464587211609,0.3551995158195495,-0.0834350064396858,0.4615047574043274,0.4089244902133941,-0.099654845893383,0.729744017124176,0.3942595720291137,-0.0587414689362049,0.5916027426719666,0.3478992581367492,-0.087760329246521,0.5172972083091736,0.3895260095596313,-0.100174531340599,0.4652915894985199,0.4296653568744659,-0.1076538041234016,0.7116959095001221,0.463728129863739,-0.0871756076812744,0.5947054624557495,0.4601319432258606,-0.1145235002040863,0.5311945676803589,0.4707211852073669,-0.1259198784828186,0.4817724823951721,0.4778016805648803,-0.1314463466405868
2023-08-01 16:06:04.172997,13,682,0.7240158915519714,0.1376688629388809,-0.0531143546104431,0.6738153696060181,-0.46923828125,0.85205078125,0.1796875,0.7401255369186401,0.6861833930015564,-9.843851103141787e-07,0.6288326382637024,0.5922237634658813,0.0165382828563451,0.5647254586219788,0.5055148601531982,0.0043674521148204,0.5125599503517151,0.4527468681335449,-0.0154794063419103,0.4741935133934021,0.4123159646987915,-0.0371955409646034,0.6983271241188049,0.3324046730995178,-0.0056854011490941,0.5695521831512451,0.3064808547496795,-0.0407379791140556,0.4971482753753662,0.345624029636383,-0.0710486993193626,0.4558043479919433,0.3870529532432556,-0.0911366492509841,0.7162125706672668,0.3473403751850128,-0.0347029753029346,0.5665560364723206,0.300983190536499,-0.0666933432221412,0.4937837719917297,0.3541156351566314,-0.0893279016017913,0.4501627385616302,0.4094797968864441,-0.1048348024487495,0.7163585424423218,0.3935947716236114,-0.0637345165014267,0.5765079259872437,0.345414251089096,-0.0941229313611984,0.5009968876838684,0.3874543607234955,-0.1078820452094078,0.4500747919082641,0.4280754029750824,-0.1163504868745803,0.6984596848487854,0.4646003246307373,-0.0907538458704948,0.5797816514968872,0.4646457433700561,-0.1201044395565986,0.5157968401908875,0.4755049049854278,-0.1336946189403534,0.4672364294528961,0.4807580411434173,-0.1409646421670913
2023-08-01 16:06:04.238796,14,683,0.7266351580619812,0.1304080933332443,-0.0512748770415782,0.6725816130638123,-0.47021484375,0.85009765625,0.1513671875,0.7263485193252563,0.6859675645828247,-9.79204287432367e-07,0.6174473166465759,0.5922702550888062,0.0178362540900707,0.5502986311912537,0.5050690174102783,0.0054400810040533,0.4947488903999328,0.4525918066501617,-0.015033752657473,0.4501222372055053,0.4127769768238067,-0.0377995558083057,0.6826096773147583,0.3304677307605743,-0.0086962217465043,0.5517611503601074,0.304891437292099,-0.0436023697257041,0.4792026877403259,0.344734787940979,-0.0728855803608894,0.4358949661254883,0.3878836035728454,-0.0921889469027519,0.6984018087387085,0.3474051058292389,-0.0385810285806655,0.5477951765060425,0.3020356893539428,-0.0712741613388061,0.4749615788459778,0.35574871301651,-0.0942060798406601,0.430043488740921,0.4118806421756744,-0.1099996194243431,0.6967049837112427,0.3963363468647003,-0.0679370984435081,0.5545045137405396,0.346429169178009,-0.0985878556966781,0.4801254868507385,0.3910525441169739,-0.1127139627933502,0.4300737679004669,0.4344638288021087,-0.1215672641992569,0.6776776313781738,0.4700248539447784,-0.0950431227684021,0.5607035756111145,0.4665813744068146,-0.1255174130201339,0.4965784549713135,0.4767877757549286,-0.1402492821216583,0.4476077258586883,0.4831884503364563,-0.1482299566268921
2023-08-01 16:06:04.302763,15,684,0.7282127737998962,0.1244318187236785,-0.0498376339673996,0.6721153855323792,-0.4345703125,0.8662109375,0.12890625,0.6623762249946594,0.6850294470787048,-8.765930488152662e-07,0.5467909574508667,0.602918267250061,0.0197115559130907,0.4836477935314178,0.5157350301742554,0.0090343439951539,0.4279753267765045,0.4638973474502563,-0.0098014213144779,0.3794325590133667,0.4288766384124756,-0.0320091359317302,0.609653651714325,0.3332898020744324,-0.0086643826216459,0.4708159863948822,0.296044260263443,-0.0375459343194961,0.3952465951442718,0.3339939713478088,-0.0616169869899749,0.3501154482364654,0.3772412836551666,-0.0776869282126426,0.620532751083374,0.3495113551616668,-0.0371404252946376,0.4613462090492248,0.2969047725200653,-0.0612039007246494,0.3866332471370697,0.3465655744075775,-0.0780593454837799,0.3414869010448456,0.3992069363594055,-0.0916969925165176,0.613070547580719,0.3974738717079162,-0.0646427348256111,0.4621371030807495,0.3450134098529815,-0.0889908745884895,0.3895967304706573,0.3921410143375397,-0.1007585823535919,0.3435295820236206,0.4375410079956054,-0.1094817221164703,0.5921047329902649,0.467516541481018,-0.0898528471589088,0.4738499522209167,0.4591146409511566,-0.1164277642965316,0.4091536700725555,0.4757014811038971,-0.1298581659793853,0.3607924580574035,0.4914020597934723,-0.1377417892217636
2023-08-01 16:06:04.368052,16,685,0.7298648357391357,0.1185193732380867,-0.0493658632040023,0.6714263558387756,-0.4404296875,0.8564453125,0.171875,0.6510038375854492,0.6925666332244873,-9.446795274925536e-07,0.5408536195755005,0.609114944934845,0.0222081542015075,0.4734751582145691,0.5227219462394714,0.0107827112078666,0.4112853705883026,0.4711436033248901,-0.0095937205478549,0.3569672107696533,0.4352287352085113,-0.0323102883994579,0.6004173755645752,0.3343349397182464,-0.0085438750684261,0.461896151304245,0.287562608718872,-0.0402125865221023,0.3840827345848083,0.3220513463020324,-0.064896285533905,0.3407386541366577,0.3651272654533386,-0.0803151652216911,0.6105857491493225,0.3512742519378662,-0.0382820181548595,0.4501051902770996,0.2950854301452636,-0.0652343705296516,0.3761607110500335,0.346150279045105,-0.0818497315049171,0.3356354236602783,0.4049265682697296,-0.0944326072931289,0.6024030447006226,0.3998398184776306,-0.0668588355183601,0.450067937374115,0.3481298685073852,-0.090026743710041,0.3782631754875183,0.3970817625522613,-0.0980995073914527,0.334879457950592,0.4466425478458404,-0.1048272103071212,0.5766714215278625,0.4708293080329895,-0.0932751968502998,0.4584518074989319,0.4650782346725464,-0.1161264926195144,0.3954992294311523,0.4817225635051727,-0.1264298260211944,0.3497335910797119,0.4968740344047546,-0.132731944322586
2023-08-01 16:06:04.424823,17,686,0.7315739989280701,0.1136849299073219,-0.0509229265153408,0.670285165309906,-0.4443359375,0.8662109375,0.193359375,0.623832643032074,0.69016432762146,-9.768476729732356e-07,0.5022658705711365,0.604161262512207,0.022979874163866,0.4377324879169464,0.5182502269744873,0.0124507499858737,0.3772324323654175,0.4644453525543213,-0.0072664264589548,0.3252243101596832,0.426248550415039,-0.0292638856917619,0.5714951157569885,0.331184059381485,-0.0097176413983106,0.4333102107048034,0.2832289934158325,-0.0405342690646648,0.3574066460132599,0.330984503030777,-0.0629133358597755,0.3205481171607971,0.3811357617378235,-0.0767963156104087,0.5822277069091797,0.3482535779476166,-0.0391771644353866,0.419056624174118,0.2916256785392761,-0.0657331794500351,0.3447548151016235,0.3483059406280517,-0.0804659575223922,0.3071848154067993,0.408577561378479,-0.0915942788124084,0.5731698274612427,0.3971600234508514,-0.0675203576683998,0.4156944155693054,0.3492281436920166,-0.0910181552171707,0.3418048620223999,0.398179829120636,-0.0992534235119819,0.2984046936035156,0.4461853802204132,-0.1059703454375267,0.5462750792503357,0.4685557186603546,-0.093541495501995,0.4255400002002716,0.464507520198822,-0.1163923591375351,0.3591963946819305,0.480611115694046,-0.1276959776878357,0.3107973039150238,0.4947828352451324,-0.1347873657941818
2023-08-01 16:06:04.485927,18,687,0.7328481674194336,0.1098305135965347,-0.0476358160376548,0.6697772741317749,-0.52294921875,0.8857421875,0.11767578125,0.6187757253646851,0.6908293962478638,-1.0210144409938948e-06,0.5034596920013428,0.6134343147277832,0.024575525894761,0.4365408420562744,0.5302044153213501,0.0155310472473502,0.3748011887073517,0.4809760451316833,-0.002217915141955,0.3204622268676758,0.4484301805496216,-0.0226811114698648,0.562512218952179,0.336974024772644,-0.0126981446519494,0.4234557151794433,0.2860188484191894,-0.0412744060158729,0.3495658040046692,0.3287513554096222,-0.0596985146403312,0.3132705092430115,0.376856118440628,-0.0704206004738807,0.5695446133613586,0.3560957312583923,-0.040486317127943,0.4018457233905792,0.3075340986251831,-0.0659667775034904,0.3305748701095581,0.3649021089076996,-0.0770932137966156,0.2960169315338135,0.4239203333854675,-0.0857458189129829,0.5585530400276184,0.4056437313556671,-0.0667378678917884,0.3981205224990845,0.3645714819431305,-0.0897881537675857,0.3285498023033142,0.4107021391391754,-0.0946489721536636,0.2888485491275787,0.4550455212593078,-0.0991221889853477,0.5315394997596741,0.474952757358551,-0.0903766453266143,0.4159132540225982,0.4641372263431549,-0.1120241582393646,0.3530041575431824,0.4761552214622497,-0.1206975802779197,0.3066473007202148,0.4857209324836731,-0.1262123584747314
2023-08-01 16:06:04.545997,19,688,0.7324031591415405,0.1044021844863891,-0.0485160872340202,0.6710677742958069,-0.4931640625,0.828125,0.17529296875,0.6117355227470398,0.6937004923820496,-1.0659002782631433e-06,0.4927769601345062,0.6155847311019897,0.0265600122511386,0.4245425164699554,0.5330759882926941,0.0186857357621192,0.3608254194259643,0.4852090179920196,0.0014315574662759,0.3053970336914062,0.454227477312088,-0.0183643978089094,0.5513151288032532,0.3350479900836944,-0.0104118809103965,0.4071110486984253,0.2889499962329864,-0.039016705006361,0.3340090215206146,0.3409236967563629,-0.0577101781964302,0.3009005188941955,0.3966864347457886,-0.0688153281807899,0.5579015016555786,0.3535327911376953,-0.0398197285830974,0.3883382678031921,0.3061464726924896,-0.0650961026549339,0.3186018466949463,0.3671787083148956,-0.0755404308438301,0.285483568906784,0.4317170977592468,-0.0834996178746223,0.5467807054519653,0.4052944779396057,-0.0676894187927246,0.3830852806568146,0.3646489381790161,-0.0913056060671806,0.3162537217140198,0.4149017333984375,-0.0948692709207534,0.279273509979248,0.4626821875572204,-0.097995638847351,0.5193830132484436,0.4796075522899627,-0.0929077565670013,0.3996286392211914,0.4693922996520996,-0.1179728507995605,0.3346655666828155,0.4804201126098633,-0.1279658377170562,0.2869799435138702,0.4885922968387604,-0.1335499584674835
2023-08-01 16:06:04.608298,20,689,0.7319420576095581,0.1006414890289306,-0.0484215803444385,0.6721514463424683,-0.4345703125,0.84130859375,0.19287109375,0.6037948131561279,0.6962398290634155,-1.0901239875238389e-06,0.4879104495048523,0.616059422492981,0.0297175906598567,0.4184992611408233,0.5355168581008911,0.0218488313257694,0.3518735766410827,0.491338163614273,0.0035966199357062,0.2937608957290649,0.4622582793235779,-0.0176025759428739,0.543205976486206,0.3356193900108337,-0.0053155729547142,0.3996376991271972,0.2969797253608703,-0.0337858274579048,0.3248571157455444,0.3506196141242981,-0.0541098713874816,0.2886192202568054,0.4068077206611633,-0.066753014922142,0.5490851402282715,0.351049929857254,-0.0373289138078689,0.3799560070037842,0.3045663833618164,-0.0623274780809879,0.3081479668617248,0.3679065406322479,-0.0750954374670982,0.2723270058631897,0.434657335281372,-0.0853064954280853,0.5377820134162903,0.4014304280281067,-0.0675651580095291,0.376147985458374,0.3600674867630005,-0.0899301096796989,0.3081033527851105,0.412537932395935,-0.094639167189598,0.2691172957420349,0.4624974131584167,-0.099405936896801,0.5104520916938782,0.4751811623573303,-0.0949679911136627,0.3898126184940338,0.4671896994113922,-0.1188561990857124,0.3247043490409851,0.4817276298999786,-0.1285355687141418,0.2763890027999878,0.493114024400711,-0.1345614641904831
2023-08-01 16:06:04.673684,21,690,0.7322149276733398,0.0976852998137474,-0.0487779006361961,0.672264575958252,-0.46484375,0.83837890625,0.18603515625,0.5908759832382202,0.692889928817749,-1.0334273383705297e-06,0.4739578366279602,0.6129387617111206,0.0275279581546783,0.405735969543457,0.5331069231033325,0.0178230106830596,0.3393972516059875,0.4888289272785187,-0.0013210156466811,0.2805209755897522,0.4635478854179382,-0.0232394319027662,0.5347442626953125,0.3339530229568481,-0.0134086078032851,0.3899081349372864,0.2928566932678222,-0.0432090759277343,0.3148919641971588,0.3459783792495727,-0.063392736017704,0.2784751653671264,0.4030958414077759,-0.076212577521801,0.5399012565612793,0.3500954806804657,-0.0445077531039714,0.3689920902252197,0.3000204563140869,-0.0709084719419479,0.2963743507862091,0.359880268573761,-0.0837145969271659,0.259346067905426,0.4248925745487213,-0.0943602845072746,0.5277357697486877,0.4021336138248443,-0.0735288187861442,0.3617470264434814,0.3585115075111389,-0.0976188331842422,0.2907600402832031,0.409578412771225,-0.1034693643450737,0.2498767226934433,0.4585418105125427,-0.10935989767313,0.4992044866085052,0.4770845770835876,-0.0996020063757896,0.3764172494411468,0.4679785072803497,-0.1267667561769485,0.3083683848381042,0.4822331666946411,-0.1390704959630966,0.2584065496921539,0.4936266541481018,-0.1469236761331558
2023-08-01 16:06:04.734836,22,691,0.7323775291442871,0.0962248146533966,-0.0478834733366966,0.6723624467849731,-0.42578125,0.8828125,0.14306640625,0.5605912208557129,0.6880441308021545,-1.0315936833649175e-06,0.4385419189929962,0.6005387306213379,0.0354555435478687,0.3684767186641693,0.5187909603118896,0.0322434678673744,0.3005059361457824,0.4748919606208801,0.0175722334533929,0.2451397031545639,0.4485976696014404,1.6184101696126163e-05,0.5007625222206116,0.324674904346466,0.0049177971668541,0.3627838790416717,0.2918497622013092,-0.0163919422775506,0.2897877693176269,0.3433318436145782,-0.0330005995929241,0.2495135962963104,0.3953939080238342,-0.0444296821951866,0.5081692934036255,0.3383821249008178,-0.0282662082463502,0.3431053459644317,0.3007127642631531,-0.0461135730147361,0.2700657844543457,0.3567571640014648,-0.0584858283400535,0.2286371141672134,0.4156463146209717,-0.0703556910157203,0.4975435137748718,0.386989414691925,-0.0590815544128418,0.3350160717964172,0.3561171591281891,-0.075102761387825,0.2622959613800049,0.403335690498352,-0.0825549140572547,0.215961143374443,0.4491516649723053,-0.0912776365876197,0.4706928730010986,0.4608660042285919,-0.0867208316922187,0.3461249768733978,0.4594587087631225,-0.1063823029398918,0.2784168124198913,0.4774346053600311,-0.1176810562610626,0.226740762591362,0.4940097630023956,-0.1259958893060684
2023-08-01 16:06:04.798729,23,692,0.7320682406425476,0.0946425199508667,-0.0470192991197109,0.6729844808578491,-0.4560546875,0.853515625,0.12841796875,0.5557811260223389,0.6874567270278931,-1.0312893437003368e-06,0.4381124377250671,0.5982556343078613,0.0352764874696731,0.3647473752498626,0.520127534866333,0.0297332573682069,0.2945505976676941,0.480845183134079,0.0129447598010301,0.2398755699396133,0.4539374709129333,-0.0070034903474152,0.4964253306388855,0.3272759914398193,0.0017083873972296,0.3492268323898315,0.3028931617736816,-0.018841003999114,0.2773148417472839,0.3536654114723205,-0.0355276130139827,0.2375892102718353,0.4057414829730987,-0.0472227148711681,0.4998482167720794,0.3418034017086029,-0.031374242156744,0.3301540613174438,0.3044303655624389,-0.0476813800632953,0.2590006291866302,0.3586776852607727,-0.0607952810823917,0.2192974090576172,0.4195809066295624,-0.0742165595293045,0.4873123466968536,0.3903547525405884,-0.0612794533371925,0.3258880972862243,0.3547147214412689,-0.0762212574481964,0.2566069960594177,0.4025663733482361,-0.0835737437009811,0.2141039818525314,0.4515204727649688,-0.0928694531321525,0.4592902660369873,0.4622894525527954,-0.0878109484910965,0.3367930948734283,0.4592585265636444,-0.1082075238227844,0.2730517387390136,0.478366881608963,-0.1185854524374008,0.2257385402917862,0.4973010420799255,-0.1261631101369857
2023-08-01 16:06:04.865380,24,693,0.7316036224365234,0.0926905572414398,-0.047150332480669,0.673751711845398,-0.4716796875,0.84130859375,0.1865234375,0.5494163036346436,0.6769770383834839,-1.0097759286509245e-06,0.4298867583274841,0.5921950340270996,0.0335837937891483,0.3592567443847656,0.5167453289031982,0.0266725793480873,0.2911989688873291,0.4782698154449463,0.0083568589761853,0.2348472476005554,0.4548171162605285,-0.0131228081881999,0.4861510992050171,0.3202211260795593,0.0008823233074508,0.3430812954902649,0.2991630136966705,-0.0212932862341403,0.2711701095104217,0.3518460690975189,-0.0396942719817161,0.2309902906417846,0.4048050940036773,-0.0527342334389686,0.4932092428207397,0.3341697454452514,-0.0327818542718887,0.3271228671073913,0.3016794919967651,-0.0504084788262844,0.2569769620895386,0.3560650944709778,-0.0636146590113639,0.2171109467744827,0.4166511297225952,-0.0770467668771743,0.4832907915115356,0.3845844268798828,-0.0637715980410575,0.3238931000232696,0.3514842391014099,-0.0801334306597709,0.2546473443508148,0.3988623023033142,-0.0862123295664787,0.2111526429653167,0.4472315907478332,-0.0945146307349205,0.4574023187160492,0.4594569802284241,-0.0917378216981887,0.3338444828987121,0.4602168500423431,-0.1137458086013794,0.2694045901298523,0.4788542687892914,-0.1239921674132347,0.2215159833431244,0.4965131878852844,-0.1313146650791168
2023-08-01 16:06:04.924769,25,694,0.7311047315597534,0.0915378853678703,-0.0465210303664207,0.6744942665100098,-0.451171875,0.8369140625,0.1904296875,0.5390009880065918,0.6700141429901123,-1.0106384706887184e-06,0.4206338822841644,0.5864538550376892,0.0322474166750907,0.3514902293682098,0.509737491607666,0.0268653277307748,0.2846052646636963,0.4681798815727234,0.011026794090867,0.2286921441555023,0.4427678883075714,-0.0076112276874482,0.4778655767440796,0.3149162232875824,-0.0024585556238889,0.3306524455547333,0.2966897487640381,-0.0231506619602441,0.2591564059257507,0.3526827991008758,-0.0384019054472446,0.2216075956821441,0.4063263237476349,-0.0492495596408844,0.4847869873046875,0.3272370100021362,-0.034288365393877,0.3164339959621429,0.2950237989425659,-0.0523752383887767,0.2469582706689834,0.3508806526660919,-0.0632437914609909,0.2086532860994339,0.412242442369461,-0.074075162410736,0.4742308259010315,0.3763827681541443,-0.0631991028785705,0.3122516870498657,0.345714658498764,-0.0813173949718475,0.2428639680147171,0.3950782418251037,-0.0870516896247863,0.1996900290250778,0.4434184432029724,-0.0940965861082077,0.4469228386878967,0.4510336816310882,-0.0888821259140968,0.3237588107585907,0.4546932578086853,-0.1131760030984878,0.2597450315952301,0.4759143590927124,-0.1244161203503608,0.2123725563287735,0.4952187240123749,-0.1316183507442474
2023-08-01 16:06:04.983497,26,695,0.7308226227760315,0.0912581458687782,-0.0459758900105953,0.6748752593994141,-0.45654296875,0.84033203125,0.181640625,0.5390628576278687,0.66898113489151,-1.0200870974585996e-06,0.4237679243087768,0.5807220339775085,0.03808518871665,0.3517346680164337,0.5063103437423706,0.033760730177164,0.2829909324645996,0.4674316048622131,0.0181531999260187,0.2274187952280044,0.444079041481018,-0.0008508137543685,0.4747733175754547,0.3164689540863037,2.852501165762078e-05,0.3290585279464721,0.2984156012535095,-0.0169248916208744,0.2590360641479492,0.3533630073070526,-0.0297799594700336,0.22179014980793,0.4065270721912384,-0.0397133640944957,0.480326235294342,0.3275577425956726,-0.0345315560698509,0.3125485479831695,0.2933432757854461,-0.0478507541120052,0.2440018504858017,0.3494495153427124,-0.0570231825113296,0.2069271504878997,0.4120666086673736,-0.0680785179138183,0.4696272015571594,0.3763326406478882,-0.0652013421058654,0.308061271905899,0.3426840305328369,-0.0782150104641914,0.2398553192615509,0.3925761580467224,-0.0830059945583343,0.1979474127292633,0.4419420063495636,-0.0912675932049751,0.4427416920661926,0.4516482353210449,-0.0921529829502105,0.3192067146301269,0.4535203576087951,-0.1127985641360282,0.2562870681285858,0.4743505716323852,-0.1224689185619354,0.2101311236619949,0.4934651255607605,-0.1297758370637893
2023-08-01 16:06:05.038679,27,696,0.730868399143219,0.093243807554245,-0.0463628433644771,0.6745274662971497,-0.48486328125,0.85302734375,0.19189453125,0.5403878688812256,0.6713590025901794,-1.0694768661778653e-06,0.4271604120731354,0.5855474472045898,0.0479614064097404,0.3568599224090576,0.5102139711380005,0.0487572327256202,0.2896813154220581,0.466919481754303,0.0364134237170219,0.2355394512414932,0.4415121376514435,0.0201122388243675,0.4746727347373962,0.3178575038909912,0.0091854026541113,0.3288092613220215,0.2977585196495056,-0.0031472921837121,0.2601234316825866,0.3528524935245514,-0.0118102617561817,0.2251301109790802,0.4061026871204376,-0.0187663808465003,0.4787361621856689,0.3279775381088257,-0.0286418031901121,0.3108713030815124,0.2934441864490509,-0.0378778614103794,0.2418993711471557,0.3477376997470855,-0.04350121691823,0.205638974905014,0.4104968011379242,-0.0522459298372268,0.4668296873569488,0.3765255510807037,-0.0618253499269485,0.3034657835960388,0.3453525900840759,-0.0706588849425315,0.2361010015010833,0.3948866724967956,-0.0724008157849311,0.1959625631570816,0.4429910182952881,-0.0793669149279594,0.4392860233783722,0.4518699944019317,-0.0906183049082756,0.3143928647041321,0.4524224698543548,-0.1074621528387069,0.2519159913063049,0.4740358591079712,-0.1149777173995971,0.2062031030654907,0.492699384689331,-0.1213538646697998
2023-08-01 16:06:05.099658,28,697,0.7305822372436523,0.0976921617984771,-0.0480909124016761,0.67408686876297,-0.43994140625,0.8525390625,0.18603515625,0.5394420623779297,0.6749541759490967,-1.0562691841187188e-06,0.4234069883823395,0.5908434391021729,0.0414983481168746,0.3518470227718353,0.5118001699447632,0.0402420796453952,0.2824137508869171,0.4699481427669525,0.027004737406969,0.2262050360441208,0.4471436440944671,0.0103023946285247,0.4742324948310852,0.3180241882801056,0.0063230642117559,0.3261128067970276,0.2967931032180786,-0.0079528465867042,0.2558794617652893,0.3517119288444519,-0.0187330357730388,0.2202877402305603,0.4054575562477112,-0.0270340032875537,0.4797071516513824,0.3290942013263702,-0.0284538269042968,0.3104954361915588,0.2935823798179626,-0.0394986346364021,0.2410869598388672,0.3497288227081299,-0.047306016087532,0.2045119404792785,0.4126710891723633,-0.0573681928217411,0.4684678614139557,0.3774707615375519,-0.0592604130506515,0.3052777349948883,0.3431404232978821,-0.0702941790223121,0.2371336072683334,0.3943774402141571,-0.0744320824742317,0.1965590417385101,0.4450050890445709,-0.0823144391179084,0.4403438568115234,0.4517207443714142,-0.0861345753073692,0.3165306448936462,0.4508466720581054,-0.1047423705458641,0.2542343735694885,0.4732449054718017,-0.1139878779649734,0.2088314890861511,0.4945051372051239,-0.1211983859539032
2023-08-01 16:06:05.166080,29,698,0.7300368547439575,0.1018801406025886,-0.0485431924462318,0.6740253567695618,-0.48681640625,0.8642578125,0.169921875,0.5470176935195923,0.6782330870628357,-1.0673106771719176e-06,0.4310283660888672,0.5947163701057434,0.0396442264318466,0.3602465987205505,0.5140411853790283,0.0370293036103248,0.2956582605838775,0.4683674275875091,0.0226452685892581,0.2438029497861862,0.436602771282196,0.0052418890409171,0.4849104583263397,0.3191112875938415,0.0031402620952576,0.3431336581707001,0.2942768335342407,-0.0147848613560199,0.2726678848266601,0.3455281555652618,-0.0284924004226923,0.2338733077049255,0.3970527648925781,-0.038342036306858,0.488317996263504,0.3342669606208801,-0.0314855054020881,0.3231939971446991,0.2986418008804321,-0.0455844663083553,0.2523711919784546,0.3516293168067932,-0.0551586523652076,0.2123903930187225,0.4118020534515381,-0.0665321052074432,0.4756486415863037,0.3847707509994507,-0.0626916959881782,0.3142239451408386,0.3547139465808868,-0.0759579986333847,0.2458274960517883,0.3992333114147186,-0.0804574787616729,0.2042098939418792,0.4443375766277313,-0.0887236446142196,0.4481194615364074,0.4583725333213806,-0.0902901664376258,0.3231527209281921,0.4539257287979126,-0.1094081327319145,0.2583820223808288,0.4722503423690796,-0.1187190786004066,0.2105231881141662,0.4891633987426758,-0.126485988497734
2023-08-01 16:06:05.221933,30,699,0.7290114760398865,0.1065212115645408,-0.0515930466353893,0.6741910576820374,-0.46484375,0.85009765625,0.193359375,0.5524990558624268,0.6779711246490479,-1.0368646599090423e-06,0.4356271922588348,0.5930089354515076,0.0378309972584247,0.3616315424442291,0.5169137716293335,0.0322466902434825,0.2940876185894012,0.4770103394985199,0.0153163634240627,0.2433768212795257,0.4487316012382507,-0.0047441404312849,0.4911631047725677,0.3185092508792877,-0.0032196100801229,0.3474248647689819,0.2968421280384063,-0.0230445880442857,0.2772224545478821,0.3528689742088318,-0.0380061976611614,0.239469289779663,0.4083149135112762,-0.0494191497564315,0.4956285953521728,0.3327596783638,-0.0388011746108531,0.3267015516757965,0.2965642809867859,-0.0557544790208339,0.2575773000717163,0.3531670570373535,-0.0669851675629615,0.2202257364988327,0.416190892457962,-0.0795362815260887,0.4839223623275757,0.3843627274036407,-0.0705927312374115,0.3214957416057586,0.3505144119262695,-0.0863067507743835,0.2526515126228332,0.3981928527355194,-0.0914089083671569,0.210543543100357,0.4462981224060058,-0.0999733507633209,0.4568541049957275,0.4606030583381653,-0.0986983552575111,0.333584189414978,0.457834243774414,-0.1212817281484603,0.2675457000732422,0.4764798283576965,-0.1317134201526641,0.2183538973331451,0.4925828576087951,-0.1398141384124755
2023-08-01 16:06:05.274986,31,700,0.7274428009986877,0.1119654700160026,-0.054742507636547,0.674754798412323,-0.4462890625,0.84228515625,0.20556640625,0.5599498152732849,0.6811790466308594,-1.046673332893988e-06,0.4436664283275604,0.5941263437271118,0.0348355360329151,0.371484637260437,0.516140341758728,0.027926767244935,0.3064334988594055,0.4746363461017608,0.0102757848799228,0.2556658387184143,0.4455706179141998,-0.0101735172793269,0.5023272633552551,0.3201711773872375,-0.007167961448431,0.3603373169898987,0.2912126779556274,-0.0319912694394588,0.2875280976295471,0.3434376418590545,-0.0501536317169666,0.2465796023607254,0.3976365327835083,-0.0626503601670265,0.5050204992294312,0.3368356227874756,-0.0412592850625515,0.3374797105789184,0.2948931455612182,-0.0620905347168445,0.2680310904979706,0.3512274622917175,-0.0739806964993476,0.2294900566339492,0.413729190826416,-0.0858293026685714,0.4919910430908203,0.3890218436717987,-0.0722272843122482,0.3292293846607208,0.3540680706501007,-0.091432049870491,0.2610984742641449,0.4000235795974731,-0.0970570519566536,0.2187621146440506,0.4458241760730743,-0.1046526134014129,0.464516282081604,0.464328795671463,-0.099746361374855,0.3415658175945282,0.4553886353969574,-0.1246822848916053,0.2737303376197815,0.4706900715827942,-0.1361497044563293,0.2223499417304992,0.4849088191986084,-0.1442989408969879
2023-08-01 16:06:05.350943,32,701,0.7261853218078613,0.1210587993264198,-0.0567905530333519,0.674369752407074,-0.47412109375,0.86181640625,0.13525390625,0.6007450819015503,0.6846226453781128,-1.1386340474928147e-06,0.4904241561889648,0.6105470061302185,0.0293431673198938,0.4194673597812652,0.5284445881843567,0.0227980632334947,0.3561694324016571,0.4800874590873718,0.0067642461508512,0.3014234602451324,0.4494976103305816,-0.01145273540169,0.5381490588188171,0.3275250196456909,-0.0126119246706366,0.396906316280365,0.2854599058628082,-0.0422933436930179,0.3221076726913452,0.3342162072658539,-0.0610108040273189,0.284783661365509,0.3861183524131775,-0.0723266154527664,0.5438823699951172,0.3466610014438629,-0.0440052077174186,0.373707115650177,0.2970964908599853,-0.0701557397842407,0.3025067448616028,0.3554238975048065,-0.078231506049633,0.2677662968635559,0.4168779253959656,-0.0847068503499031,0.5327975749969482,0.3991192281246185,-0.0737301707267761,0.3715875744819641,0.3577567934989929,-0.0980327129364013,0.3067589402198791,0.4078030288219452,-0.0996449962258338,0.2711925804615021,0.4526361525058746,-0.1019876450300216,0.5072526335716248,0.4729806780815124,-0.1006644591689109,0.3911655247211456,0.4570811092853546,-0.129141703248024,0.324707567691803,0.4694201648235321,-0.1406300365924835,0.2757497429847717,0.4781067371368408,-0.1473102271556854
2023-08-01 16:06:05.424502,33,702,0.7243155837059021,0.1323750913143158,-0.0599419176578521,0.6739813089370728,-0.42431640625,0.86181640625,0.146484375,0.6128243207931519,0.6811313033103943,-1.009238303595339e-06,0.4987036883831024,0.606143057346344,0.0294987261295318,0.4286336898803711,0.52571040391922,0.0208415556699037,0.363499641418457,0.4805392324924469,0.0024563025217503,0.3074325323104858,0.44983571767807,-0.0185129363089799,0.5505818128585815,0.3286068737506866,-0.0106331203132867,0.4116120338439941,0.2833678722381592,-0.0407826676964759,0.3371267318725586,0.3303606808185577,-0.0615944452583789,0.2986287474632263,0.3827888667583465,-0.0737737119197845,0.555482029914856,0.3429950475692749,-0.0414359718561172,0.3888349533081054,0.2888958156108856,-0.066047117114067,0.3153972327709198,0.3463265299797058,-0.0773079320788383,0.2784138321876526,0.4101393222808838,-0.0865487158298492,0.5441914200782776,0.3919172286987304,-0.0702217146754264,0.3819562196731567,0.3511719703674316,-0.0908637568354606,0.3104760646820068,0.3977709710597992,-0.0955832377076149,0.2691721022129059,0.4460611641407013,-0.1006296277046203,0.5169036388397217,0.4637207686901092,-0.0961387977004051,0.3984427452087402,0.4539417326450348,-0.1150951832532882,0.3350343704223633,0.4679666757583618,-0.1230253204703331,0.2886924147605896,0.4806660413742065,-0.1287108063697815
2023-08-01 16:06:05.509956,34,703,0.7225742936134338,0.1428818255662918,-0.0635202303528785,0.6733767986297607,-0.4228515625,0.84716796875,0.13671875,0.6233803033828735,0.6795782446861267,-1.0009299558078055e-06,0.5063098073005676,0.6029380559921265,0.0283110868185758,0.4350320994853973,0.5196161270141602,0.0194077808409929,0.3697417080402374,0.4726986289024353,0.000661990023218,0.3145771920681,0.4412386119365692,-0.0202919617295265,0.5620281100273132,0.324790894985199,-0.0070229433476924,0.4235094785690307,0.2789019048213959,-0.0376739017665386,0.3470611572265625,0.324761688709259,-0.0600098632276058,0.3068628907203674,0.3761695325374603,-0.0733250379562377,0.5683760643005371,0.3393997550010681,-0.037891574203968,0.4056196212768554,0.2818843722343445,-0.062687337398529,0.3328368067741394,0.3388890326023102,-0.075105533003807,0.2957376837730407,0.4021864831447601,-0.0846809819340705,0.5576819181442261,0.3876562118530273,-0.0671149715781211,0.4007482230663299,0.3424899876117706,-0.0876687690615654,0.3306052088737488,0.3897926807403564,-0.0927714928984642,0.2890625,0.4382309913635254,-0.0977085307240486,0.5306159257888794,0.4595229923725128,-0.0936401560902595,0.4142670035362243,0.4498689472675323,-0.1113944873213768,0.3526113927364349,0.4655122756958008,-0.118314728140831,0.3070244193077087,0.4793300926685333,-0.1231429949402809
2023-08-01 16:06:05.591107,35,704,0.7215620875358582,0.1540229469537735,-0.065485268831253,0.6718160510063171,-0.4228515625,0.869140625,0.17236328125,0.6696784496307373,0.6753711700439453,-1.0257015219394816e-06,0.5475982427597046,0.5859407186508179,0.0199622064828872,0.4804001450538635,0.4944015145301819,0.0093599911779165,0.4218164086341858,0.4324095845222473,-0.0096280733123421,0.3738969564437866,0.3851903676986694,-0.0305618532001972,0.6035710573196411,0.3159698247909546,-0.0137966759502887,0.4664709866046905,0.2692138850688934,-0.0500889830291271,0.3903018832206726,0.3005560636520386,-0.0763574466109275,0.3477832078933716,0.3422029316425323,-0.0927968099713325,0.6202073097229004,0.3324728608131408,-0.0432475991547107,0.460115373134613,0.277887225151062,-0.0738529041409492,0.3864706754684448,0.3238754272460937,-0.0930452421307563,0.3445141613483429,0.3732501864433288,-0.1085938513278961,0.6195182800292969,0.3806079924106598,-0.0720350816845893,0.4685882031917572,0.334098219871521,-0.1042025536298751,0.3956617712974548,0.3849439918994903,-0.1168926358222961,0.3494572043418884,0.4326774775981903,-0.1259502619504928,0.601726233959198,0.4533086121082306,-0.0982169136404991,0.4875103533267975,0.4516494274139404,-0.1301164776086807,0.4224436283111572,0.4692808389663696,-0.1454697996377945,0.3713701665401459,0.4817276000976562,-0.1550356298685073
2023-08-01 16:06:05.646111,36,705,0.7213878035545349,0.1601340621709823,-0.0669342502951622,0.670430064201355,-0.44580078125,0.86865234375,0.10888671875,0.6863903403282166,0.6799166202545166,-9.744566114022746e-07,0.5713953971862793,0.589633584022522,0.0229439064860343,0.5038697719573975,0.5049391984939575,0.0117315426468849,0.4432940483093261,0.4554750323295593,-0.0094002168625593,0.393310546875,0.4170660376548767,-0.0330354124307632,0.6263666152954102,0.3212632238864898,-0.0074618798680603,0.4846581518650055,0.2804698944091797,-0.0443387441337108,0.4034825563430786,0.3031560778617859,-0.073908194899559,0.3532237708568573,0.3364842534065246,-0.0925530716776847,0.6408079862594604,0.3390997946262359,-0.0393586717545986,0.4784561991691589,0.2858458757400512,-0.0687195956707,0.3988655209541321,0.325592041015625,-0.0911037176847457,0.3494044542312622,0.3697502613067627,-0.1097811833024025,0.6386484503746033,0.3872464895248413,-0.0703129470348358,0.4888657331466675,0.340038925409317,-0.0990991070866584,0.4141357243061065,0.3881513476371765,-0.1117577627301216,0.3658400177955627,0.4348183274269104,-0.1215486600995063,0.6185929775238037,0.4581198096275329,-0.0989221557974815,0.5022638440132141,0.452134907245636,-0.1263408660888672,0.4366655945777893,0.4678079783916473,-0.1393609344959259,0.386534184217453,0.4815714359283447,-0.1477952301502227
2023-08-01 16:06:05.709017,37,706,0.7211489677429199,0.1678426265716552,-0.0674167796969413,0.668751060962677,-0.4599609375,0.88037109375,0.12744140625,0.7416310906410217,0.688464879989624,-1.0872796565308818e-06,0.620498538017273,0.5954136848449707,0.0215250439941883,0.551181435585022,0.5139966011047363,0.0089250802993774,0.4906085729598999,0.4649046063423157,-0.0140500236302614,0.4450985789299011,0.4218054413795471,-0.0389054156839847,0.6842529773712158,0.3266055285930633,-4.837129745283164e-05,0.5516666769981384,0.29296875,-0.0355252176523208,0.4789015650749206,0.3319177031517029,-0.0646460279822349,0.4405717849731445,0.3767686784267425,-0.0838497579097747,0.7013317942619324,0.3423899710178375,-0.0326380543410778,0.546737551689148,0.296002447605133,-0.063163548707962,0.4748055040836334,0.350344717502594,-0.0843551978468895,0.433550477027893,0.4013383090496063,-0.1008091196417808,0.7012951970100403,0.3884025514125824,-0.0656184926629066,0.5567446947097778,0.3393589854240417,-0.0953962132334709,0.4826521873474121,0.3856127858161926,-0.1064988374710083,0.4339229464530945,0.4297970235347748,-0.1146816164255142,0.6844427585601807,0.4592057168483734,-0.0965371876955032,0.5653302073478699,0.4571776092052459,-0.1249101310968399,0.4998863041400909,0.4713561236858368,-0.137383222579956,0.4490411877632141,0.4803539514541626,-0.1450176835060119
2023-08-01 16:06:05.773248,38,707,0.7202612161636353,0.177482470870018,-0.0694053247570991,0.6670132279396057,-0.447265625,0.88232421875,0.15625,0.7516757845878601,0.6889699101448059,-1.001826149149565e-06,0.636701226234436,0.5904996395111084,0.0200920216739177,0.5657544136047363,0.5078465342521667,0.0078656962141394,0.509728193283081,0.4583220779895782,-0.0138122737407684,0.4730677008628845,0.4153159856796264,-0.0366374403238296,0.7010841369628906,0.3279466032981872,2.4703971575945616e-05,0.5705528259277344,0.3033893704414367,-0.0326054915785789,0.4987265467643738,0.3446319103240967,-0.0615803748369216,0.4588317275047302,0.3884494304656982,-0.0810967832803726,0.7151515483856201,0.3439193964004516,-0.0305921416729688,0.5626736879348755,0.3055221140384674,-0.0585164949297905,0.4900034368038177,0.3553374409675598,-0.0801253691315651,0.4464163482189178,0.4081318378448486,-0.0968379601836204,0.7135047912597656,0.3901941180229187,-0.0611922554671764,0.5676158666610718,0.349595308303833,-0.0858680084347724,0.4939310848712921,0.3891568779945373,-0.0963610783219337,0.4450078904628753,0.4296987950801849,-0.1049805879592895,0.6965082287788391,0.4617117941379547,-0.090161383152008,0.5763872265815735,0.4588320851325989,-0.1143028736114502,0.5112904906272888,0.4732691347599029,-0.1246648207306861,0.4617586731910705,0.4845038056373596,-0.1310379803180694
2023-08-01 16:06:05.829997,39,708,0.7198085784912109,0.1817755103111267,-0.0699379965662956,0.6662896871566772,-0.45361328125,0.8623046875,0.1533203125,0.7615978717803955,0.6909310817718506,-1.0026521977124505e-06,0.6487467288970947,0.5976567268371582,0.0172133781015872,0.5738197565078735,0.5155749917030334,0.0042106034234166,0.512719452381134,0.4691346287727356,-0.0176300834864377,0.4723832905292511,0.4296344816684723,-0.0401394180953502,0.7100334763526917,0.3337997794151306,-0.0023924587294459,0.5843088626861572,0.3045474886894226,-0.0381546430289745,0.5119920969009399,0.3447338044643402,-0.0692820772528648,0.466807097196579,0.3893909752368927,-0.089616909623146,0.7265524864196777,0.3469807803630829,-0.0319797173142433,0.575900673866272,0.304652988910675,-0.0640981271862983,0.5041791200637817,0.357764184474945,-0.0876208320260047,0.4598865509033203,0.4140157997608185,-0.1040805131196975,0.7271690964698792,0.391245037317276,-0.0618252232670784,0.5832043886184692,0.3496666848659515,-0.0896536484360694,0.5114653706550598,0.3920780718326568,-0.1009161099791526,0.4625847935676574,0.4358004927635193,-0.1081700548529625,0.7113556265830994,0.4609723091125488,-0.0901799947023391,0.5939904451370239,0.4560554921627044,-0.1153427213430404,0.5297739505767822,0.4701667428016662,-0.1256835609674453,0.4801669418811798,0.4826526343822479,-0.1310664713382721
2023-08-01 16:06:05.892718,40,709,0.7191526889801025,0.1899093389511108,-0.0707331001758575,0.6646433472633362,-0.46630859375,0.86865234375,0.12353515625,0.7704480886459351,0.6937795877456665,-1.0010895721279669e-06,0.660772979259491,0.6009478569030762,0.0132828233763575,0.5849857926368713,0.5190668702125549,-0.0007747013587504,0.5245718359947205,0.4715580940246582,-0.0225314740091562,0.4849148690700531,0.4331345558166504,-0.0446586087346077,0.7251821756362915,0.3376147150993347,-0.0074489419348537,0.5986663103103638,0.3058920502662658,-0.0438003614544868,0.5271442532539368,0.3470630347728729,-0.0739335864782333,0.4845219850540161,0.3937621712684631,-0.0931098759174346,0.7414218187332153,0.3522574603557586,-0.034670028835535,0.5896778106689453,0.3053402304649353,-0.0673895850777626,0.5185188055038452,0.3579906821250915,-0.0895823612809181,0.4764228463172912,0.4156718552112579,-0.1043834090232849,0.7419664859771729,0.3969375193119049,-0.0622894167900085,0.5986361503601074,0.3529554903507232,-0.0911202281713485,0.5266996622085571,0.3931644558906555,-0.1013459786772728,0.4787076115608215,0.435984343290329,-0.1068815439939498,0.7262907028198242,0.4667989313602447,-0.0886140614748001,0.6102591753005981,0.4593049585819244,-0.1147356331348419,0.5476730465888977,0.4710915982723236,-0.1244184747338295,0.5001567006111145,0.4822273552417755,-0.1284424811601638
2023-08-01 16:06:05.958892,41,710,0.7183523178100586,0.1990580111742019,-0.0718270316720008,0.6627116203308105,-0.4189453125,0.869140625,0.1083984375,0.7967191934585571,0.7023845314979553,-1.0535658248045363e-06,0.6979394555091858,0.6075016260147095,0.0011899054516106,0.6258130073547363,0.5237811207771301,-0.0176499001681804,0.5642905235290527,0.4746477305889129,-0.0430927500128746,0.5251024961471558,0.4254045486450195,-0.0684726983308792,0.7561432123184204,0.3384760916233063,-0.0086054550483822,0.6386011838912964,0.3088685274124145,-0.0533694215118885,0.5665233135223389,0.3458594679832458,-0.0918652117252349,0.5227711200714111,0.3898641467094421,-0.1160193607211113,0.7835521697998047,0.3535937368869781,-0.0332498848438262,0.643541157245636,0.3110489845275879,-0.0750392377376556,0.5692508816719055,0.3647806942462921,-0.1063981652259826,0.523322582244873,0.4194502830505371,-0.1256681233644485,0.7944303750991821,0.399000346660614,-0.0604144893586635,0.6624340415000916,0.3552751243114471,-0.098443679511547,0.5861261487007141,0.3964740335941314,-0.1152256205677986,0.5349341630935669,0.439412772655487,-0.122774638235569,0.7865199446678162,0.4702358543872833,-0.087195947766304,0.6720010042190552,0.4673755764961242,-0.1202266961336135,0.6080124378204346,0.4785709381103515,-0.1335232108831405,0.5598728656768799,0.4883359372615814,-0.138349562883377
2023-08-01 16:06:06.027167,42,711,0.7171815037727356,0.207434669137001,-0.0729738101363182,0.6612837910652161,-0.44921875,0.87353515625,0.0869140625,0.8176486492156982,0.7068777084350586,-1.0194669357588282e-06,0.7166284918785095,0.6118417382240295,0.0049270563758909,0.6465299129486084,0.523283064365387,-0.0116599099710583,0.5891928672790527,0.4707114994525909,-0.0355991460382938,0.5456867218017578,0.4274615943431854,-0.0599935166537761,0.775886058807373,0.3485380411148071,-0.004343032836914,0.6565797328948975,0.3154462873935699,-0.048836126923561,0.5852063894271851,0.3447420597076416,-0.0869631618261337,0.5391372442245483,0.3832789659500122,-0.1107196286320686,0.8008216619491577,0.3649380505084991,-0.0305480044335126,0.6592090725898743,0.3176336288452148,-0.0718308687210083,0.5862762331962585,0.3665046393871307,-0.1018953919410705,0.540458083152771,0.4168689846992492,-0.1206786409020423,0.8095679879188538,0.4079765975475311,-0.0594751574099063,0.6763988137245178,0.3612953424453735,-0.0976598411798477,0.6003861427307129,0.4022555351257324,-0.1144468486309051,0.549649178981781,0.4422689974308014,-0.1222923025488853,0.8003317713737488,0.4745399057865143,-0.0878957062959671,0.6857572793960571,0.4637854695320129,-0.1206133514642715,0.6218343377113342,0.4750133454799652,-0.1342360079288482,0.5742361545562744,0.483867734670639,-0.1399701237678527
2023-08-01 16:06:06.084912,43,712,0.7163587808609009,0.2132707089185714,-0.0741510242223739,0.6601873636245728,-0.44970703125,0.8671875,0.10693359375,0.8226549029350281,0.7071633338928223,-9.983743893826611e-07,0.7239078283309937,0.6118282079696655,0.0048460555262863,0.6564633250236511,0.5240228176116943,-0.0112861497327685,0.6038892269134521,0.4721434712409973,-0.0348243117332458,0.5675091743469238,0.4287554621696472,-0.0585756041109561,0.7826784253120422,0.3468138873577118,-0.001887364895083,0.6710344552993774,0.3190015256404876,-0.0477125346660614,0.5999500155448914,0.346293032169342,-0.0877870321273803,0.5497105717658997,0.3835852146148681,-0.1121568977832794,0.811603307723999,0.3621033430099487,-0.0279095266014337,0.6766666173934937,0.322589635848999,-0.0685764551162719,0.6017718315124512,0.3651550412178039,-0.0992773920297622,0.5504646301269531,0.4124782085418701,-0.1183891519904136,0.8243771195411682,0.4051259756088257,-0.0569653920829296,0.695061981678009,0.3652176856994629,-0.09532330930233,0.6190639734268188,0.4027146100997925,-0.1117189452052116,0.5657961368560791,0.4406533241271972,-0.1187658309936523,0.8181883692741394,0.4730441570281982,-0.085623487830162,0.7056466341018677,0.4644824564456939,-0.1179030537605285,0.6422483921051025,0.4777324795722961,-0.1297242492437362,0.5940825939178467,0.4893838763236999,-0.1335913836956024
2023-08-01 16:06:06.139728,44,713,0.7159860134124756,0.2181889563798904,-0.0760879814624786,0.6587626338005066,-0.3955078125,0.86669921875,0.1318359375,0.8604243397712708,0.7137041091918945,-1.0119636044692015e-06,0.7708361148834229,0.6184096932411194,0.0014093611389398,0.7051027417182922,0.529871940612793,-0.0150746703147888,0.6477381587028503,0.4792313575744629,-0.0385199710726738,0.6057614684104919,0.4326850175857544,-0.06214489787817,0.8269500732421875,0.352928102016449,-0.000420874916017,0.7177771925926208,0.3256121277809143,-0.0442002043128013,0.6501346826553345,0.3549847304821014,-0.083414614200592,0.6082967519760132,0.3914656341075897,-0.1083033755421638,0.8559294939041138,0.3668955862522125,-0.0253766477108001,0.7269385457038879,0.3266584277153015,-0.0673082172870636,0.6547670364379883,0.3729882836341858,-0.1000518575310707,0.6092426776885986,0.4222486615180969,-0.1195616498589515,0.8704946041107178,0.4114110767841339,-0.0535830557346344,0.7512363195419312,0.3670967221260071,-0.0956009328365325,0.6754845976829529,0.4033496975898742,-0.1143102198839187,0.6249128580093384,0.4405405819416046,-0.1214020252227783,0.8663860559463501,0.4806061685085296,-0.0812326446175575,0.7603979110717773,0.471081018447876,-0.1186163574457168,0.7002499103546143,0.481275737285614,-0.1327314525842666,0.6556029915809631,0.4897056818008423,-0.1368677020072937
2023-08-01 16:06:06.204724,45,714,0.7161039710044861,0.2250515073537826,-0.0746284201741218,0.6564887762069702,-0.42333984375,0.890625,0.0927734375,0.8722270131111145,0.7118754386901855,-9.893877859212807e-07,0.7783359289169312,0.6169556975364685,0.0052508562803268,0.7104400992393494,0.5280139446258545,-0.0114367883652448,0.6555958390235901,0.4775725305080414,-0.0364979729056358,0.6163890361785889,0.4243734180927276,-0.0620077960193157,0.8403586745262146,0.3576672375202179,0.0029408768750727,0.7348579168319702,0.3241437971591949,-0.0440422035753726,0.665207028388977,0.3469876050949096,-0.0861945077776908,0.6146542429924011,0.3824710845947265,-0.1122272685170173,0.8701823353767395,0.3752129375934601,-0.024448262527585,0.7385016083717346,0.3305982947349548,-0.0687668770551681,0.6662118434906006,0.3735432028770447,-0.1041090860962867,0.6191653609275818,0.4197947084903717,-0.1258662790060043,0.8833790421485901,0.4174062609672546,-0.0553292520344257,0.7610624432563782,0.3720600008964538,-0.0976447910070419,0.6864020228385925,0.4074279069900512,-0.1186518669128418,0.6356905698776245,0.4460033178329468,-0.127791941165924,0.8783332109451294,0.481033444404602,-0.0855855345726013,0.7719457745552063,0.466307669878006,-0.1214070990681648,0.7103005647659302,0.4779556393623352,-0.1370194554328918,0.6637656092643738,0.4902292191982269,-0.1431187838315963
2023-08-01 16:06:06.266617,46,715,0.715735673904419,0.2307431697845459,-0.072883740067482,0.655109167098999,-0.4970703125,0.88232421875,0.0595703125,0.8824965357780457,0.7117243409156799,-9.875335535980412e-07,0.789325475692749,0.6214540600776672,0.0030642738565802,0.7203196883201599,0.5334070920944214,-0.0135327586904168,0.6664127111434937,0.4850055575370788,-0.0379018932580947,0.6274550557136536,0.4325709640979767,-0.0626660510897636,0.8466845750808716,0.3588870167732239,0.0005471537006087,0.7428443431854248,0.326556921005249,-0.046700682491064,0.6743873357772827,0.3521835803985595,-0.0888631120324134,0.6249051094055176,0.3900556862354278,-0.1146696731448173,0.8775047063827515,0.3759914040565491,-0.0256070159375667,0.7477607131004333,0.3312843441963196,-0.069171242415905,0.6752102375030518,0.3750933706760406,-0.1041173413395881,0.628267765045166,0.4228474199771881,-0.1255112290382385,0.8918572664260864,0.4187524318695068,-0.0554399229586124,0.7729917168617249,0.3738042712211609,-0.097505934536457,0.697473406791687,0.4083101451396942,-0.1190384477376937,0.6457340121269226,0.4462589621543884,-0.1284829825162887,0.8872180581092834,0.4833011925220489,-0.0847241654992103,0.7834433913230896,0.4678806066513061,-0.1208176389336586,0.7217561602592468,0.4788172543048858,-0.1364605128765106,0.6745524406433105,0.4908669292926788,-0.142396479845047
2023-08-01 16:06:06.339942,47,716,0.7145096063613892,0.2348075062036514,-0.0734898075461387,0.6549357175827026,-0.4580078125,0.87353515625,0.06982421875,0.8980964422225952,0.7158706784248352,-9.801935902942205e-07,0.8211402297019958,0.6213226318359375,-0.009736499749124,0.7593751549720764,0.5337024927139282,-0.0292621739208698,0.7030216455459595,0.4816432595252991,-0.0532636195421218,0.6676844358444214,0.4273126721382141,-0.0758331418037414,0.8891045451164246,0.3685552477836609,-0.0081415763124823,0.7906434535980225,0.3301728963851928,-0.0538079291582107,0.7221736907958984,0.3551605343818664,-0.0937269926071167,0.6760638952255249,0.3894647359848022,-0.1184050664305687,0.919194221496582,0.3841932117938995,-0.0256119333207607,0.7975386381149292,0.335798442363739,-0.0699882209300994,0.726240336894989,0.3800067901611328,-0.1042029336094856,0.6798126101493835,0.425993412733078,-0.1238520443439483,0.9351655840873718,0.4253464341163635,-0.0468741431832313,0.8213009834289551,0.3772104382514953,-0.0906071290373802,0.7475888729095459,0.4143807291984558,-0.1094166040420532,0.6968317031860352,0.4528039395809173,-0.1152212023735046,0.9325973391532898,0.4886447191238403,-0.068418376147747,0.829369068145752,0.4767408072948456,-0.1059904098510742,0.770675778388977,0.4867528975009918,-0.1199309900403022,0.727085292339325,0.4966332614421844,-0.1229671388864517
2023-08-01 16:06:06.406613,48,717,0.7138647437095642,0.2366326451301574,-0.0743478387594223,0.6548851132392883,-0.4208984375,0.86572265625,0.1064453125,0.9241385459899902,0.7187501788139343,-9.60271677286073e-07,0.8326826095581055,0.6283563375473022,-0.0071717738173902,0.7687980532646179,0.5361210107803345,-0.0256116222590208,0.7149590253829956,0.4825832545757293,-0.0493676401674747,0.683521032333374,0.4282964169979095,-0.0724413841962814,0.9038835763931274,0.3721518814563751,-0.0057142968289554,0.8039191961288452,0.3274053335189819,-0.052877876907587,0.7346833944320679,0.3494756817817688,-0.0936428308486938,0.6852601766586304,0.3835800588130951,-0.1179597675800323,0.9325080513954164,0.3922319114208221,-0.0248531401157379,0.8046718239784241,0.3304958641529083,-0.0701890438795089,0.733073353767395,0.3742428123950958,-0.1046627908945083,0.6895004510879517,0.42146697640419,-0.1237624064087867,0.946853756904602,0.434300035238266,-0.0481529496610164,0.8283557295799255,0.3780202865600586,-0.0933940112590789,0.7519815564155579,0.4140288829803467,-0.1150099262595176,0.7009982466697693,0.4530303478240967,-0.1219684407114982,0.9430716037750244,0.4966029524803161,-0.0714382752776146,0.8348543643951416,0.4767250716686249,-0.1095314919948577,0.7711848020553589,0.4857837259769439,-0.1253876984119415,0.7228249907493591,0.497620940208435,-0.1296930313110351
2023-08-01 16:06:06.489672,49,718,0.7135255336761475,0.2385398596525192,-0.0744576677680015,0.6545502543449402,-0.4130859375,0.8701171875,0.12060546875,0.9300333857536316,0.7173296213150024,-9.550017239234876e-07,0.840573251247406,0.6281017661094666,-0.0075102839618921,0.7749571800231934,0.5366378426551819,-0.0271513797342777,0.7207818031311035,0.483118861913681,-0.0523320399224758,0.6865105032920837,0.4274287521839142,-0.0768010765314102,0.9056248664855956,0.3689343929290771,-0.0069732875563204,0.8067512512207031,0.3264009356498718,-0.0556574873626232,0.7381008863449097,0.3511479496955871,-0.0971843674778938,0.6904697418212891,0.3897834122180938,-0.1219539567828178,0.937010645866394,0.3880202770233154,-0.0269327666610479,0.810325026512146,0.3296835422515869,-0.0742482244968414,0.7391083836555481,0.3772074282169342,-0.1093449965119361,0.6978662610054016,0.4262847602367401,-0.1287343204021453,0.9529231190681458,0.4294677376747131,-0.0511426925659179,0.8367440700531006,0.3766571581363678,-0.0970754623413086,0.7606350779533386,0.4135687351226806,-0.1183379590511322,0.7119223475456238,0.4533222019672394,-0.1252960562705993,0.9494644999504088,0.4906646609306335,-0.0754598155617713,0.8448666334152222,0.471232533454895,-0.1137285009026527,0.7824389338493347,0.4817772209644317,-0.1294832527637481,0.73766028881073,0.4950681030750274,-0.1339651346206665
2023-08-01 16:06:06.565280,50,719,0.7135084271430969,0.2399298697710037,-0.074367806315422,0.6540709137916565,-0.43798828125,0.8779296875,0.06494140625,0.9345343112945556,0.715173065662384,-9.281495749746682e-07,0.8498365879058838,0.6253499388694763,-0.0098788980394601,0.7858659029006958,0.5385347008705139,-0.0317566096782684,0.7311967015266418,0.4847535789012909,-0.0588387735188007,0.6953219175338745,0.4256984889507293,-0.085200510919094,0.9159197807312012,0.3667904138565063,-0.0091761136427521,0.8207210302352905,0.3285372257232666,-0.0588824935257434,0.7544043660163879,0.3494995236396789,-0.1009336933493614,0.7087690830230713,0.3834080696105957,-0.1264715045690536,0.948782444000244,0.3852364420890808,-0.0283365938812494,0.826576828956604,0.3342757225036621,-0.0774499028921127,0.756718635559082,0.3785417675971985,-0.1130037754774093,0.7147343754768372,0.4224551022052765,-0.1327023208141327,0.9662293195724488,0.4273381531238556,-0.0519624389708042,0.8523066639900208,0.3817124664783478,-0.0999964922666549,0.7768620848655701,0.4156791865825653,-0.1211505085229873,0.7264007925987244,0.4516022801399231,-0.1277752667665481,0.964780867099762,0.4891458451747894,-0.0759078934788703,0.8632463812828064,0.475341647863388,-0.116860531270504,0.8026614785194397,0.4842179417610168,-0.1338181644678115,0.7577202916145325,0.4945160448551178,-0.1386016309261322
2023-08-01 16:06:06.631705,51,720,0.7134096026420593,0.2392003536224365,-0.074056901037693,0.6544811129570007,-0.4765625,0.87548828125,0.0703125,0.9283179640769958,0.7119198441505432,-9.29518137127161e-07,0.8495463132858276,0.6243268251419067,-0.0116251967847347,0.7891861796379089,0.5366528034210205,-0.0328915975987911,0.737581729888916,0.4825450181961059,-0.0584574490785598,0.7060365676879883,0.4253285527229309,-0.0830150321125984,0.9162460565567015,0.3685756027698517,-0.0092947501689195,0.8243908882141113,0.329441636800766,-0.0574819222092628,0.7580693364143372,0.3505570590496063,-0.0986445844173431,0.7106088995933533,0.3848093152046203,-0.1230650767683982,0.949590027332306,0.3865261375904083,-0.0262875445187091,0.8307539820671082,0.3347561061382293,-0.0717312023043632,0.761123538017273,0.3761413693428039,-0.1051196977496147,0.7176137566566467,0.4204590320587158,-0.1234033703804016,0.9679413437843324,0.427899032831192,-0.0479210168123245,0.8579708933830261,0.3805349469184875,-0.0937939137220382,0.7835602760314941,0.4135034084320068,-0.1142840981483459,0.7332871556282043,0.4491160809993744,-0.1205372661352157,0.9671655297279358,0.4892917573451996,-0.0699652731418609,0.8624873757362366,0.4759211838245392,-0.11044592410326,0.8002750277519226,0.4865671992301941,-0.1269560754299163,0.7543169856071472,0.4977441430091858,-0.1311608403921127
2023-08-01 16:06:06.688742,52,721,0.7131684422492981,0.237761989235878,-0.0734392255544662,0.6553369760513306,-0.44189453125,0.87939453125,0.0830078125,0.9362132549285888,0.715036153793335,-9.144866339738656e-07,0.8553887605667114,0.6283285617828369,-0.0141521859914064,0.7926424145698547,0.5394122004508972,-0.0367876961827278,0.7389777898788452,0.4843606352806091,-0.0630266144871711,0.7084314823150635,0.4264311492443084,-0.0881460085511207,0.9245079159736632,0.3670074045658111,-0.0129507267847657,0.8300246000289917,0.3283495306968689,-0.062317281961441,0.7637718915939331,0.3496600091457367,-0.1044178828597068,0.7159295082092285,0.384806215763092,-0.1295118629932403,0.9570536613464355,0.3865593075752258,-0.0288525484502315,0.8352252840995789,0.3334388732910156,-0.0758315697312355,0.765342116355896,0.3740513920783996,-0.110263668000698,0.7213613390922546,0.4185354709625244,-0.129219576716423,0.9741633534431458,0.4299219846725464,-0.0494561418890953,0.8610378503799438,0.3813287615776062,-0.0974871218204498,0.7864898443222046,0.4149899482727051,-0.1190750449895858,0.7367845773696899,0.4512842297554016,-0.1256905049085617,0.971934974193573,0.4926922917366028,-0.0704962015151977,0.8655511140823364,0.4789546132087707,-0.113751083612442,0.8026761412620544,0.4898126125335693,-0.1319177597761154,0.7564480900764465,0.5012990832328796,-0.1368322819471359
2023-08-01 16:06:06.749747,53,722,0.7133982181549072,0.2358808815479278,-0.0737187191843986,0.6557353138923645,-0.41064453125,0.87451171875,0.09423828125,0.9279520511627196,0.7164676189422607,-9.595123628969304e-07,0.8531116247177124,0.631003737449646,-0.0112687246873974,0.7937894463539124,0.5398796200752258,-0.0300752706825733,0.7416175603866577,0.4838599562644958,-0.0531376153230667,0.7075853943824768,0.4265296757221222,-0.075362853705883,0.9226170778274536,0.3690224587917328,-0.0066802706569433,0.830463707447052,0.3314858675003052,-0.0535642616450786,0.7633268237113953,0.3510853052139282,-0.0945847406983375,0.7131132483482361,0.3836928904056549,-0.1187246739864349,0.954760193824768,0.3875453472137451,-0.0229298714548349,0.8375546932220459,0.3333302438259125,-0.0670314729213714,0.7648956775665283,0.3716541528701782,-0.1007029116153717,0.7161741256713867,0.4159585535526275,-0.1187883839011192,0.9718859791755676,0.4295544624328613,-0.0436498746275901,0.8621110320091248,0.3796828985214233,-0.088565744459629,0.7874020934104919,0.414438247680664,-0.109426163136959,0.735901951789856,0.4520738124847412,-0.1151894107460975,0.9695887565612792,0.4920625388622284,-0.0647306740283966,0.8629369139671326,0.4752970039844513,-0.1042359769344329,0.8003754019737244,0.4853632748126983,-0.1205481514334678,0.7536923885345459,0.4975870549678802,-0.1240562871098518
2023-08-01 16:06:06.808699,54,723,0.7139157056808472,0.2334080189466476,-0.0732569769024849,0.6561087369918823,-0.447265625,0.8681640625,0.09521484375,0.9341980218887328,0.7148460149765015,-9.19244087072002e-07,0.8530532121658325,0.6286003589630127,-0.011003996245563,0.7928422689437866,0.5390626788139343,-0.0324703343212604,0.7391998767852783,0.4837327599525451,-0.0588975846767425,0.7022008895874023,0.4236995875835418,-0.0845619216561317,0.923060417175293,0.3717079758644104,-0.0088543472811579,0.8307574987411499,0.3276713490486145,-0.0592011138796806,0.7637165784835815,0.3453861474990845,-0.1017727628350257,0.713638961315155,0.3778190314769745,-0.1267599761486053,0.9537495970726012,0.390529990196228,-0.0271713268011808,0.8349243998527527,0.3320231437683105,-0.0762238353490829,0.7620857954025269,0.3714825809001922,-0.1115833669900894,0.7150546312332153,0.4151263833045959,-0.129937469959259,0.9695496559143066,0.4317245781421661,-0.0501785017549991,0.8589354157447815,0.3794136047363281,-0.0988068506121635,0.784191906452179,0.4141775965690613,-0.1203126385807991,0.7337186336517334,0.4512299299240112,-0.1259148269891739,0.9666886925697328,0.4917538166046142,-0.073572427034378,0.8612651228904724,0.4760660827159881,-0.1156561523675918,0.798556923866272,0.486980527639389,-0.1327581852674484,0.7525836825370789,0.4999895989894867,-0.1365391910076141
