Timestamp,Index,Frame ID,w,x,y,z,ax,ay,az,x_0,y_0,z_0,x_1,y_1,z_1,x_2,y_2,z_2,x_3,y_3,z_3,x_4,y_4,z_4,x_5,y_5,z_5,x_6,y_6,z_6,x_7,y_7,z_7,x_8,y_8,z_8,x_9,y_9,z_9,x_10,y_10,z_10,x_11,y_11,z_11,x_12,y_12,z_12,x_13,y_13,z_13,x_14,y_14,z_14,x_15,y_15,z_15,x_16,y_16,z_16,x_17,y_17,z_17,x_18,y_18,z_18,x_19,y_19,z_19,x_20,y_20,z_20
2023-08-01 16:06:10.385214,0,777,0.720154345035553,0.2456773072481155,-0.0716633796691894,0.6448913216590881,-0.44921875,0.86474609375,0.06689453125,0.944300651550293,0.7148356437683105,-9.305951493843168e-07,0.8699509501457214,0.6253043413162231,-0.0243626926094293,0.8103214502334595,0.5325914621353149,-0.0493173263967037,0.7509567141532898,0.4737058281898498,-0.0760161951184272,0.7268534302711487,0.4131645560264587,-0.0998904332518577,0.9443278312683104,0.3647306859493255,-0.0193224363029003,0.8531510233879089,0.3150946497917175,-0.0696994289755821,0.7846400737762451,0.3361783921718597,-0.1119847372174263,0.7351844906806946,0.3710260689258575,-0.1364421546459198,0.9763938784599304,0.3825768828392029,-0.0289039593189954,0.859168291091919,0.3223779201507568,-0.0761457830667495,0.7891350984573364,0.3637930452823639,-0.1097372397780418,0.7451279759407043,0.4113627672195434,-0.1272065192461013,0.9957275986671448,0.4247258305549621,-0.0440012738108634,0.8844426870346069,0.3683428764343261,-0.0902720913290977,0.806615948677063,0.4010555446147918,-0.1100851520895958,0.753093957901001,0.4421088099479675,-0.1147639155387878,0.9952319860458374,0.4895362854003906,-0.0608519054949283,0.8867542147636414,0.4676701724529266,-0.1003603041172027,0.8206316828727722,0.4737972617149353,-0.1167838498950004,0.7703779339790344,0.4892624616622925,-0.1200831681489944
2023-08-01 16:06:10.454691,1,778,0.7217439413070679,0.2403910160064697,-0.0705600753426551,0.64522784948349,-0.45849609375,0.86279296875,0.0625,0.9391756057739258,0.7127299904823303,-9.47505725434894e-07,0.8663522601127625,0.6230140924453735,-0.0242141559720039,0.8082037568092346,0.5308180451393127,-0.0495695620775222,0.7514244318008423,0.4729321599006653,-0.0771306082606315,0.7234700918197632,0.4112672209739685,-0.1024303436279296,0.940311849117279,0.3618620336055755,-0.0196926873177289,0.8508657217025757,0.3169965147972107,-0.072853609919548,0.7824445366859436,0.3394380211830139,-0.1168798208236694,0.7310764789581299,0.3747406899929046,-0.1422543674707412,0.9756110906600952,0.3783256411552429,-0.0304156262427568,0.8599557280540466,0.3209964334964752,-0.0813126564025878,0.7871319055557251,0.3634485900402069,-0.1175443679094314,0.738895058631897,0.4104712009429931,-0.1364714056253433,0.9959787130355836,0.4197670221328735,-0.0469024814665317,0.8845398426055908,0.3663160502910614,-0.096683882176876,0.8049539923667908,0.4019027352333069,-0.1194337084889411,0.748757541179657,0.4431633055210113,-0.1257337182760238,0.9961320757865906,0.4835394620895386,-0.0649518147110939,0.8868995904922485,0.4653745889663696,-0.1066970080137252,0.8208325505256653,0.4735110104084015,-0.1253563314676284,0.7696715593338013,0.4878022372722626,-0.1304099559783935
2023-08-01 16:06:10.512093,2,779,0.723447859287262,0.2368640452623367,-0.0697492435574531,0.6447120308876038,-0.45703125,0.83984375,0.13037109375,0.9290128350257874,0.7101812362670898,-9.63845081969339e-07,0.8515989184379578,0.6260020136833191,-0.0202755946666002,0.7910895347595215,0.5350510478019714,-0.0436075665056705,0.738318920135498,0.4772550165653229,-0.0689279437065124,0.7056958675384521,0.4152304232120514,-0.092019535601139,0.9209811091423036,0.3515576124191284,-0.0180229805409908,0.8316811323165894,0.3148075342178345,-0.0679999515414238,0.766751229763031,0.3378852903842926,-0.1087889671325683,0.7189478874206543,0.3705462515354156,-0.1326100975275039,0.9579530954360962,0.3695305287837982,-0.03066361322999,0.8431403636932373,0.326498806476593,-0.0787118524312973,0.7703421711921692,0.3735257983207702,-0.1098612621426582,0.7235886454582214,0.4192942082881927,-0.1249955520033836,0.9795054793357848,0.4162655174732208,-0.0486692860722541,0.8706901669502258,0.375150591135025,-0.0981531888246536,0.7925406694412231,0.4146422743797302,-0.1167207658290863,0.7384165525436401,0.4503586888313293,-0.1196506842970848,0.9814574122428894,0.485365629196167,-0.0677859336137771,0.8752910494804382,0.4761349260807037,-0.1117633357644081,0.8084034323692322,0.4846906363964081,-0.1284751296043396,0.7576178312301636,0.491006851196289,-0.1308491080999374
2023-08-01 16:06:10.575526,3,780,0.7259938716888428,0.2320083230733871,-0.0645270720124244,0.6441593170166016,-0.47314453125,0.85791015625,0.04248046875,0.9168187379837036,0.7109418511390686,-9.699408565211345e-07,0.8387984037399292,0.6243608593940735,-0.0182391162961721,0.7782572507858276,0.5326547622680664,-0.0415059402585029,0.7240282297134399,0.4755524694919586,-0.0669712126255035,0.689912736415863,0.4184251427650451,-0.0908176377415657,0.9129310846328736,0.3534046411514282,-0.022085815668106,0.8157489895820618,0.3176133632659912,-0.0700060278177261,0.7494665384292603,0.3437636494636535,-0.1076562479138374,0.7047199010848999,0.3793031871318817,-0.1300739347934723,0.948581874370575,0.3716783821582794,-0.036257054656744,0.8256368637084961,0.324207603931427,-0.083219364285469,0.7533288598060608,0.3757037222385406,-0.1123480051755905,0.7100443243980408,0.424345463514328,-0.1265791207551956,0.9677602648735046,0.4189226031303406,-0.0549243837594985,0.8504906296730042,0.3731392920017242,-0.1048742979764938,0.7733601927757263,0.4160946905612945,-0.1223200038075447,0.7223930358886719,0.4563647210597992,-0.1247504577040672,0.9663299918174744,0.4878791868686676,-0.074181467294693,0.8554373383522034,0.4772367775440216,-0.1192876994609832,0.7887727618217468,0.4869727790355682,-0.1359206438064575,0.7392563223838806,0.4967173337936401,-0.1384460777044296
2023-08-01 16:06:10.643718,4,781,0.7281661629676819,0.2244702875614166,-0.0594105683267116,0.6448701024055481,-0.51416015625,0.85693359375,0.0322265625,0.9139022827148438,0.7110670208930969,-9.712442761156126e-07,0.8335814476013184,0.6243653297424316,-0.0204393696039915,0.7711797952651978,0.5324962139129639,-0.0452795922756195,0.7165486812591553,0.4756917953491211,-0.0717503726482391,0.6854535341262817,0.4177694320678711,-0.0964128822088241,0.905983865261078,0.3536520600318908,-0.0248198471963405,0.8092455267906189,0.3175371587276459,-0.0749217718839645,0.742818295955658,0.3470653891563415,-0.1147825419902801,0.6980805397033691,0.3844393491744995,-0.1386663764715194,0.9417343139648438,0.3733766973018646,-0.0376995354890823,0.8172863721847534,0.3281938731670379,-0.0866993516683578,0.7460024356842041,0.3809111416339874,-0.117457315325737,0.7043105363845825,0.4314368963241577,-0.1328361183404922,0.9607111811637878,0.4211472868919372,-0.0553431771695613,0.8426106572151184,0.376168429851532,-0.1063541248440742,0.7652752995491028,0.4177682399749756,-0.1251414269208908,0.7138464450836182,0.4572767913341522,-0.1287346631288528,0.9596659541130066,0.4897744655609131,-0.0736963748931884,0.8487836122512817,0.4812472462654114,-0.1201513037085533,0.7825223207473755,0.4926560223102569,-0.1379740536212921,0.7327837944030762,0.5021606087684631,-0.1414000540971756
2023-08-01 16:06:10.701928,5,782,0.7295731902122498,0.2159564793109893,-0.0567234829068183,0.6464272737503052,-0.490234375,0.85498046875,0.0791015625,0.9087387919425964,0.7138856053352356,-1.0027365533460395e-06,0.8278589248657227,0.6254793405532837,-0.0135077983140945,0.766547441482544,0.5293949842453003,-0.033529195934534,0.7154207825660706,0.4719813466072082,-0.0562142431735992,0.6820891499519348,0.4208153486251831,-0.0779417529702186,0.9023357629776,0.3571085333824157,-0.0178589783608913,0.8041114807128906,0.3225583434104919,-0.0645356252789497,0.7366783022880554,0.3512306809425354,-0.1023476645350456,0.6912275552749634,0.3873012363910675,-0.1251221448183059,0.9361038208007812,0.3791627585887909,-0.0333730839192867,0.811473548412323,0.3313693404197693,-0.0788958370685577,0.7384951114654541,0.3820596933364868,-0.1079635247588157,0.6943027377128601,0.4311868846416473,-0.122733399271965,0.9534413814544678,0.4273926019668579,-0.0529851429164409,0.835365891456604,0.380542516708374,-0.1013168022036552,0.758319616317749,0.4215396642684936,-0.1188726350665092,0.7065480351448059,0.4589986801147461,-0.1223071217536926,0.9507685303688048,0.4952572882175445,-0.0726639106869697,0.8389788269996643,0.4841537773609161,-0.1159450486302375,0.7747609615325928,0.4979482889175415,-0.1311603039503097,0.7270888090133667,0.508020281791687,-0.1335753351449966
2023-08-01 16:06:10.751950,6,783,0.7305187582969666,0.2104586809873581,-0.0562091283500194,0.6472172141075134,-0.4697265625,0.8623046875,0.1064453125,0.9017975330352784,0.7154097557067871,-9.542176258037216e-07,0.8202285766601562,0.6244530081748962,-0.0146068846806883,0.7599499225616455,0.5325844883918762,-0.0366462618112564,0.7072362303733826,0.4765993952751159,-0.0616031102836132,0.6709238886833191,0.4272491931915283,-0.0851740166544914,0.8979666829109192,0.3583849966526031,-0.019190588966012,0.7990961670875549,0.3171859979629516,-0.0677661001682281,0.7323614954948425,0.3424339890480041,-0.1065740138292312,0.6860436797142029,0.3784303665161133,-0.1297923922538757,0.9301744103431702,0.3807584345340729,-0.0353046432137489,0.803622305393219,0.331335037946701,-0.0830799043178558,0.7302320003509521,0.3791396021842956,-0.1137084141373634,0.684901773929596,0.4252307415008545,-0.129602164030075,0.9455975890159608,0.4295706152915954,-0.055772814899683,0.8261221051216125,0.3829326629638672,-0.1053813248872757,0.7488811016082764,0.4234920144081116,-0.1227387338876724,0.6973476409912109,0.4601702392101288,-0.1257794946432113,0.9413873553276062,0.4984574019908905,-0.0766504257917404,0.8322495818138123,0.4839764535427093,-0.1205894127488136,0.7672545313835144,0.4938583374023437,-0.1360776126384735,0.7188069224357605,0.5011550188064575,-0.1385741084814071
2023-08-01 16:06:10.799192,7,784,0.7313427925109863,0.2068658322095871,-0.0560385920107364,0.6474595665931702,-0.43896484375,0.84619140625,0.12890625,0.8909390568733215,0.7166346907615662,-9.831693432715838e-07,0.8080437183380127,0.6241636276245117,-0.0140587780624628,0.7466067671775818,0.5325725078582764,-0.0361599810421466,0.6948338747024536,0.4749670028686523,-0.0611863285303115,0.6594825983047485,0.4238272905349731,-0.0849858075380325,0.8887821435928345,0.3610613346099853,-0.0210694801062345,0.7889547348022461,0.3172266781330108,-0.0695104524493217,0.7202105522155762,0.3426240980625152,-0.1073684692382812,0.6739105582237244,0.3811576068401336,-0.1298384964466095,0.9201921224594116,0.3827444612979889,-0.037468247115612,0.7946444749832153,0.3289968371391296,-0.0843110531568527,0.7196274995803833,0.3784943222999573,-0.1129321530461311,0.6743253469467163,0.4264333248138428,-0.1275309473276138,0.9343119263648988,0.4311971664428711,-0.0581379607319831,0.8143094182014465,0.3802825212478637,-0.1071137189865112,0.7364286184310913,0.4213027358055115,-0.123195394873619,0.6848599314689636,0.4597675502300262,-0.1256461590528488,0.9286211729049684,0.5004053115844727,-0.0791157037019729,0.8162413835525513,0.4854666888713836,-0.12298384308815,0.7519626021385193,0.4938770532608032,-0.1381510645151138,0.7049018144607544,0.5000745058059692,-0.1404486745595932
2023-08-01 16:06:10.848417,8,785,0.7332813143730164,0.1979228854179382,-0.0543141514062881,0.6482090950012207,-0.48193359375,0.8447265625,0.12939453125,0.8555023670196533,0.72430819272995,-1.017467184283305e-06,0.7539317607879639,0.629332423210144,-0.0080089904367923,0.6949583292007446,0.5316182374954224,-0.0241711810231208,0.6506207585334778,0.4686959087848663,-0.0441574528813362,0.6184320449829102,0.4235474765300751,-0.0645117685198783,0.8342286944389343,0.3512014150619507,-0.01469162479043,0.7182178497314453,0.3156399726867676,-0.0560158602893352,0.6435104608535767,0.3470445871353149,-0.0908158048987388,0.5913111567497253,0.3884588181972503,-0.1119940504431724,0.8631613850593567,0.3725717961788177,-0.0328338965773582,0.7249979376792908,0.3262562453746795,-0.0693602487444877,0.6451681852340698,0.3701390027999878,-0.0957261323928833,0.5939807295799255,0.4174375534057617,-0.1116193979978561,0.874021053314209,0.424663245677948,-0.0542177446186542,0.7411532402038574,0.3762040138244629,-0.0939090400934219,0.6602259874343872,0.414799302816391,-0.110685110092163,0.607587456703186,0.4519231021404266,-0.1165486946702003,0.865854024887085,0.5009804964065552,-0.0758274793624877,0.7444188594818115,0.488314151763916,-0.11322733014822,0.6770249009132385,0.4955616891384125,-0.1273344457149505,0.6274430751800537,0.5034134984016418,-0.1307689696550369
2023-08-01 16:06:10.901579,9,786,0.7343609929084778,0.1927139014005661,-0.0540588609874248,0.6485775709152222,-0.478515625,0.84765625,0.10693359375,0.8392624258995056,0.7253653407096863,-9.969992333935809e-07,0.7406383752822876,0.6248679161071777,-0.00100831722375,0.6764876246452332,0.5322256088256836,-0.0179799366742372,0.624197781085968,0.4798870682716369,-0.0406066067516803,0.5864982604980469,0.4365583062171936,-0.0634443461894989,0.8176051378250122,0.349750816822052,-0.0068425922654569,0.7017478942871094,0.3195517063140869,-0.0522357411682605,0.6284534335136414,0.3498919010162353,-0.091683343052864,0.5775920152664185,0.3856629133224487,-0.1154465302824974,0.8473085165023804,0.3700807094573974,-0.0295100472867488,0.7086689472198486,0.3288800716400146,-0.0679791420698165,0.6313012838363647,0.3725031614303589,-0.096285305917263,0.5798987746238708,0.4147453010082245,-0.1134477853775024,0.8586800694465637,0.4204439520835876,-0.0555388107895851,0.7288568615913391,0.3771113157272339,-0.0961813926696777,0.6478655934333801,0.4122924208641052,-0.112692043185234,0.590334415435791,0.4442847073078155,-0.1186100095510482,0.8479741215705872,0.4936261475086212,-0.0811555385589599,0.7310320734977722,0.487297385931015,-0.1174900904297828,0.6642780900001526,0.4998276531696319,-0.1297014653682708,0.6123809814453125,0.5087506175041199,-0.1320710778236389
2023-08-01 16:06:10.966323,10,787,0.7361335158348083,0.1860678493976593,-0.0514019839465618,0.6487249135971069,-0.47119140625,0.84619140625,0.09033203125,0.8280560970306396,0.7221192121505737,-9.89797285910754e-07,0.7293407320976257,0.6232787370681763,0.0010099905775859,0.6637433767318726,0.531396746635437,-0.0156630873680114,0.6107273697853088,0.4786531925201416,-0.0384401008486747,0.5727301239967346,0.4321725368499756,-0.0617667026817798,0.8044465184211731,0.3528617620468139,-0.0072139450348913,0.6871020197868347,0.3173027634620666,-0.0522438064217567,0.6122720241546631,0.3411230444908142,-0.0913457423448562,0.5593119859695435,0.3742175102233886,-0.1152358725666999,0.8325523734092712,0.3745251297950744,-0.0313215851783752,0.6935596466064453,0.3255982398986816,-0.0707414522767067,0.6152383089065552,0.3677940964698791,-0.0992864593863487,0.5628994107246399,0.4105651080608368,-0.1168335452675819,0.8413454294204712,0.4251180291175842,-0.0584674291312694,0.7130838632583618,0.3744049668312073,-0.0990837290883064,0.6330901980400085,0.4114719033241272,-0.1150655969977378,0.5769631266593933,0.4457349181175232,-0.1210165917873382,0.8288549780845642,0.498153805732727,-0.0850315317511558,0.7115128636360168,0.4857989549636841,-0.1214976236224174,0.6445493698120117,0.4963593184947967,-0.1339401453733444,0.593463659286499,0.5044633150100708,-0.1370446383953094
2023-08-01 16:06:11.028640,11,788,0.7375790476799011,0.179326981306076,-0.0490309186279773,0.6491648554801941,-0.50048828125,0.85791015625,0.08642578125,0.8222209215164185,0.7211785316467285,-1.0089986517414218e-06,0.7188996076583862,0.6200748682022095,0.0023700904566794,0.6520419716835022,0.5291813015937805,-0.0154514592140913,0.5978119969367981,0.4756907224655151,-0.0396106168627738,0.5575588345527649,0.4312358498573303,-0.064167745411396,0.790061354637146,0.3523250818252563,-0.0090965945273637,0.6712099313735962,0.3145750761032104,-0.0552285760641098,0.595726490020752,0.3445160984992981,-0.0945514217019081,0.5434956550598145,0.3834507167339325,-0.1185451075434684,0.817615807056427,0.3731842339038849,-0.0344653129577636,0.6772668957710266,0.3227887153625488,-0.0757803693413734,0.5992445349693298,0.3725124299526214,-0.1041908785700798,0.548410952091217,0.4223412275314331,-0.1212342754006385,0.8265305757522583,0.4231851398944855,-0.0626721680164337,0.697670042514801,0.3713524043560028,-0.102779172360897,0.618402361869812,0.4122391641139984,-0.118131935596466,0.5636288523674011,0.4505743682384491,-0.1241404488682746,0.8152662515640259,0.4964134991168976,-0.090305283665657,0.6971743106842041,0.4870899617671966,-0.1259747445583343,0.6293392777442932,0.4994465112686157,-0.1385127305984497,0.5781040787696838,0.5090322494506836,-0.1422091275453567
2023-08-01 16:06:11.088529,12,789,0.7386627197265625,0.1714915037155151,-0.0473700873553752,0.6501723527908325,-0.49462890625,0.83056640625,0.1220703125,0.7898661494255066,0.719413161277771,-9.759399972608662e-07,0.6767081618309021,0.6208981275558472,0.0020890750456601,0.6038396954536438,0.5300859808921814,-0.0179339870810508,0.547000527381897,0.4769357144832611,-0.0440600179135799,0.5066013336181641,0.4382694661617279,-0.0712722688913345,0.7470707893371582,0.3506928086280823,-0.0181221961975097,0.6165050268173218,0.3083090186119079,-0.0637688264250755,0.5380351543426514,0.3453669548034668,-0.1008636280894279,0.4879719018936157,0.3889343440532684,-0.1240117028355598,0.7722188830375671,0.3720051050186157,-0.043453998863697,0.6143150329589844,0.3155019879341125,-0.0863910838961601,0.5343219041824341,0.3706861734390259,-0.1151473075151443,0.485814094543457,0.4266393482685089,-0.1330950707197189,0.7785175442695618,0.4221557676792145,-0.0707476735115051,0.6311508417129517,0.3659287691116333,-0.1103719994425773,0.5506648421287537,0.4118770956993103,-0.1266148388385772,0.4982356131076813,0.457105815410614,-0.1339055746793747,0.7666215300559998,0.4956380128860473,-0.0973797664046287,0.64281165599823,0.4861645698547363,-0.132997065782547,0.5737703442573547,0.49607715010643,-0.1484020352363586,0.5220894813537598,0.5053941011428833,-0.1548329889774322
2023-08-01 16:06:11.151640,13,790,0.7395392060279846,0.161829873919487,-0.0458470694720745,0.6517598032951355,-0.486328125,0.82421875,0.1181640625,0.7755125761032104,0.7127586007118225,-1.0236552725473302e-06,0.6637464165687561,0.6098337173461914,0.0065114591270685,0.5911355018615723,0.5247313976287842,-0.0121798245236277,0.5336291790008545,0.4739660024642944,-0.038094226270914,0.4938713312149048,0.4289041459560394,-0.0646750628948211,0.7431111335754395,0.3404096961021423,-0.0132542187348008,0.6110073328018188,0.3041337132453918,-0.0576560385525226,0.5325045585632324,0.3430767357349396,-0.0950287282466888,0.4851009845733642,0.3903571963310241,-0.1183824092149734,0.7641568779945374,0.3613308370113373,-0.0397006385028362,0.6104762554168701,0.3127938508987427,-0.0794847607612609,0.531391978263855,0.3662348687648773,-0.1084345057606697,0.4814453125,0.4192753136157989,-0.1278646141290664,0.7661405801773071,0.4119753241539001,-0.0675292015075683,0.6208200454711914,0.3657386898994446,-0.1038886830210685,0.5410747528076172,0.4105755090713501,-0.1193898022174835,0.4860442280769348,0.4521084725856781,-0.1277897357940673,0.7483561635017395,0.4867518842220306,-0.094327263534069,0.6249030828475952,0.4775592982769012,-0.1261902153491974,0.5586757063865662,0.4889191091060638,-0.1388875693082809,0.509112536907196,0.4965486526489258,-0.1444818526506424
2023-08-01 16:06:11.208635,14,791,0.7404884696006775,0.1554371863603592,-0.0458548963069915,0.6522372961044312,-0.5029296875,0.8271484375,0.1630859375,0.7661604881286621,0.7115558981895447,-1.0419719274068484e-06,0.6497800946235657,0.6078147888183594,0.0061633354052901,0.5799965262413025,0.5211876034736633,-0.0113322893157601,0.526255190372467,0.467517614364624,-0.0351907014846801,0.489273190498352,0.4195768237113952,-0.0597364231944084,0.7336977124214172,0.3382821083068847,-0.0197078548371791,0.5963916778564453,0.3015839457511902,-0.0611805655062198,0.5183790922164917,0.3449861407279968,-0.0944099351763725,0.4725703001022339,0.3946485221385956,-0.1153853386640548,0.7520396709442139,0.3602031171321869,-0.0443737916648387,0.5937914848327637,0.3155573606491089,-0.0814790278673172,0.5152113437652588,0.3709519505500793,-0.1064990013837814,0.4672196209430694,0.4245926141738891,-0.1242290586233139,0.7500441670417786,0.412517786026001,-0.0698556154966354,0.6004354357719421,0.3674849569797516,-0.1043907552957534,0.5214239358901978,0.4122903048992157,-0.1187554597854614,0.4683229029178619,0.4543034732341766,-0.127554178237915,0.7289950251579285,0.4894236922264099,-0.0942309722304344,0.603084146976471,0.4851051270961761,-0.1275478601455688,0.5357612371444702,0.4966935515403747,-0.1423105299472808,0.4857698082923889,0.5056801438331604,-0.1495292335748672
2023-08-01 16:06:11.271506,15,792,0.741873562335968,0.1481491923332214,-0.0451138950884342,0.6524108648300171,-0.47119140625,0.830078125,0.1484375,0.7223101854324341,0.7043148279190063,-9.56220446823863e-07,0.5989641547203064,0.6065218448638916,0.0139297749847173,0.5304059982299805,0.5121926069259644,0.0002208261284977,0.4747982323169708,0.4556299149990082,-0.020658703520894,0.4284912347793579,0.4157160818576813,-0.0444077514111995,0.668148934841156,0.3281906843185425,-0.0176283102482557,0.5264776945114136,0.3025158047676086,-0.0512032061815261,0.4496882557868957,0.3397516012191772,-0.0784700587391853,0.3990402519702911,0.3773022890090942,-0.0974729061126709,0.6830005645751953,0.3511772155761719,-0.045964166522026,0.5202978849411011,0.3095626533031463,-0.0780303850769996,0.4407412111759186,0.3646039366722107,-0.0995764285326004,0.3898484110832214,0.4129498898983001,-0.1166514605283737,0.6777533888816833,0.4073717594146728,-0.073701374232769,0.5252156853675842,0.3630208969116211,-0.1061497405171394,0.4459092617034912,0.4113182127475738,-0.1214321926236152,0.3934102654457092,0.4521237909793854,-0.1319797188043594,0.6554456353187561,0.4880266785621643,-0.0994299873709678,0.5350956916809082,0.480094701051712,-0.1322002708911895,0.4669385850429535,0.4899916350841522,-0.1490605473518371,0.4156866669654846,0.496542751789093,-0.1594363003969192
2023-08-01 16:06:11.334935,16,793,0.7432499527931213,0.1430932432413101,-0.0445271879434585,0.6520131230354309,-0.50146484375,0.83740234375,0.14404296875,0.7046679854393005,0.7086975574493408,-1.0150341722692249e-06,0.5883643627166748,0.6103753447532654,0.017082517966628,0.5153604745864868,0.5168530941009521,0.0028503597714006,0.4551623463630676,0.4609346985816955,-0.0188078172504901,0.4073730111122131,0.4154980778694153,-0.0428905338048934,0.655266523361206,0.3309301435947418,-0.0223671551793813,0.5065972208976746,0.3060814142227173,-0.0575091987848281,0.4262341260910034,0.3449549376964569,-0.0838388353586196,0.3800535798072815,0.3863212764263153,-0.1019518449902534,0.6678475141525269,0.3528496325016022,-0.0524330586194992,0.5010321736335754,0.3121706843376159,-0.0871370136737823,0.4224876761436462,0.3672068417072296,-0.1083555370569229,0.3759652972221374,0.425295889377594,-0.1248149499297142,0.6615793704986572,0.4083830714225769,-0.0811434388160705,0.5032796859741211,0.3655253052711487,-0.1136643588542938,0.4264283180236816,0.4172099828720093,-0.1278873234987259,0.3780052065849304,0.4658811688423157,-0.1387815922498703,0.6394756436347961,0.4876413643360138,-0.1075006574392318,0.5172415971755981,0.4864968955516815,-0.1418772935867309,0.4465184807777405,0.5018719434738159,-0.1603360027074813,0.3932607769966125,0.5132034420967102,-0.1722970753908157
2023-08-01 16:06:11.399202,17,794,0.7442834377288818,0.1399822831153869,-0.0437507964670658,0.6515620350837708,-0.4931640625,0.8515625,0.126953125,0.6908461451530457,0.709954559803009,-9.85796759778168e-07,0.5762171149253845,0.6123126149177551,0.0198676995933055,0.5042386651039124,0.5190556049346924,0.0058710263110697,0.443609744310379,0.4602738618850708,-0.016008285805583,0.3940196931362152,0.4159153699874878,-0.0406036749482154,0.6431550979614258,0.3352504372596741,-0.020807284861803,0.4904329180717468,0.3026567995548248,-0.0554182603955268,0.4086994230747223,0.3344736695289612,-0.0810587257146835,0.3627426028251648,0.3701095283031463,-0.0984087660908699,0.6543107032775879,0.3569854497909546,-0.0517616234719753,0.4847288131713867,0.310799241065979,-0.0846020057797432,0.4049446284770965,0.3621585965156555,-0.1040648743510246,0.3591513037681579,0.4177005887031555,-0.1195561215281486,0.6463766098022461,0.4111815690994262,-0.0810800194740295,0.4868208169937134,0.3653888702392578,-0.1118848547339439,0.4088921546936035,0.414783626794815,-0.1247220709919929,0.3607920408248901,0.4623995721340179,-0.1350344568490982,0.6218498945236206,0.4880677461624145,-0.1078966185450553,0.5024573802947998,0.4849377274513244,-0.1412782967090606,0.4355031847953796,0.500664234161377,-0.1587956994771957,0.3861936330795288,0.5131250619888306,-0.1700808256864547
2023-08-01 16:06:11.456860,18,795,0.7447570562362671,0.1366088688373565,-0.0418943502008914,0.6518586874008179,-0.48046875,0.8427734375,0.169921875,0.6812075972557068,0.7108503580093384,-1.024321477416379e-06,0.5654259324073792,0.617843508720398,0.0193970408290624,0.4954214990139007,0.5245628356933594,0.0055519915185868,0.4353127479553222,0.4651438295841217,-0.0168521516025066,0.3840689361095428,0.4197452068328857,-0.0418516099452972,0.6299190521240234,0.3355504274368286,-0.0193451587110757,0.4773473441600799,0.2997949719429016,-0.0552986338734626,0.3974838852882385,0.3406108915805816,-0.0810312405228614,0.3563242554664612,0.3861680328845978,-0.0976926684379577,0.6422640085220337,0.3569181859493255,-0.0504894293844699,0.4718129336833954,0.3110520243644714,-0.0846693888306617,0.3929200768470764,0.3685896098613739,-0.1045837327837944,0.3501001298427582,0.4266859591007232,-0.119650661945343,0.6358720660209656,0.4110469222068786,-0.0803973525762558,0.4740571677684784,0.3678979575634002,-0.1128736287355423,0.3950265645980835,0.4222215414047241,-0.1259039342403412,0.3474748134613037,0.4720532298088074,-0.1355008035898208,0.6115843057632446,0.4874906539916992,-0.1078189238905906,0.4909559786319732,0.4818476736545563,-0.1411933749914169,0.4235904216766357,0.4980433583259582,-0.1579997539520263,0.3743872046470642,0.5098453164100647,-0.1684131473302841
2023-08-01 16:06:11.515900,19,796,0.7450361847877502,0.1337371170520782,-0.0412350669503212,0.6521772146224976,-0.49609375,0.82666015625,0.13525390625,0.655556321144104,0.7155396938323975,-1.049071784109401e-06,0.5312262773513794,0.625572681427002,0.0188782289624214,0.4598003625869751,0.5294389724731445,0.0059817833825945,0.3980761766433716,0.4698202908039093,-0.0150408912450075,0.3448951840400696,0.4277235269546509,-0.0382346175611019,0.5924562811851501,0.3365245461463928,-0.02183155156672,0.4435718059539795,0.2931435704231262,-0.0592979826033115,0.3640938401222229,0.3414818048477173,-0.0843889191746711,0.3215426504611969,0.390319287776947,-0.1000784859061241,0.6044631600379944,0.3595626056194305,-0.0522963516414165,0.4299280345439911,0.3081045150756836,-0.0885322540998458,0.352898895740509,0.373578280210495,-0.1053477451205253,0.3135467767715454,0.4368302822113037,-0.1167494356632232,0.5971852540969849,0.4150920808315277,-0.0820488706231117,0.4320384263992309,0.3705970048904419,-0.1138922721147537,0.3554848432540893,0.4259542226791382,-0.1235189288854599,0.3101310133934021,0.475177526473999,-0.1300015598535537,0.5746199488639832,0.4931410849094391,-0.1097445115447044,0.4546775817871094,0.4880161583423614,-0.140756070613861,0.3842311799526214,0.5021334886550903,-0.156257078051567,0.3306496143341064,0.5132572054862976,-0.1657294034957885
2023-08-01 16:06:11.567347,20,797,0.7455317378044128,0.1309226602315902,-0.038931094110012,0.6523235440254211,-0.533203125,0.85107421875,0.115234375,0.646765947341919,0.7125375270843506,-1.032158252201043e-06,0.5271354913711548,0.6239641308784485,0.0203353092074394,0.453936904668808,0.5382228493690491,0.0039244992658495,0.3866145312786102,0.4862858355045318,-0.0205924119800329,0.3273840546607971,0.4502589404582977,-0.0478387661278247,0.5880386829376221,0.3334509432315826,-0.0240916833281517,0.4342662096023559,0.286614716053009,-0.0588330514729023,0.3541974425315857,0.3364169895648956,-0.0818606317043304,0.3172935247421264,0.3912070691585541,-0.0961940661072731,0.597453236579895,0.3547344803810119,-0.0544879548251628,0.4181497693061828,0.2970771789550781,-0.0869508683681488,0.342984527349472,0.3656838536262512,-0.1026873141527175,0.3093634843826294,0.4331362545490265,-0.1145080998539924,0.5882811546325684,0.4098694324493408,-0.0830039381980896,0.4210121035575866,0.3557099997997284,-0.1119756400585174,0.348162829875946,0.4133582711219787,-0.1206463351845741,0.3087154030799866,0.4690825343132019,-0.1276575773954391,0.5621311068534851,0.4872107803821563,-0.1087603121995925,0.4375311434268951,0.4810301065444946,-0.1376418769359588,0.3737503886222839,0.5009375214576721,-0.1501583606004715,0.3291387557983398,0.5174586176872253,-0.1579082310199737
2023-08-01 16:06:11.628837,21,798,0.7450209259986877,0.1278960704803466,-0.0373496152460575,0.6535988450050354,-0.47265625,0.84814453125,0.0966796875,0.6414246559143066,0.7167588472366333,-1.0529508926993003e-06,0.5180713534355164,0.6248220205307007,0.0253327321261167,0.4459854662418365,0.5383914113044739,0.0105405999347567,0.3795865178108215,0.4854134321212768,-0.0136401765048503,0.3226626813411712,0.4454859495162964,-0.0404121913015842,0.5813013315200806,0.3360943794250488,-0.0184404980391263,0.4295063316822052,0.2827167510986328,-0.0543973073363304,0.3489125370979309,0.3298690319061279,-0.078677088022232,0.3083834648132324,0.3838770389556885,-0.0932071059942245,0.5910268425941467,0.3561497628688812,-0.0514268726110458,0.4112433493137359,0.2935009002685547,-0.0832573696970939,0.3347154557704925,0.3594921231269836,-0.0982042923569679,0.298515111207962,0.4260110557079315,-0.1092617288231849,0.5825207233428955,0.4103099405765533,-0.0825314149260521,0.4139661788940429,0.3549692034721374,-0.1097155734896659,0.339422345161438,0.4108923673629761,-0.1157511621713638,0.2966977953910827,0.4635444283485412,-0.1211039572954177,0.5561756491661072,0.4874386191368103,-0.1108622029423713,0.4326736330986023,0.4804558455944061,-0.1366138011217117,0.3668457567691803,0.4969727993011474,-0.146309807896614,0.3189094662666321,0.5085009336471558,-0.1523753851652145
2023-08-01 16:06:11.696730,22,799,0.7446563243865967,0.1230203434824943,-0.037964329123497,0.6549134254455566,-0.46044921875,0.830078125,0.12744140625,0.6351186037063599,0.7173107862472534,-1.074470674211625e-06,0.5103261470794678,0.6242647767066956,0.0272270068526268,0.4384018182754516,0.540635347366333,0.0132187800481915,0.372573584318161,0.4893779158592224,-0.0107895173132419,0.3167069554328918,0.4493491649627685,-0.0376176573336124,0.5758264660835266,0.3388457596302032,-0.0157537050545215,0.4211968779563904,0.2861617505550384,-0.0511344783008098,0.3410638272762298,0.3331114947795868,-0.0749042332172393,0.3019818067550659,0.3858023285865783,-0.0888841077685356,0.5845881104469299,0.3598519265651703,-0.0488057360053062,0.4038982987403869,0.2978569567203522,-0.0801793187856674,0.3281633853912353,0.365361213684082,-0.0939464941620826,0.2930327653884887,0.4322654008865356,-0.1039864346385002,0.5749952793121338,0.4139341711997986,-0.080003909766674,0.4065892994403839,0.3598698377609253,-0.1069167330861091,0.3327020406723022,0.4145095348358154,-0.1119096055626869,0.2909774780273437,0.4664168953895569,-0.1162431761622428,0.5478302836418152,0.489775002002716,-0.1083216592669487,0.4247714281082153,0.4820060729980469,-0.1331630051136016,0.3595267832279205,0.4968146979808807,-0.1421205699443817,0.3121472597122192,0.5070840120315552,-0.1476310640573501
2023-08-01 16:06:11.760688,23,800,0.7450254559516907,0.1199488639831543,-0.0357461348176002,0.6551881432533264,-0.5009765625,0.849609375,0.1474609375,0.6155475974082947,0.7081923484802246,-1.042453959598788e-06,0.4866100251674652,0.6171197891235352,0.0262784473598003,0.4126493036746979,0.5310552716255188,0.0131213590502738,0.3429073095321655,0.4814841151237488,-0.0091503383591771,0.2833514213562011,0.4484059810638428,-0.0341571271419525,0.5501334071159363,0.3314380049705505,-0.0180780347436666,0.4026412069797516,0.2838406264781952,-0.0506767220795154,0.3231490850448608,0.3369647264480591,-0.0722420290112495,0.2828619182109833,0.3905165493488312,-0.0854585394263267,0.5581187605857849,0.3521508872509002,-0.0495488345623016,0.3812646269798279,0.2981858253479004,-0.07957274466753,0.3057426214218139,0.3646202087402344,-0.092411383986473,0.2690615057945251,0.43208047747612,-0.1021190583705902,0.54632568359375,0.4073679149150848,-0.0789185091853141,0.3778606653213501,0.3582364618778229,-0.1044547781348228,0.3052011728286743,0.412011444568634,-0.1098159626126289,0.2635807394981384,0.4636211395263672,-0.1147609055042266,0.5180147886276245,0.4849956631660461,-0.1053371876478195,0.3953681588172912,0.4784652590751648,-0.1295130252838134,0.3285982012748718,0.4939205050468445,-0.1392165571451187,0.2789674401283264,0.5065743327140808,-0.1454483419656753
2023-08-01 16:06:11.830941,24,801,0.7445641756057739,0.1164802238345146,-0.0351127535104751,0.6563714742660522,-0.48095703125,0.81494140625,0.16650390625,0.6070974469184875,0.707209587097168,-1.0894228807956097e-06,0.4859973490238189,0.6213749647140503,0.0298878494650125,0.4143721759319305,0.5364673733711243,0.0187418460845947,0.3462972044944763,0.4912416040897369,-0.0025150617584586,0.2863820791244507,0.462693303823471,-0.0270096696913242,0.5468376874923706,0.3279098570346832,-0.0121638579294085,0.3945713937282562,0.288182258605957,-0.0438200868666172,0.3147437572479248,0.3438743948936462,-0.066237948834896,0.2757565677165985,0.4012618064880371,-0.0799718126654625,0.5512265563011169,0.3466979265213012,-0.0450813323259353,0.373384565114975,0.2974638342857361,-0.0723689198493957,0.2949158549308777,0.3626376092433929,-0.0859075710177421,0.2561846077442169,0.4310187995433807,-0.0970923751592636,0.5375134348869324,0.4017031490802765,-0.0758410021662712,0.3684322834014892,0.3554424047470093,-0.0997010692954063,0.2938562631607055,0.4072074294090271,-0.1057081669569015,0.2513951063156128,0.4584872722625732,-0.1119217127561569,0.5068607926368713,0.4803404808044433,-0.1034422144293785,0.3830419778823852,0.4707655310630798,-0.1266446560621261,0.3164166510105133,0.4856470823287964,-0.1358194202184677,0.2678736746311188,0.4971641302108764,-0.1422525197267532
2023-08-01 16:06:11.888854,25,802,0.7445825338363647,0.1147148460149765,-0.0362654812633991,0.6565988659858704,-0.49365234375,0.8095703125,0.16845703125,0.5863127708435059,0.7019633650779724,-1.0584375331745832e-06,0.4597057998180389,0.6117042303085327,0.0320902839303016,0.3870190680027008,0.5299091339111328,0.0224079303443431,0.3160284161567688,0.4865527749061584,0.0023304575588554,0.2568515241146087,0.4586550295352936,-0.021328043192625,0.5229302644729614,0.3295093774795532,-0.0115076676011085,0.3726361691951751,0.2899647057056427,-0.0408883057534694,0.2934920489788055,0.3428522944450378,-0.060984443873167,0.2514714300632477,0.3968115746974945,-0.073873184621334,0.529016375541687,0.3453645706176758,-0.0452857688069343,0.3489507138729095,0.2921676635742187,-0.0729025602340698,0.2730306982994079,0.3587607443332672,-0.0865978896617889,0.2348574846982956,0.4281635284423828,-0.0973066762089729,0.516255259513855,0.3988729417324066,-0.0761322379112243,0.3424966335296631,0.3518118858337402,-0.1004109904170036,0.2682712078094482,0.4073653817176819,-0.1075850203633308,0.2255272567272186,0.4600946009159088,-0.1141239553689956,0.4869371652603149,0.4766750037670135,-0.1034049540758133,0.3599510192871094,0.4698529839515686,-0.1296497583389282,0.2891592383384704,0.4884691834449768,-0.1416826993227005,0.2369526922702789,0.5051507353782654,-0.1493600308895111
2023-08-01 16:06:11.975427,26,803,0.74532550573349,0.1151897460222244,-0.0368204712867736,0.6556413173675537,-0.4912109375,0.83740234375,0.13916015625,0.5850757360458374,0.6997342109680176,-1.1105232715635791e-06,0.4635795056819916,0.6137975454330444,0.037242904305458,0.3874658942222595,0.5338590741157532,0.0307957157492637,0.3160183727741241,0.4901844561100006,0.0126782217994332,0.2570249736309051,0.4629039168357849,-0.0087225753813982,0.514317512512207,0.3292295932769775,-0.0052378121763467,0.3629288077354431,0.2903843522071838,-0.0305334236472845,0.2877542972564697,0.3448498845100403,-0.0468634255230426,0.2499989122152328,0.4030505120754242,-0.0570891834795475,0.5189551115036011,0.344515860080719,-0.0404968149960041,0.3400211930274963,0.2982035279273987,-0.0625004917383194,0.2660179138183594,0.3609368801116943,-0.072698026895523,0.2298899292945861,0.4295815825462341,-0.0820675045251846,0.5072783827781677,0.3969489932060241,-0.0726621225476265,0.3350169658660888,0.3553977012634277,-0.092893861234188,0.2641555070877075,0.4087797701358795,-0.0966485440731048,0.224601462483406,0.461652547121048,-0.1017234325408935,0.4799235463142395,0.4740894138813019,-0.1011582985520362,0.3520360291004181,0.4687373042106628,-0.1251370310783386,0.2840976119041443,0.4868715703487396,-0.1347902566194534,0.2346538752317428,0.502440869808197,-0.1409482806921005
2023-08-01 16:06:12.059966,27,804,0.7451193928718567,0.1169586554169654,-0.0376958772540092,0.6555126905441284,-0.48095703125,0.84130859375,0.142578125,0.5796941518783569,0.6963942646980286,-1.0916812698269496e-06,0.4585230350494385,0.6104966402053833,0.036979753524065,0.3811388909816742,0.5298963785171509,0.0303391944617033,0.3091082572937011,0.4880223870277405,0.012296425178647,0.2492711097002029,0.4644089937210083,-0.0090770684182643,0.5124639272689819,0.3249162137508392,-0.0065078088082373,0.3600808084011078,0.2904567718505859,-0.0321047641336917,0.2845610976219177,0.3448848128318786,-0.0491699054837226,0.24594447016716,0.4023914337158203,-0.0601880252361297,0.5172715783119202,0.3403750658035278,-0.0419149063527584,0.3372255861759186,0.2964692413806915,-0.0641072615981102,0.2632803320884704,0.3585033416748047,-0.0749558061361312,0.2266062498092651,0.426287442445755,-0.0853267684578895,0.5056325197219849,0.3941424489021301,-0.0741477608680725,0.3314483165740967,0.3557906746864319,-0.0951451361179351,0.2599800229072571,0.4091865420341491,-0.1005198284983635,0.2197803407907486,0.4618480503559112,-0.1070186346769332,0.477784126996994,0.473055750131607,-0.1025751382112503,0.3484604358673095,0.4701218903064728,-0.1280150562524795,0.2798776626586914,0.4898734092712402,-0.139378473162651,0.2302541136741638,0.5068746209144592,-0.1469959467649459
2023-08-01 16:06:12.142694,28,805,0.7445845603942871,0.1206707209348678,-0.0383999049663543,0.6554065346717834,-0.51806640625,0.84033203125,0.16259765625,0.5810180902481079,0.7014055848121643,-1.118115619647142e-06,0.4615418612957001,0.6129782199859619,0.035974059253931,0.3871533274650574,0.5327222347259521,0.0282451678067445,0.3170467019081116,0.4914643168449402,0.0093578398227691,0.2590949535369873,0.4669331014156341,-0.0128861404955387,0.5162419676780701,0.32731893658638,-0.008008562028408,0.3623305559158325,0.2957093715667724,-0.0338071212172508,0.2856876254081726,0.3516500890254974,-0.0518475398421287,0.2465433031320572,0.4099965095520019,-0.0638528168201446,0.5184720158576965,0.3446488380432129,-0.0426767580211162,0.3382508456707001,0.3029697835445404,-0.0649614110589027,0.2638306021690368,0.3666391670703888,-0.0770975798368454,0.2266291826963424,0.4348069131374359,-0.0890265479683876,0.5045455098152161,0.3980533182621002,-0.0740004703402519,0.3318427801132202,0.3586419224739074,-0.0932951793074607,0.2619413137435913,0.4133908152580261,-0.0985248461365699,0.2224370837211609,0.4668227732181549,-0.1060296893119812,0.476125419139862,0.4755495190620422,-0.1017969399690628,0.3495269417762756,0.4696208834648132,-0.1255729049444198,0.2832456529140472,0.4888036847114563,-0.1361991316080093,0.2346591204404831,0.504749596118927,-0.1440942138433456
2023-08-01 16:06:12.206008,29,806,0.7434858679771423,0.1249927505850792,-0.0406663231551647,0.655707061290741,-0.4951171875,0.82763671875,0.169921875,0.5842403173446655,0.6979405283927917,-1.0892665613937424e-06,0.4638532102108001,0.6119965314865112,0.0351110696792602,0.3871775567531585,0.5343918800354004,0.0258764568716287,0.314188539981842,0.4951820969581604,0.0053982068784534,0.2540496289730072,0.4710296988487243,-0.0185611713677644,0.518040657043457,0.3288879990577698,-0.0098103517666459,0.3622519373893738,0.2974002957344055,-0.036120917648077,0.285991907119751,0.3546514511108398,-0.0540684387087821,0.2481591999530792,0.4147804081439972,-0.0658824816346168,0.5214771032333374,0.3445421457290649,-0.0451407358050346,0.3400768339633941,0.2993536591529846,-0.0683514401316642,0.2655466794967651,0.3647500574588775,-0.0803712159395217,0.2295576483011245,0.4347523152828216,-0.0917671546339988,0.5082340836524963,0.3980899453163147,-0.0771426483988761,0.3351823091506958,0.3552829325199127,-0.0972689464688301,0.2645640969276428,0.4118259251117706,-0.1023911759257316,0.2259918600320816,0.4666835069656372,-0.109365314245224,0.4793409407138824,0.4762551486492157,-0.1055832207202911,0.3513745069503784,0.4721538424491882,-0.129320278763771,0.2841758728027344,0.4931135177612304,-0.1394771784543991,0.235864520072937,0.5106344223022461,-0.1468641310930252
2023-08-01 16:06:12.258941,30,807,0.7427204251289368,0.12860007584095,-0.0400302931666374,0.6559160947799683,-0.5107421875,0.837890625,0.14404296875,0.6047555208206177,0.6963285803794861,-1.0924054549832365e-06,0.4836289882659912,0.6128141283988953,0.0292541999369859,0.4084601104259491,0.5281229019165039,0.0178568791598081,0.3406218588352203,0.4809090495109558,-0.0036450813058763,0.283267080783844,0.4491834342479706,-0.0277066230773925,0.5358150005340576,0.3246847987174988,-0.0130612887442111,0.387134313583374,0.2870147228240967,-0.0459895618259906,0.3080763518810272,0.3404853641986847,-0.0694397762417793,0.2658974230289459,0.3954728841781616,-0.0841241627931594,0.5411080121994019,0.344772458076477,-0.0463565476238727,0.3653881549835205,0.2961288094520569,-0.0733777657151222,0.2881950139999389,0.3601932823657989,-0.0855485275387764,0.2490467578172683,0.4267579317092895,-0.0962514877319336,0.5296694040298462,0.3991475999355316,-0.0779278203845024,0.3596148490905761,0.3555915355682373,-0.1014453694224357,0.2852206230163574,0.4078990221023559,-0.1058391481637954,0.2425948828458786,0.4582116901874542,-0.1114746704697609,0.5030918717384338,0.4762612581253052,-0.1066604927182197,0.3762811422348022,0.4658062160015106,-0.1314492970705032,0.3080798983573913,0.4833742380142212,-0.1410124599933624,0.2591214179992676,0.4981578588485718,-0.1477185487747192
2023-08-01 16:06:12.323296,31,808,0.7416250705718994,0.134987786412239,-0.0409688502550125,0.655813992023468,-0.49853515625,0.82421875,0.11962890625,0.610386848449707,0.6942155361175537,-1.03921547633945e-06,0.4909588396549225,0.612740159034729,0.0257598888128995,0.4156952202320099,0.529329776763916,0.0122029706835746,0.3465472161769867,0.4844131171703338,-0.010563800111413,0.2879750728607178,0.4505919814109802,-0.0356339402496814,0.5467444658279419,0.3241841793060303,-0.0207171030342578,0.3986676335334778,0.2781770825386047,-0.0559138767421245,0.3198316693305969,0.3322435021400451,-0.0795431062579155,0.279794692993164,0.388628751039505,-0.0938586667180061,0.5520606637001038,0.3428538739681244,-0.0524797104299068,0.3741964995861053,0.2896686792373657,-0.0834255591034889,0.2978729009628296,0.3558617234230041,-0.0977016389369964,0.2616529464721679,0.423119843006134,-0.1088906899094581,0.5407267808914185,0.3975299894809723,-0.0821967646479606,0.3690422475337982,0.3518189787864685,-0.1087429746985435,0.2954530119895935,0.4059309363365173,-0.1149576306343078,0.253932774066925,0.4587233662605285,-0.1207234933972358,0.513746976852417,0.476072758436203,-0.1089761033654213,0.3899747431278229,0.4660882353782654,-0.1340238153934478,0.32420414686203,0.4820345342159271,-0.1438704580068588,0.2771477103233337,0.4952830672264099,-0.1504522413015365
2023-08-01 16:06:12.387332,32,809,0.7406903505325317,0.1413631290197372,-0.0439919419586658,0.6553311347961426,-0.48828125,0.84228515625,0.13818359375,0.619576096534729,0.6934443712234497,-1.05550418538769e-06,0.4997850656509399,0.608011782169342,0.0267714727669954,0.4254908859729767,0.5233250260353088,0.0139176771044731,0.3584096729755401,0.4755345284938812,-0.0084485029801726,0.3004347085952759,0.4424925744533539,-0.0335114672780036,0.5551120042800903,0.3227415084838867,-0.0183045715093612,0.4050611555576324,0.2738986611366272,-0.0545187629759311,0.3261294960975647,0.3241806924343109,-0.0787339732050895,0.2867425084114074,0.3784497380256653,-0.092762291431427,0.5617051124572754,0.3424566388130188,-0.0504764392971992,0.3851926028728485,0.2846020460128784,-0.0815936997532844,0.3122522830963135,0.3516803383827209,-0.095046080648899,0.2792953848838806,0.4190552532672882,-0.1047948822379112,0.5515843033790588,0.3977606892585754,-0.0807356461882591,0.3822014629840851,0.3501880764961242,-0.1063029766082763,0.3106953501701355,0.4037477672100067,-0.1108474880456924,0.2706700265407562,0.4548470675945282,-0.1149981319904327,0.5254184007644653,0.476346492767334,-0.1081567704677581,0.4018741846084595,0.4628627598285675,-0.1307352632284164,0.3374878764152527,0.4769170880317688,-0.1384793519973755,0.291188895702362,0.4873887300491333,-0.1434761732816696
2023-08-01 16:06:12.448835,33,810,0.7393731474876404,0.1487241685390472,-0.0465083867311477,0.6550155878067017,-0.48388671875,0.84033203125,0.1171875,0.6299742460250854,0.7001354694366455,-1.0587060614852817e-06,0.510303795337677,0.6131801605224609,0.0258530024439096,0.4363100230693817,0.5259755849838257,0.0132723338901996,0.3697891235351562,0.4750700294971466,-0.0089661553502082,0.3132866024971008,0.4377782344818115,-0.033489741384983,0.5676681995391846,0.322881281375885,-0.0144375888630747,0.417286217212677,0.2734689116477966,-0.0504562892019748,0.3367829322814941,0.3195927739143371,-0.0756572112441062,0.2963446974754333,0.3715604841709137,-0.0904662162065506,0.5749731659889221,0.3428502678871155,-0.0464342087507247,0.4002338051795959,0.2827543318271637,-0.0770860165357589,0.3239727020263672,0.346401035785675,-0.0919618681073188,0.2873425781726837,0.4109329283237457,-0.1027569100260734,0.5653154253959656,0.3968818187713623,-0.0768483653664588,0.3987874090671539,0.3495184183120727,-0.101687453687191,0.3243580162525177,0.40047088265419,-0.1075296327471733,0.2813133001327514,0.4493436217308044,-0.1127282455563545,0.5392305850982666,0.4743110835552215,-0.1047106385231018,0.4174118936061859,0.4619743525981903,-0.1267279535531997,0.3527749180793762,0.4761245548725128,-0.1350188702344894,0.3062275052070617,0.4872849285602569,-0.1403438299894333
2023-08-01 16:06:12.510870,34,811,0.738253653049469,0.1548451483249664,-0.0481116399168968,0.6547440886497498,-0.47607421875,0.84765625,0.11865234375,0.6665884852409363,0.7026069164276123,-1.1063074225603486e-06,0.5452345609664917,0.5968221426010132,0.0238600689917802,0.4743772149085998,0.4990597069263458,0.0115116639062762,0.4142388701438904,0.4311396777629852,-0.0107230395078659,0.3643275201320648,0.3819472789764404,-0.0351313762366771,0.6008118391036987,0.3138147890567779,-0.0148858064785599,0.4496644139289856,0.2692511975765228,-0.0546972192823886,0.3692218959331512,0.3052595257759094,-0.0816200226545333,0.3255515098571777,0.3512153327465057,-0.0972764268517494,0.6172314882278442,0.3368075489997864,-0.0481945350766181,0.443359225988388,0.2848072946071625,-0.0801853612065315,0.3656859397888183,0.3397984504699707,-0.0965229049324989,0.3242976069450378,0.3939551711082458,-0.109815128147602,0.6166186332702637,0.3918225467205047,-0.0807869061827659,0.4550074338912964,0.3451995849609375,-0.1123940795660018,0.377848207950592,0.4006578326225281,-0.1214991733431816,0.3308144807815552,0.4519886374473572,-0.1283526122570037,0.5979547500610352,0.4714707434177398,-0.1107634454965591,0.4739237129688263,0.4655649363994598,-0.1410841196775436,0.4066634178161621,0.483147531747818,-0.1537790298461914,0.3569373488426208,0.4960204660892486,-0.1614709794521331
2023-08-01 16:06:12.569495,35,812,0.7373650670051575,0.1616745442152023,-0.0503667593002319,0.6539244651794434,-0.45751953125,0.85888671875,0.11328125,0.6836602687835693,0.7016603946685791,-1.091180365619948e-06,0.5590863823890686,0.5962991714477539,0.0231008101254701,0.4898916184902191,0.4961850643157959,0.012065490707755,0.4332329928874969,0.4261206984519958,-0.0079587120562791,0.3879185318946838,0.369530975818634,-0.0301023013889789,0.6150239109992981,0.3159682154655456,-0.0162927005439996,0.460085779428482,0.2719215750694275,-0.0554830729961395,0.3765439391136169,0.3024565577507019,-0.0828874409198761,0.3305028676986694,0.3425192236900329,-0.099549226462841,0.6301397681236267,0.341300904750824,-0.0485568791627883,0.4543851017951965,0.2900932431221008,-0.0804527178406715,0.3750717043876648,0.3470311462879181,-0.0975323840975761,0.3331659436225891,0.4011856615543365,-0.111813873052597,0.6283504962921143,0.3977795839309692,-0.0800069496035575,0.4661568999290466,0.3495281338691711,-0.1123470738530159,0.3889231085777282,0.4056028723716736,-0.122526116669178,0.3430405855178833,0.4556007981300354,-0.1304228901863098,0.6097760796546936,0.4761120080947876,-0.1088193580508232,0.4888395369052887,0.4693117439746856,-0.1410799771547317,0.4192755818367004,0.4849639534950256,-0.1558637470006942,0.3674997091293335,0.4964287579059601,-0.1651582419872284
2023-08-01 16:06:12.633769,36,813,0.7365512251853943,0.1675355285406112,-0.0533720701932907,0.6531275510787964,-0.47314453125,0.84228515625,0.1318359375,0.6912792921066284,0.7018173933029175,-1.0750185310826057e-06,0.56870436668396,0.590162992477417,0.0259921289980411,0.5031965374946594,0.4962120354175567,0.015194984152913,0.446905255317688,0.4341379404067993,-0.0056176385842263,0.402388721704483,0.3801277577877044,-0.0287989117205142,0.6309118270874023,0.318857192993164,-0.0100779803469777,0.4811923205852508,0.2842234671115875,-0.0470597483217716,0.3985022604465484,0.3095525503158569,-0.0743210837244987,0.3490995466709137,0.3418194651603699,-0.0915861651301384,0.644784688949585,0.3426949381828308,-0.0436914749443531,0.4758203029632568,0.2966626584529876,-0.0764481648802757,0.3986926078796386,0.3507362008094787,-0.0961791425943374,0.3545846939086914,0.4052273631095886,-0.1118092089891433,0.6418215036392212,0.3964205682277679,-0.0761536136269569,0.4827914834022522,0.3551202118396759,-0.1077284291386604,0.4077340960502624,0.4063717424869537,-0.119584210216999,0.3607409596443176,0.4543732106685638,-0.1286231130361557,0.6229270100593567,0.471518725156784,-0.1059167310595512,0.502581000328064,0.4648622870445251,-0.136564627289772,0.431688129901886,0.4811197519302368,-0.1512958258390426,0.3773058652877807,0.4967179000377655,-0.1608850657939911
2023-08-01 16:06:12.698152,37,814,0.7360450625419617,0.1741491556167602,-0.0552863292396068,0.6518074870109558,-0.4931640625,0.84423828125,0.11376953125,0.739340603351593,0.7084245085716248,-1.12741122393345e-06,0.6177780628204346,0.5946031808853149,0.0194783508777618,0.54254549741745,0.5007903575897217,0.0048549231141805,0.4802393019199371,0.4450906813144684,-0.0192238818854093,0.4349845945835113,0.4002242088317871,-0.044999074190855,0.6805534958839417,0.3164129257202148,-0.0101691018790006,0.5369296669960022,0.2933326959609985,-0.0505977645516395,0.4606979787349701,0.3327711522579193,-0.0816110223531723,0.4153827726840973,0.3749970197677612,-0.1016467586159706,0.6995167136192322,0.33828204870224,-0.0438190251588821,0.5323798060417175,0.2989738583564758,-0.0818343833088874,0.4575526714324951,0.3596639633178711,-0.1049918755888938,0.4138211011886596,0.4166638851165771,-0.1215579286217689,0.7020298838615417,0.3923688530921936,-0.0774605944752693,0.5463749766349792,0.3471112251281738,-0.1126179173588752,0.4689869880676269,0.400072306394577,-0.1242674365639686,0.4183571636676788,0.4482298493385315,-0.1314328461885452,0.6876731514930725,0.4722111821174621,-0.1090051457285881,0.5626177191734314,0.4669556617736816,-0.1413510292768478,0.494015634059906,0.4800953865051269,-0.154908001422882,0.4417611062526703,0.4875204861164093,-0.1623621433973312
2023-08-01 16:06:12.760866,38,815,0.7355872392654419,0.1798619031906128,-0.0572509579360485,0.650602400302887,-0.486328125,0.8603515625,0.1123046875,0.7531354427337646,0.7060959339141846,-1.0822235481100506e-06,0.633349597454071,0.5976542234420776,0.0220719873905181,0.5596513152122498,0.5061007738113403,0.0100174723193049,0.4996093809604645,0.4554076790809631,-0.011894054710865,0.4585434198379516,0.41228187084198,-0.03544807061553,0.6987805962562561,0.322434663772583,-0.0038507890421897,0.557443380355835,0.2996404767036438,-0.0398982539772987,0.4814442694187164,0.3428572118282318,-0.0705324113368988,0.4367933273315429,0.3891620635986328,-0.0909238010644912,0.7132909893989563,0.3405311703681946,-0.0367628224194049,0.5495843291282654,0.3006226718425751,-0.0696898400783538,0.4729588329792022,0.3577221632003784,-0.0943151265382766,0.4261386692523956,0.4177229702472687,-0.1126789823174476,0.7116724252700806,0.39197838306427,-0.0691320747137069,0.5573782324790955,0.3502468466758728,-0.0985409021377563,0.480175256729126,0.396720141172409,-0.1125309392809867,0.4283784031867981,0.4425055384635925,-0.1226899102330207,0.6937118768692017,0.4699042439460754,-0.0993078351020813,0.5703223943710327,0.4627708196640014,-0.1267484128475189,0.5010643601417542,0.4770597517490387,-0.1399153769016266,0.4477469325065613,0.488881915807724,-0.1481618732213974
2023-08-01 16:06:12.816586,39,816,0.7348237037658691,0.1835031360387802,-0.0582664012908935,0.6503580808639526,-0.49951171875,0.85888671875,0.06640625,0.7609004974365234,0.7035332918167114,-1.0539281447563551e-06,0.6413122415542603,0.6014377474784851,0.0172115936875343,0.5649980306625366,0.5142759084701538,0.0027617258019745,0.501745879650116,0.4657829105854034,-0.0206978842616081,0.4603097438812256,0.4215615093708038,-0.0452144332230091,0.7107510566711426,0.3263902068138122,-0.0074864332564175,0.572489857673645,0.3004501461982727,-0.0456257872283458,0.4958298802375793,0.3437588512897491,-0.0778998285531997,0.4500589668750763,0.3903473317623138,-0.0990918278694152,0.7264901399612427,0.3433771729469299,-0.038479384034872,0.5647179484367371,0.3013753294944763,-0.0736377909779548,0.4883268475532532,0.3599737882614136,-0.0995007902383804,0.4415805041790008,0.4192128181457519,-0.1181313320994377,0.7255429625511169,0.3936493396759033,-0.0693094804883003,0.5718285441398621,0.3504922389984131,-0.1005450785160064,0.4950593709945678,0.3975626230239868,-0.1138087213039398,0.4433882534503937,0.44367116689682,-0.1226096451282501,0.706085205078125,0.4705150425434112,-0.0983018651604652,0.5814101696014404,0.4625459015369415,-0.1265003085136413,0.5129204988479614,0.4749040305614471,-0.1387162059545517,0.4606845378875732,0.4854232370853424,-0.1455768048763275
2023-08-01 16:06:12.888761,40,817,0.7327702045440674,0.1896084249019622,-0.0578309185802936,0.6509624123573303,-0.50146484375,0.85498046875,0.08935546875,0.7692770957946777,0.7033390402793884,-1.0470852203070535e-06,0.6541334390640259,0.6025339961051941,0.0126659106463193,0.5746491551399231,0.5166082382202148,-0.0044412212446331,0.5103699564933777,0.468898594379425,-0.0295685734599828,0.4685892164707184,0.4272091388702392,-0.0551918670535087,0.7217613458633423,0.3289052248001098,-0.0130950827151536,0.5860500335693359,0.2996870577335357,-0.0547547005116939,0.5101975798606873,0.3423775732517242,-0.0885343626141548,0.4634885489940643,0.390021413564682,-0.1099461242556572,0.738407552242279,0.3474524319171905,-0.0422481037676334,0.5774667859077454,0.3010766506195068,-0.08113694190979,0.5027735829353333,0.3607733845710754,-0.107321098446846,0.4577349126338959,0.4214449524879455,-0.1247642040252685,0.7386954426765442,0.3971536755561828,-0.0716893449425697,0.587012767791748,0.354758083820343,-0.1048545241355896,0.5112233757972717,0.4012414515018463,-0.1176994070410728,0.4605045914649963,0.4473081529140472,-0.125014990568161,0.7211557626724243,0.4719022512435913,-0.0997162088751792,0.5989997386932373,0.4632220566272735,-0.1284576058387756,0.5317912101745605,0.4748517870903015,-0.1404880434274673,0.4807245135307312,0.4851595163345337,-0.1464755684137344
2023-08-01 16:06:12.967724,41,818,0.7308903932571411,0.1944655627012252,-0.0591077022254467,0.651528000831604,-0.45703125,0.84326171875,0.14697265625,0.7944828867912292,0.7061550617218018,-1.0441980293762754e-06,0.6861223578453064,0.6065887808799744,-0.0012178891338407,0.6079003810882568,0.522298276424408,-0.0242616962641477,0.5430731773376465,0.476006805896759,-0.0530452467501163,0.5032021403312683,0.4290192723274231,-0.0820150971412658,0.742801308631897,0.3278233706951141,-0.0217579063028097,0.6159502863883972,0.3008833527565002,-0.0706447064876556,0.5411784648895264,0.3387040495872497,-0.1109602302312851,0.4916468858718872,0.382562905550003,-0.1363041996955871,0.7708311676979065,0.3458079397678375,-0.0467951670289039,0.6168217062950134,0.3029313087463379,-0.0940371081233024,0.5417834520339966,0.3589960932731628,-0.1282459646463394,0.4933449625968933,0.4150882661342621,-0.1497666090726852,0.7826399207115173,0.3958601951599121,-0.0734624937176704,0.6395928859710693,0.3537830710411072,-0.1158109456300735,0.562050461769104,0.3996883034706116,-0.1344239264726638,0.5083317756652832,0.4457168877124786,-0.1431054919958114,0.7756732106208801,0.4721961319446563,-0.0995211750268936,0.6534401178359985,0.4720185697078705,-0.1362937092781067,0.5849418044090271,0.4849277436733246,-0.151304230093956,0.5327833890914917,0.4958825409412384,-0.1571956574916839
2023-08-01 16:06:13.033024,42,819,0.72992342710495,0.1987941414117813,-0.0610375441610813,0.6511273980140686,-0.44140625,0.84521484375,0.13916015625,0.81357342004776,0.7034116983413696,-1.0253024811390787e-06,0.702637791633606,0.6027110815048218,0.0036235507577657,0.6297765374183655,0.5142148733139038,-0.0171935074031353,0.5712783932685852,0.4639599621295929,-0.0451069325208663,0.5331137180328369,0.4212189614772796,-0.0739267542958259,0.7662339806556702,0.3292176723480224,-0.0150923179462552,0.6365695595741272,0.2958219647407532,-0.0640603899955749,0.5606966018676758,0.3295917212963104,-0.1054331511259079,0.5104047060012817,0.3730430901050567,-0.1311989873647689,0.791664719581604,0.3476825952529907,-0.0426472276449203,0.6373102068901062,0.2976235151290893,-0.0882575139403343,0.5600031614303589,0.3533537983894348,-0.1227965652942657,0.5107944011688232,0.4089112877845764,-0.1451833546161651,0.7999023795127869,0.3962361514568329,-0.0719267800450325,0.6572651863098145,0.3467113971710205,-0.1127713248133659,0.5771321058273315,0.3950122594833374,-0.132465973496437,0.5228724479675293,0.4422910809516907,-0.1426786333322525,0.7884117960929871,0.4699369966983795,-0.1003812253475189,0.6683012843132019,0.4619183242321014,-0.1350562870502472,0.6015833616256714,0.4750243425369262,-0.1503083556890487,0.5519497990608215,0.4857591688632965,-0.1575058251619339
2023-08-01 16:06:13.099046,43,820,0.7292563915252686,0.2038579881191253,-0.0609301887452602,0.6503188610076904,-0.5078125,0.8642578125,0.0810546875,0.8134987950325012,0.7005243301391602,-1.005401259135397e-06,0.7025534510612488,0.5953428149223328,0.0016105724498629,0.6309597492218018,0.5098116397857666,-0.0207951944321393,0.5734240412712097,0.4599885940551758,-0.0503669679164886,0.5381964445114136,0.4139820337295532,-0.0801893919706344,0.7734112739562988,0.3274684548377991,-0.0120689030736684,0.6460203528404236,0.2969011962413788,-0.0643391609191894,0.5689336061477661,0.3292502164840698,-0.1082182228565216,0.5152493715286255,0.3716154098510742,-0.1346365213394165,0.7976927161216736,0.3464606404304504,-0.0388291887938976,0.6449731588363647,0.2951437532901764,-0.0885667279362678,0.5667971968650818,0.3517317771911621,-0.1248671039938926,0.5163744688034058,0.40819251537323,-0.1467072665691375,0.8059368133544922,0.3938694596290588,-0.0679432824254036,0.664664089679718,0.3474965989589691,-0.1130643635988235,0.5860985517501831,0.401060402393341,-0.1321509480476379,0.5327440500259399,0.450609803199768,-0.1395397633314132,0.7953135371208191,0.4652095139026642,-0.0964586064219474,0.6771327257156372,0.4590299427509308,-0.132858857512474,0.6119703650474548,0.473604291677475,-0.1471853405237198,0.5634294748306274,0.4843162894248962,-0.1522760689258575
2023-08-01 16:06:13.157837,44,821,0.7285515666007996,0.2074375003576278,-0.0619037747383117,0.6498847603797913,-0.49365234375,0.85302734375,0.072265625,0.8323150873184204,0.6981115341186523,-1.0028904853243148e-06,0.7288905382156372,0.6004683971405029,-0.0019330944633111,0.6557995676994324,0.511376678943634,-0.0223130844533443,0.5952003598213196,0.4626237452030182,-0.0486356019973754,0.5556540489196777,0.4153176546096802,-0.0751983523368835,0.7888098955154419,0.3257691860198974,-0.0159366857260465,0.6688609719276428,0.2934423387050628,-0.0648242309689521,0.5956740379333496,0.3252090811729431,-0.1051357686519622,0.5467709302902222,0.3654710650444031,-0.1300009042024612,0.8187727928161621,0.3450276255607605,-0.0402856618165969,0.6718166470527649,0.2941117286682129,-0.0868096649646759,0.5952597856521606,0.3449137806892395,-0.1204327791929245,0.546146810054779,0.3974865078926086,-0.1409792453050613,0.8312636017799377,0.393461525440216,-0.0672668665647506,0.6944268345832825,0.346997320652008,-0.1119907796382904,0.6161385178565979,0.3927906453609466,-0.1311489045619964,0.5630793571472168,0.4375852942466736,-0.1387792229652404,0.8238775730133057,0.465744286775589,-0.0937401875853538,0.7058481574058533,0.4571353197097778,-0.1325155347585678,0.6404931545257568,0.4692288935184479,-0.14804108440876,0.5911134481430054,0.4797244966030121,-0.1535875499248504
2023-08-01 16:06:13.217444,45,822,0.7279012203216553,0.2092964500188827,-0.0635203421115875,0.6498615145683289,-0.4521484375,0.83837890625,0.12109375,0.838668704032898,0.6962463855743408,-9.910794460665784e-07,0.7366393208503723,0.5983490943908691,-0.0037289464380592,0.6650636196136475,0.5136580467224121,-0.0263740178197622,0.6058149933815002,0.4666423499584198,-0.0546689890325069,0.5685145854949951,0.417891263961792,-0.0832361876964569,0.8016328811645508,0.3268905282020569,-0.015554760582745,0.6788873672485352,0.299295037984848,-0.067531794309616,0.6035124063491821,0.3281664848327636,-0.111586607992649,0.5497309565544128,0.3686487674713135,-0.1379108130931854,0.8301057815551758,0.3447647094726562,-0.0392925404012203,0.6836687922477722,0.2950193881988525,-0.0878592729568481,0.6042976379394531,0.3442436754703522,-0.1247611865401268,0.5506950616836548,0.3970311284065246,-0.1470737606287002,0.8411616683006287,0.392455130815506,-0.0658877417445182,0.7070742249488831,0.3440952003002167,-0.1108887791633606,0.627450704574585,0.3881957828998565,-0.1321409046649933,0.572467565536499,0.4326453506946563,-0.1409545391798019,0.8313503265380859,0.4644659459590912,-0.0921056047081947,0.7156753540039062,0.4553146958351135,-0.1291660517454147,0.6512248516082764,0.4665876626968384,-0.1443345844745636,0.6029258966445923,0.4764799475669861,-0.1496771275997162
2023-08-01 16:06:13.282816,46,823,0.7271877527236938,0.2133502513170242,-0.0638428032398223,0.6493102312088013,-0.498046875,0.861328125,0.0927734375,0.8435999155044556,0.6926870346069336,-9.979208925869898e-07,0.7442355155944824,0.5987487435340881,-0.0048988810740411,0.6717577576637268,0.5114321708679199,-0.027164502069354,0.612869918346405,0.4626636207103729,-0.0546022169291973,0.575440526008606,0.412733793258667,-0.0823068916797638,0.8107362985610962,0.3256295621395111,-0.0171566009521484,0.6886226534843445,0.2967413365840912,-0.0691547915339469,0.6124603748321533,0.3237001895904541,-0.1128188371658325,0.5568429231643677,0.3614285886287689,-0.1387402117252349,0.8387501239776611,0.3464224338531494,-0.0403352491557598,0.6924801468849182,0.2939849495887756,-0.0888193100690841,0.6139126420021057,0.3460838794708252,-0.1236817091703414,0.5625424981117249,0.3990965783596039,-0.1439376473426818,0.8499932289123535,0.3962765336036682,-0.0666315630078315,0.7180013656616211,0.3461990356445312,-0.1127950325608253,0.6391056180000305,0.3914453983306885,-0.1328725516796112,0.5856495499610901,0.4347688257694244,-0.139983594417572,0.8415343165397644,0.4690431356430053,-0.0925046578049659,0.7280617952346802,0.4556009769439697,-0.1305277049541473,0.6632896065711975,0.4670478999614715,-0.1448965370655059,0.6146137118339539,0.4769790470600128,-0.149074450135231
2023-08-01 16:06:13.345140,47,824,0.7271484732627869,0.2159410566091537,-0.0644678324460983,0.6484354734420776,-0.50732421875,0.859375,0.08642578125,0.8660763502120972,0.7006470561027527,-1.0007784112531226e-06,0.7659515142440796,0.6043125987052917,-0.0041634901426732,0.6927623748779297,0.513354480266571,-0.0243372935801744,0.6327691674232483,0.462279736995697,-0.050261840224266,0.5950495004653931,0.4091071188449859,-0.0755298882722854,0.8269762992858887,0.3352831602096557,-0.011355192400515,0.7138658761978149,0.2946845889091491,-0.0611790493130683,0.6418711543083191,0.3216140270233154,-0.1026003509759903,0.5922635197639465,0.3607026934623718,-0.1277910023927688,0.857435941696167,0.354327529668808,-0.0342282243072986,0.7168369889259338,0.300685703754425,-0.08086858689785,0.6414560079574585,0.3482887148857116,-0.1147083193063736,0.5944653749465942,0.3970793783664703,-0.1354302316904068,0.8716927766799927,0.3990834057331085,-0.0608640015125274,0.7411314249038696,0.3521046340465545,-0.106569655239582,0.6627814769744873,0.3958154022693634,-0.1263827681541443,0.6103737354278564,0.438480794429779,-0.1343068182468414,0.8670206069946289,0.4667655229568481,-0.0873864665627479,0.7535786032676697,0.4578139781951904,-0.1276381164789199,0.6877241730690002,0.4717004895210266,-0.1441001147031784,0.6373786926269531,0.4834417104721069,-0.149987444281578
2023-08-01 16:06:13.414278,48,825,0.7267663478851318,0.2182887494564056,-0.0664674043655395,0.6478756666183472,-0.43798828125,0.8515625,0.1015625,0.8760660886764526,0.7045995593070984,-1.0227560096609525e-06,0.7735472917556763,0.6052063703536987,-0.0017769855912774,0.70158451795578,0.5128451585769653,-0.021060511469841,0.6434929370880127,0.4593619406223297,-0.0466831140220165,0.6072365641593933,0.4030333161354065,-0.0719763711094856,0.8418477177619934,0.3380528390407562,-0.0086114006116986,0.7266250848770142,0.3002481460571289,-0.0583143420517444,0.6529757380485535,0.3261757493019104,-0.0999300330877304,0.6026484966278076,0.364602267742157,-0.1251069903373718,0.8718446493148804,0.3582355976104736,-0.0331883914768695,0.7288990020751953,0.3020127713680267,-0.0805563256144523,0.6514506936073303,0.350789725780487,-0.1153906360268592,0.6046571731567383,0.4026867151260376,-0.1363421976566314,0.8853102922439575,0.4033105075359344,-0.0613696314394474,0.7540248036384583,0.354392260313034,-0.1074853613972663,0.6749882102012634,0.396226704120636,-0.1284463703632354,0.6237745881080627,0.438802570104599,-0.1367260217666626,0.8790037631988525,0.4710123538970947,-0.0891382619738578,0.7661282420158386,0.4567242562770843,-0.1277331113815307,0.7008792161941528,0.4685788154602051,-0.1435166299343109,0.6525017619132996,0.4800514876842499,-0.1492396593093872
2023-08-01 16:06:13.476644,49,826,0.7260761260986328,0.2198209911584854,-0.0674332752823829,0.6480316519737244,-0.4755859375,0.83935546875,0.1171875,0.8792277574539185,0.7055240273475647,-1.00033844319114e-06,0.7773248553276062,0.6050509214401245,-0.0053769121877849,0.7060667276382446,0.5144320130348206,-0.0278329774737358,0.6496821641921997,0.4637075662612915,-0.0561340264976024,0.6180007457733154,0.4113268554210663,-0.0843644812703132,0.849833071231842,0.3347519040107727,-0.0118546644225716,0.7296236753463745,0.3040786981582641,-0.0639453083276748,0.6547218561172485,0.3295310139656067,-0.1092657595872879,0.6009260416030884,0.3678500354290008,-0.1367493420839309,0.8786357641220093,0.3557194173336029,-0.0351160652935504,0.7325100302696228,0.3058921098709106,-0.0852804407477378,0.6561546921730042,0.3557356595993042,-0.1251196414232254,0.6077028512954712,0.4081637263298034,-0.1492499262094497,0.8913313746452332,0.4029204845428467,-0.0617377571761608,0.7586854696273804,0.3560535907745361,-0.1096164360642433,0.6793960332870483,0.398398756980896,-0.1341917067766189,0.6264435648918152,0.4430344700813293,-0.1443281173706054,0.8846251368522644,0.4728738367557525,-0.0880584940314292,0.7713579535484314,0.4568994343280792,-0.1277811080217361,0.7073107957839966,0.4683228433132171,-0.1449515968561172,0.6597217321395874,0.4808286130428314,-0.1511796563863754
2023-08-01 16:06:13.541003,50,827,0.7257131934165955,0.2212284952402115,-0.0663614943623542,0.6480698585510254,-0.49072265625,0.86572265625,0.083984375,0.8809539675712585,0.7047085762023926,-9.543206260786974e-07,0.7821599841117859,0.606636106967926,-0.0107202297076582,0.7092162370681763,0.515058159828186,-0.0357935093343257,0.6493600606918335,0.4639771282672882,-0.0655792504549026,0.6189957857131958,0.4099245965480804,-0.0948389023542404,0.851277232170105,0.3347604870796203,-0.0170250385999679,0.7362948060035706,0.3043087124824524,-0.072072222828865,0.6617544889450073,0.3277413547039032,-0.1197836101055145,0.6047669649124146,0.3647365570068359,-0.1487061530351638,0.8804811835289001,0.3556652665138244,-0.0383394882082939,0.7371798157691956,0.3013516068458557,-0.0918445810675621,0.6609853506088257,0.3515899777412414,-0.1332885324954986,0.6117352843284607,0.4047413468360901,-0.1575454622507095,0.8941619396209717,0.4033859670162201,-0.0634451285004615,0.765194296836853,0.3570631146430969,-0.1141512915492057,0.6857298612594604,0.3991785049438476,-0.1394003480672836,0.6319156885147095,0.4440505504608154,-0.1488305032253265,0.8875517249107361,0.4738103747367859,-0.0885782539844513,0.7772184610366821,0.4573198854923248,-0.1294035911560058,0.7130011320114136,0.4682399928569793,-0.1466914862394333,0.6644212007522583,0.4811229407787323,-0.1524828672409057
2023-08-01 16:06:13.608842,51,828,0.7252681255340576,0.2217975258827209,-0.0677427649497985,0.6482306718826294,-0.4384765625,0.8515625,0.1162109375,0.8942797780036926,0.7086930871009827,-9.89504883364134e-07,0.7945117354393005,0.6084491610527039,-0.0050585153512656,0.724901020526886,0.5156891942024231,-0.0251687206327915,0.6676021814346313,0.4630133509635925,-0.0505807138979435,0.631861686706543,0.4125985503196716,-0.0759716629981994,0.8637858629226685,0.3403552770614624,-0.0119165191426873,0.749860405921936,0.3072443902492523,-0.0608346201479435,0.6779413819313049,0.3325452804565429,-0.1023871451616287,0.6261969804763794,0.368712306022644,-0.127786785364151,0.8943532109260559,0.3617546260356903,-0.0343498140573501,0.7543582916259766,0.3059027194976806,-0.0813242569565773,0.6770678758621216,0.3518685698509216,-0.1168159618973732,0.6282232999801636,0.4011879563331604,-0.1383426785469055,0.9071255326271056,0.4084653258323669,-0.0601850971579551,0.7795397639274597,0.3616860508918762,-0.1072056740522384,0.7007521390914917,0.4018297493457794,-0.1297052055597305,0.6494910717010498,0.4425579607486725,-0.1387590020895004,0.8987418413162231,0.4760287404060364,-0.0855927318334579,0.7873356938362122,0.4621261954307556,-0.1253804266452789,0.7225160598754883,0.4753665328025818,-0.1417001634836197,0.6747137308120728,0.4877276420593261,-0.1474747359752655
2023-08-01 16:06:13.685440,52,829,0.7250182032585144,0.221877172589302,-0.0679409652948379,0.6484622359275818,-0.43359375,0.84765625,0.123046875,0.8912143111228943,0.7045688629150391,-9.666661071605631e-07,0.7954699993133545,0.6080796718597412,-0.0088912863284349,0.724471926689148,0.5182121396064758,-0.0330915935337543,0.6670178771018982,0.4689561128616333,-0.0622996911406517,0.6343055367469788,0.4175249636173248,-0.0911913737654686,0.8647996187210083,0.3368879556655884,-0.0174267161637544,0.7493047118186951,0.3081114292144775,-0.0716617256402969,0.6760785579681396,0.3363970518112182,-0.1174287274479866,0.6236305832862854,0.3760170936584472,-0.1449546664953231,0.894741952419281,0.3572850525379181,-0.0397311709821224,0.7521625757217407,0.3048462867736816,-0.0931478291749954,0.6768751740455627,0.3577405512332916,-0.1321307122707367,0.6314658522605896,0.4132762253284454,-0.1541955322027206,0.9082481265068054,0.4055046141147613,-0.065728947520256,0.7793300747871399,0.3587947189807892,-0.1164675876498222,0.7009046077728271,0.4019368886947632,-0.1399064362049102,0.6508118510246277,0.4467494487762451,-0.1479968130588531,0.9020034670829772,0.4759224951267242,-0.0915998145937919,0.7918305397033691,0.4583477675914764,-0.1332383900880813,0.7287737131118774,0.4702346920967102,-0.150065466761589,0.6834161281585693,0.4831636548042297,-0.1551799029111862
2023-08-01 16:06:13.760955,53,830,0.7250356078147888,0.2222483158111572,-0.0674403309822082,0.6483679413795471,-0.4541015625,0.84912109375,0.10986328125,0.8965620398521423,0.7018625736236572,-9.291489959650788e-07,0.8000709414482117,0.6075034141540527,-0.0098152542486786,0.7273234724998474,0.517370343208313,-0.0355942696332931,0.6689326167106628,0.4690186083316803,-0.0664013251662254,0.6382904052734375,0.4185881018638611,-0.0969142317771911,0.8663927912712097,0.3382019996643066,-0.019617298617959,0.7552173733711243,0.3042806684970855,-0.0753796249628067,0.682956337928772,0.3298127055168152,-0.1223076954483985,0.6290068030357361,0.3702118098735809,-0.1504127383232116,0.8952573537826538,0.3596524000167846,-0.0422613993287086,0.7566119432449341,0.3015294075012207,-0.0970725938677787,0.6823314428329468,0.35252845287323,-0.1381066292524337,0.6364492177963257,0.4083956480026245,-0.1614640355110168,0.9089847803115844,0.4070106744766235,-0.0685669332742691,0.7843263149261475,0.357826828956604,-0.1205738633871078,0.7047737836837769,0.3995094895362854,-0.146316647529602,0.6524715423583984,0.4459365904331207,-0.1558404415845871,0.9029970765113832,0.4755183160305023,-0.0946720391511917,0.7944425344467163,0.4585334658622741,-0.1373368203639984,0.7299250960350037,0.4711914956569671,-0.1553670316934585,0.6819522380828857,0.4864401519298553,-0.161302387714386
2023-08-01 16:06:13.834671,54,831,0.725430428981781,0.2223580181598663,-0.067434437572956,0.6478890180587769,-0.48779296875,0.853515625,0.1142578125,0.8983128070831299,0.70723557472229,-9.682585186965298e-07,0.8010437488555908,0.6110740303993225,-0.0068935309536755,0.7304673194885254,0.5194899439811707,-0.0292225163429975,0.6722880601882935,0.4708453118801117,-0.0571157559752464,0.6393879652023315,0.4202905595302582,-0.0849077701568603,0.8684957027435303,0.3396386504173279,-0.0124305775389075,0.7538332939147949,0.3089714646339416,-0.0659238323569297,0.681190013885498,0.334002137184143,-0.1117407828569412,0.6277129054069519,0.3728298842906952,-0.139249637722969,0.8978874683380127,0.3593538701534271,-0.0358301661908626,0.7578547596931458,0.3020654618740082,-0.0885862931609153,0.682614266872406,0.3526301085948944,-0.128960445523262,0.6359333992004395,0.4077463150024414,-0.1518198698759079,0.9115535020828248,0.4060379266738891,-0.0628869757056236,0.7843540906906128,0.3561218082904815,-0.1134894415736198,0.7058523297309875,0.3991572260856628,-0.1387814283370971,0.6554841995239258,0.4446085393428802,-0.1477936655282974,0.9051361680030824,0.4755060374736786,-0.0896265655755996,0.7932531237602234,0.4588186144828796,-0.1311208307743072,0.728733479976654,0.4704522788524627,-0.1487472951412201,0.681807279586792,0.4835828244686126,-0.1543503403663635
2023-08-01 16:06:13.904395,55,832,0.725852906703949,0.2234904468059539,-0.0667279958724975,0.647098958492279,-0.4833984375,0.859375,0.0986328125,0.8987519145011902,0.709183931350708,-9.467228778703428e-07,0.8026736378669739,0.610826849937439,-0.0085014542564749,0.7308979034423828,0.5198898911476135,-0.0327704809606075,0.6711519956588745,0.4706845879554748,-0.0622633844614028,0.6394211053848267,0.420619785785675,-0.09146748483181,0.8720911145210266,0.3400444388389587,-0.0147970514371991,0.7565947771072388,0.3084635138511657,-0.0684995427727699,0.6830134987831116,0.3330217003822326,-0.1148684546351432,0.6289024353027344,0.3717261850833893,-0.142811045050621,0.8999640941619873,0.3605559468269348,-0.0373262763023376,0.7581357359886169,0.3005668818950653,-0.0902636423707008,0.6832048296928406,0.3510618805885315,-0.1313221752643585,0.6365926265716553,0.4060098528861999,-0.1547265201807022,0.912669837474823,0.4079288840293884,-0.0632686764001846,0.7854737043380737,0.3570301830768585,-0.1131904199719429,0.7073588371276855,0.3987041413784027,-0.1381614208221435,0.6562482118606567,0.4438889622688293,-0.1470321714878082,0.9056355357170104,0.4775286912918091,-0.0889982730150222,0.7947250604629517,0.4577937722206116,-0.1290696561336517,0.7318798303604126,0.4689375758171081,-0.1454690992832183,0.6859472990036011,0.4827624559402466,-0.1502742171287536
2023-08-01 16:06:13.963117,56,833,0.726276159286499,0.2239819020032882,-0.0675076395273208,0.6463728547096252,-0.4384765625,0.8583984375,0.09814453125,0.9022624492645264,0.7144491672515869,-9.610814686311642e-07,0.8051809668540955,0.6147866249084473,-0.0070130131207406,0.7325885891914368,0.5225102305412292,-0.0302121546119451,0.6728382110595703,0.4723519682884216,-0.0591101348400116,0.6417075991630554,0.4197841882705688,-0.0876067951321601,0.8737363219261169,0.3452606797218323,-0.0122654279693961,0.7592642307281494,0.3083006739616394,-0.065987080335617,0.6855019927024841,0.3277274370193481,-0.1129044517874717,0.6281813383102417,0.3630962967872619,-0.1413185149431228,0.9022042751312256,0.3655709028244018,-0.0353470705449581,0.7603572607040405,0.3052400946617126,-0.0876049622893333,0.6852453947067261,0.353219211101532,-0.1289754211902618,0.6365261077880859,0.4073893427848816,-0.1532527953386306,0.915406346321106,0.4116137623786926,-0.0619718693196773,0.7873679399490356,0.3584473133087158,-0.111154980957508,0.7100591659545898,0.4006001055240631,-0.135976642370224,0.658035397529602,0.4472991228103637,-0.1453345865011215,0.9089758396148682,0.4804095923900604,-0.0885223671793937,0.7974197268486023,0.4631242752075195,-0.1289176046848297,0.7330990433692932,0.4740805923938751,-0.1461538225412368,0.6846108436584473,0.4882049262523651,-0.1518271416425705
2023-08-01 16:06:14.031852,57,834,0.7266445755958557,0.2228305339813232,-0.0671903267502784,0.6463897228240967,-0.4326171875,0.8662109375,0.1015625,0.8993488550186157,0.7147853970527649,-9.637483344704378e-07,0.8050974607467651,0.6159287095069885,-0.0066012926399707,0.7350042462348938,0.5239001512527466,-0.0288512501865625,0.676266074180603,0.4718626141548157,-0.0565786026418209,0.643930196762085,0.4172908067703247,-0.0839864462614059,0.8750489354133606,0.3455603420734405,-0.0132636176422238,0.7617390751838684,0.3105552196502685,-0.0649093389511108,0.6875238418579102,0.3346304297447204,-0.1088249832391738,0.6344246864318848,0.3726669549942016,-0.1353872120380401,0.9044415950775146,0.3661530911922455,-0.0358474962413311,0.7647911906242371,0.3078413009643554,-0.0848890617489814,0.6874034404754639,0.3531562089920044,-0.1220865696668624,0.6397423148155212,0.4040781855583191,-0.1442667245864868,0.9170131683349608,0.4140529632568359,-0.0620440691709518,0.7890212535858154,0.3610147535800934,-0.1096873879432678,0.7109753489494324,0.4019720554351806,-0.1315889507532119,0.6616952419281006,0.44551882147789,-0.1397121399641037,0.9093017578125,0.4841234982013702,-0.0880822390317916,0.7972172498703003,0.4635542333126068,-0.1282238513231277,0.7346538305282593,0.474717915058136,-0.144115462899208,0.690884530544281,0.4876454472541809,-0.1490278542041778
2023-08-01 16:06:14.098296,58,835,0.7271559834480286,0.2220667153596878,-0.0666902065277099,0.646129310131073,-0.50439453125,0.865234375,0.12744140625,0.8989158272743225,0.7148292064666748,-9.467895552006668e-07,0.8046011328697205,0.6147278547286987,-0.0067633753642439,0.7355074882507324,0.5238180756568909,-0.0304391607642173,0.6781578063964844,0.474105566740036,-0.0597837716341018,0.644638180732727,0.4235427379608154,-0.0888523608446121,0.8746252655982971,0.3463886082172394,-0.014761839993298,0.7636716365814209,0.3109869062900543,-0.0683765187859535,0.690359354019165,0.3368459939956665,-0.1138206347823143,0.6365994215011597,0.3776552081108093,-0.1409540325403213,0.9037013053894044,0.3683989644050598,-0.0383194088935852,0.7665001749992371,0.3100116848945617,-0.0894882380962371,0.6902894973754883,0.3561272621154785,-0.1283656805753708,0.6424186825752258,0.4084638059139251,-0.150913119316101,0.9167633056640624,0.417183518409729,-0.065482810139656,0.7927488088607788,0.3639828860759735,-0.1141709461808204,0.713919997215271,0.4016171395778656,-0.1373857110738754,0.6623088121414185,0.4441835582256317,-0.1459855288267135,0.9097781777381896,0.4875941872596741,-0.0924648940563201,0.8011134266853333,0.4670307040214538,-0.1327006667852401,0.7374558448791504,0.4766922891139984,-0.1485477536916732,0.6910434365272522,0.4896925985813141,-0.1531922370195388
2023-08-01 16:06:14.161817,59,836,0.7273883819580078,0.2218935787677765,-0.0666554272174835,0.6459306478500366,-0.5,0.85888671875,0.12646484375,0.8946214914321899,0.7159193754196167,-9.614128657631229e-07,0.8020281195640564,0.6195655465126038,-0.0083622392266988,0.733386218547821,0.5283119678497314,-0.0307372640818357,0.6760209798812866,0.476932942867279,-0.0581046044826507,0.6376286149024963,0.4286540448665619,-0.0850575193762779,0.8727360367774963,0.3496322333812713,-0.0139321684837341,0.7612798810005188,0.3138572573661804,-0.0667159557342529,0.6880441308021545,0.3384745717048645,-0.1112852394580841,0.6346420049667358,0.3775839209556579,-0.1376131474971771,0.9014965295791626,0.3711844086647033,-0.0355408415198326,0.7629565596580505,0.3137126564979553,-0.0853802040219307,0.6870979070663452,0.360872358083725,-0.1225122138857841,0.6389561891555786,0.4118473827838897,-0.1434779465198516,0.9146762490272522,0.4197953939437866,-0.0609392523765563,0.7877842783927917,0.3684321939945221,-0.1098088398575782,0.7103738188743591,0.4114126563072204,-0.1310042440891266,0.6592843532562256,0.4538355767726898,-0.1373069733381271,0.9086875319480896,0.490130752325058,-0.0862579643726348,0.7969733476638794,0.4719620645046234,-0.1265654265880584,0.7348968386650085,0.4830014705657959,-0.1412357240915298,0.6897590160369873,0.4940241277217865,-0.1443699896335601
