Timestamp,Index,Frame ID,w,x,y,z,ax,ay,az,x_0,y_0,z_0,x_1,y_1,z_1,x_2,y_2,z_2,x_3,y_3,z_3,x_4,y_4,z_4,x_5,y_5,z_5,x_6,y_6,z_6,x_7,y_7,z_7,x_8,y_8,z_8,x_9,y_9,z_9,x_10,y_10,z_10,x_11,y_11,z_11,x_12,y_12,z_12,x_13,y_13,z_13,x_14,y_14,z_14,x_15,y_15,z_15,x_16,y_16,z_16,x_17,y_17,z_17,x_18,y_18,z_18,x_19,y_19,z_19,x_20,y_20,z_20
2023-08-01 16:05:51.828205,0,494,0.6881498694419861,0.2379304766654968,-0.0815852805972099,0.6805751919746399,-0.3857421875,0.9052734375,0.09326171875,0.953372359275818,0.6937350630760193,-8.59212832438061e-07,0.866094172000885,0.6094421148300171,0.0124714951962232,0.8092610239982605,0.5295307636260986,0.000699984608218,0.7575199604034424,0.4812999665737152,-0.0229084677994251,0.720091700553894,0.4245417714118957,-0.0470367521047592,0.9189310669898988,0.3848690390586853,0.0230956748127937,0.8391228914260864,0.3410511612892151,-0.0191940199583768,0.7787770628929138,0.3530254065990448,-0.0575163960456848,0.732491135597229,0.381966769695282,-0.080983392894268,0.9462569952011108,0.3959977626800537,-0.0086857909336686,0.8437560200691223,0.3423781394958496,-0.0508030317723751,0.7784343957901001,0.3739367127418518,-0.0857053697109222,0.734947919845581,0.4123098850250244,-0.1059408038854599,0.961574137210846,0.4245072901248932,-0.0447170287370681,0.8617303967475891,0.3774061501026153,-0.0843188166618347,0.792949378490448,0.4054154455661773,-0.1047202572226524,0.7463071942329407,0.4394136071205139,-0.1129770725965499,0.9612237215042114,0.470584899187088,-0.0803040638566017,0.866939902305603,0.4541172683238983,-0.1129866242408752,0.8083252310752869,0.4610808491706848,-0.1280337274074554,0.7642922401428223,0.4721384346485138,-0.1339529156684875
2023-08-01 16:05:51.887895,1,495,0.6894203424453735,0.2348964363336563,-0.0796210244297981,0.6805760264396667,-0.35205078125,0.8974609375,0.0869140625,0.9292321801185608,0.691261887550354,-8.282119097202667e-07,0.8535953164100647,0.6106433868408203,-0.00368188531138,0.8000389337539673,0.527280867099762,-0.0174008645117282,0.748028039932251,0.4755553901195526,-0.0371456295251846,0.7125787138938904,0.4224066436290741,-0.0559563115239143,0.913182020187378,0.3777905404567718,0.0056231142953038,0.8308684825897217,0.3361659646034241,-0.0336535573005676,0.7690696716308594,0.3517457842826843,-0.0693103522062301,0.7243973016738892,0.38133704662323,-0.090798944234848,0.9405907392501832,0.3887663781642914,-0.0124177392572164,0.8350251913070679,0.3411981463432312,-0.0487207993865013,0.7710441946983337,0.3731144070625305,-0.0781735628843307,0.7283938527107239,0.4111512005329132,-0.0953136011958122,0.9547886848449708,0.4211998581886291,-0.0345982685685157,0.8515493273735046,0.3778560161590576,-0.0698548257350921,0.7847681045532227,0.406250536441803,-0.0859121307730674,0.7383240461349487,0.4389950931072235,-0.0911152735352516,0.951228141784668,0.4742353856563568,-0.0572149083018302,0.8515914678573608,0.4563508331775665,-0.0864070057868957,0.7966472506523132,0.4632836282253265,-0.0976910442113876,0.7562384605407715,0.4746439158916473,-0.1002533361315727
2023-08-01 16:05:51.946062,2,496,0.6910815238952637,0.2306804209947586,-0.0761687308549881,0.6807283163070679,-0.32763671875,0.89697265625,0.130859375,0.9403923153877258,0.6970505118370056,-8.491583116665424e-07,0.8552500009536743,0.6149565577507019,0.0041375765576958,0.7974061369895935,0.5325294733047485,-0.0086016748100519,0.7460519671440125,0.4836869537830353,-0.0299040134996175,0.7098578810691833,0.4295958578586578,-0.0511931143701076,0.9092199802398682,0.3854686617851257,0.0126896696165204,0.8276338577270508,0.3377952575683594,-0.0291299354285001,0.7668424248695374,0.3510812222957611,-0.0664529055356979,0.7202545404434204,0.3806241750717163,-0.0885321572422981,0.936466634273529,0.3983020186424255,-0.0118266530334949,0.8327869176864624,0.3401807844638824,-0.0523626692593097,0.7659950852394104,0.3709455132484436,-0.0849372223019599,0.7202531099319458,0.4100089073181152,-0.102790780365467,0.9502371549606324,0.4294160306453705,-0.0404617376625537,0.8511011600494385,0.3759858906269073,-0.0788078755140304,0.7822439670562744,0.4023898541927337,-0.0978217869997024,0.7341562509536743,0.4350727498531341,-0.1042757183313369,0.9470832347869872,0.4789438545703888,-0.0689287632703781,0.8514304757118225,0.4584587812423706,-0.1010377779603004,0.7947878241539001,0.4643373191356659,-0.1147625744342804,0.7517096996307373,0.4731338322162628,-0.1187123954296112
2023-08-01 16:05:52.010811,3,497,0.6928693056106567,0.2266661077737808,-0.0728239566087722,0.6806256771087646,-0.42529296875,0.8916015625,0.04296875,0.9296635985374452,0.6922886967658997,-8.441230079370143e-07,0.8507241606712341,0.6126699447631836,-0.0015765627613291,0.795097291469574,0.5312455296516418,-0.0149329612031579,0.7424925565719604,0.4792989790439605,-0.0347499549388885,0.705544650554657,0.4269817769527435,-0.0538352131843566,0.9076242446899414,0.3799999952316284,0.0087571628391742,0.8235257863998413,0.3388775587081909,-0.0300232898443937,0.7612348198890686,0.3543370366096496,-0.0657243952155113,0.7167847156524658,0.3841372430324554,-0.0872301682829856,0.9337173104286194,0.3905877768993377,-0.0105560654774308,0.8273136019706726,0.3385583758354187,-0.0462282188236713,0.7612428069114685,0.3707363903522491,-0.0758550688624382,0.7169647216796875,0.4098499119281769,-0.0928903296589851,0.9468897581100464,0.4224352836608886,-0.0339518338441848,0.8434505462646484,0.3739657700061798,-0.0680368021130561,0.7764279842376709,0.4013522267341614,-0.0840868800878524,0.7298514246940613,0.4335388243198395,-0.0895081087946891,0.9426501989364624,0.4757781326770782,-0.0577100031077861,0.842904269695282,0.4576506912708282,-0.0860648453235626,0.7887078523635864,0.4641530811786651,-0.0971496701240539,0.7486181855201721,0.4740388393402099,-0.0997257903218269
2023-08-01 16:05:52.080706,4,498,0.6957263350486755,0.2225335091352462,-0.0706853047013282,0.6792991161346436,-0.39794921875,0.89990234375,0.0146484375,0.9133732914924622,0.696515679359436,-8.535970437151263e-07,0.8362792134284973,0.6157292127609253,-0.0031815310940146,0.7806947827339172,0.5269377827644348,-0.0156365595757961,0.7290607690811157,0.4743698239326477,-0.0338070057332515,0.6926900744438171,0.4234812259674072,-0.0511464551091194,0.8953167200088501,0.3803974986076355,0.0048344559036195,0.8128088712692261,0.3368481993675232,-0.0350015386939048,0.7492154240608215,0.3524433672428131,-0.0706339702010154,0.7019197344779968,0.3813993334770202,-0.0921996682882309,0.9226223826408386,0.3923108279705047,-0.0137877510860562,0.8173431158065796,0.3392829298973083,-0.0511032789945602,0.7490664124488831,0.3704546093940735,-0.0805817991495132,0.7029886245727539,0.4069544672966003,-0.0975026339292526,0.9363682866096495,0.4260734617710113,-0.0365625619888305,0.8350154757499695,0.3751878142356872,-0.0742005109786987,0.7643501162528992,0.4033330976963043,-0.0916763767600059,0.7145131826400757,0.4341718554496765,-0.0975121408700943,0.9313976764678956,0.4800023138523102,-0.0594971105456352,0.8342350125312805,0.4583142697811126,-0.0917506888508796,0.7773923873901367,0.4660992622375488,-0.1044078841805458,0.7346959114074707,0.4757850170135498,-0.1076945066452026
2023-08-01 16:05:52.142697,5,499,0.6987720131874084,0.2174650281667709,-0.0694428011775016,0.6779412627220154,-0.357421875,0.89453125,0.04833984375,0.9139574766159058,0.6964345574378967,-8.565584153075179e-07,0.8348572254180908,0.6139642000198364,-0.0011188861681148,0.7746748924255371,0.5262068510055542,-0.0154750784859061,0.7215840816497803,0.4710951447486877,-0.0363390520215034,0.6893933415412903,0.4124124944210052,-0.056229431182146,0.893829882144928,0.3782444894313812,0.0053884852677583,0.8093189597129822,0.3321581482887268,-0.0356813818216323,0.7466599345207214,0.3471172153949737,-0.0718327537178993,0.7022252678871155,0.3772032558917999,-0.0937017351388931,0.9215309619903564,0.3919817209243774,-0.0154933566227555,0.8140470385551453,0.3344314694404602,-0.0554173588752746,0.7455224990844727,0.3689582943916321,-0.0852926969528198,0.7010592222213745,0.4104533791542053,-0.1015066057443618,0.934783697128296,0.425899475812912,-0.0404852628707885,0.8325050473213196,0.3721380233764648,-0.0786474719643592,0.7614747881889343,0.4010682702064514,-0.0950084626674652,0.7129351496696472,0.4341337084770202,-0.0998163521289825,0.9297087788581848,0.4789352416992187,-0.0656243935227394,0.832889974117279,0.4587947428226471,-0.0981892794370651,0.7749561667442322,0.4660353064537048,-0.1112153753638267,0.7313421964645386,0.4743281900882721,-0.1145611405372619
2023-08-01 16:05:52.202656,6,500,0.7026702165603638,0.2043059468269348,-0.0651097297668457,0.678435206413269,-0.41845703125,0.89892578125,0.09423828125,0.9103962779045104,0.699171781539917,-8.791940331320802e-07,0.8318765759468079,0.6153711080551147,-0.00158250273671,0.7751914262771606,0.527090311050415,-0.0148703753948211,0.7247505784034729,0.4740488827228546,-0.0343650430440902,0.6903049349784851,0.4208829998970032,-0.0532599464058876,0.8948695063591003,0.3779236674308777,0.0036733923479914,0.8093327879905701,0.3330219089984894,-0.0373751744627952,0.7454928159713745,0.34773650765419,-0.0737315490841865,0.6984090805053711,0.3780850768089294,-0.0953877568244934,0.9212778210639954,0.3917766213417053,-0.0161342397332191,0.8122001886367798,0.3362258970737457,-0.0543750561773777,0.7429596185684204,0.3674070537090301,-0.0844518318772316,0.6962323784828186,0.4065906405448913,-0.1015214622020721,0.933100402355194,0.4270864725112915,-0.0399267449975013,0.8270905017852783,0.3732148706912994,-0.0772922486066818,0.7559950947761536,0.3995129764080047,-0.0947537422180175,0.7070593237876892,0.4312198162078857,-0.1005351990461349,0.9263017773628236,0.4823369979858398,-0.0637666955590248,0.8275821805000305,0.4573429524898529,-0.0957066193222999,0.7704513669013977,0.4616943895816803,-0.1085970178246498,0.7275349497795105,0.4697650969028473,-0.1119261682033538
2023-08-01 16:05:52.261988,7,501,0.7055773735046387,0.193062886595726,-0.0642210692167282,0.6787952184677124,-0.42626953125,0.890625,0.0771484375,0.8934708833694458,0.6990221738815308,-8.679186294102692e-07,0.8170422911643982,0.6127455830574036,-0.0034602619707584,0.7611005902290344,0.5223077535629272,-0.0168769732117652,0.7102920413017273,0.4671685695648193,-0.0359832644462585,0.6761173009872437,0.4126633703708648,-0.0541266687214374,0.8815886974334717,0.3745651245117187,0.0027870978228747,0.7981206774711609,0.3290594220161438,-0.0385268554091453,0.7349131107330322,0.3439879417419433,-0.0746717303991317,0.6896752119064331,0.3721399009227752,-0.0963870957493782,0.9100698232650756,0.3898852467536926,-0.0159528739750385,0.8034259080886841,0.3366297483444214,-0.0547461472451686,0.7343618869781494,0.3664947152137756,-0.0837039649486541,0.68833327293396,0.4013444483280182,-0.0999599546194076,0.9237149953842164,0.4266842305660248,-0.0389637202024459,0.8200969696044922,0.3752404451370239,-0.0781297832727432,0.7481449246406555,0.4004663228988647,-0.0945780277252197,0.6976746320724487,0.4282035827636719,-0.0993373170495033,0.9182890057563782,0.4825882315635681,-0.062114231288433,0.818999171257019,0.4586183726787567,-0.0955001562833786,0.7607400417327881,0.4640040993690491,-0.1079662889242172,0.717220664024353,0.4707879722118377,-0.1107078343629837
2023-08-01 16:05:52.375229,8,502,0.7063685655593872,0.1895106434822082,-0.0641287043690681,0.678982138633728,-0.4072265625,0.89990234375,0.1416015625,0.8623126149177551,0.7059406042098999,-8.833713422973233e-07,0.7777378559112549,0.618558406829834,0.0034173254389315,0.7223246097564697,0.528164803981781,-0.0085826851427555,0.6717212200164795,0.4764852821826935,-0.0269919149577617,0.6274415850639343,0.4358457028865814,-0.046401023864746,0.8429995179176331,0.3712166249752044,0.0026512385811656,0.7480024099349976,0.3303294479846954,-0.0332553312182426,0.6815387606620789,0.348809540271759,-0.066321738064289,0.6358071565628052,0.3779104053974151,-0.0875183418393135,0.8699854016304016,0.387173444032669,-0.0195504110306501,0.7517148852348328,0.3373359143733978,-0.0542847849428653,0.6816329956054688,0.3718063533306122,-0.0820562541484832,0.6354942321777344,0.4101845622062683,-0.0987424552440643,0.8812409043312073,0.4283000528812408,-0.0444343090057373,0.7657946348190308,0.3794020712375641,-0.079358197748661,0.6921000480651855,0.4065464735031128,-0.0965291783213615,0.6414155960083008,0.4345982670783996,-0.1037716716527938,0.8734664916992188,0.4893179535865783,-0.0687738582491874,0.7661234140396118,0.4718153774738312,-0.1002731844782829,0.7058897614479065,0.4779151082038879,-0.1134897395968437,0.660779595375061,0.4841487407684326,-0.1179888695478439
2023-08-01 16:05:52.460700,9,503,0.710719108581543,0.1625973135232925,-0.0580686405301094,0.681959331035614,-0.42529296875,0.8681640625,0.13623046875,0.8308644890785217,0.7043771743774414,-8.848115271575807e-07,0.7346439957618713,0.617209792137146,0.0042513962835073,0.6736959218978882,0.5249903202056885,-0.0084000155329704,0.6265250444412231,0.4703009724617004,-0.0277067683637142,0.5867335796356201,0.4302647411823272,-0.0483839511871337,0.797196626663208,0.3649171590805053,-0.0001864793157437,0.6900443434715271,0.3299437165260315,-0.0396240055561065,0.6220449805259705,0.3496229350566864,-0.0753150656819343,0.5733841061592102,0.3787566125392914,-0.0975615680217742,0.8224180936813354,0.3820862770080566,-0.0239063035696744,0.6961002349853516,0.3321640491485595,-0.0589640252292156,0.623028576374054,0.3657419979572296,-0.0866796821355819,0.573453962802887,0.4035420417785644,-0.1042620092630386,0.8307947516441345,0.4251344799995422,-0.0504967048764228,0.7100905179977417,0.3728517293930053,-0.085070751607418,0.6354427337646484,0.4020455479621887,-0.1024092882871627,0.5843154788017273,0.4318543672561645,-0.1107034087181091,0.8219888210296631,0.4899865090847015,-0.0766352191567421,0.7134242057800293,0.4742100238800049,-0.1074957698583602,0.651513397693634,0.4791952073574066,-0.1212117373943328,0.6046465039253235,0.4840905666351318,-0.1268735229969024
2023-08-01 16:05:52.533852,10,504,0.7114418745040894,0.1539293080568313,-0.0544741861522197,0.6835120916366577,-0.4140625,0.86865234375,0.11083984375,0.8159952163696289,0.7039801478385925,-9.120759614233976e-07,0.7212669253349304,0.6092455387115479,0.010793580673635,0.6628519296646118,0.5230574607849121,-0.0014876708155497,0.6139099597930908,0.4739879071712494,-0.0213805343955755,0.5757720470428467,0.4314433336257934,-0.0424405634403228,0.7875676155090332,0.3633837103843689,0.0021465700119733,0.6763691306114197,0.3300120234489441,-0.0360300093889236,0.6066008806228638,0.3512618839740753,-0.0705723017454147,0.5579197406768799,0.3839502334594726,-0.0919098779559135,0.8106874227523804,0.3784288763999939,-0.0237269345670938,0.6789823174476624,0.3319585919380188,-0.0569205321371555,0.6063433289527893,0.369363784790039,-0.0831148475408554,0.5573575496673584,0.412029355764389,-0.1002783104777336,0.8162360191345215,0.4200687110424042,-0.0513873733580112,0.6932487487792969,0.3692469000816345,-0.0828162655234336,0.6187158823013306,0.3984899818897247,-0.0977738797664642,0.5656111240386963,0.4296629726886749,-0.1057062894105911,0.8018853664398193,0.4829495549201965,-0.077935442328453,0.6933507919311523,0.4689457714557647,-0.1059565097093582,0.632047712802887,0.4766300320625305,-0.1172797903418541,0.5845873355865479,0.4827714264392853,-0.1220442354679107
2023-08-01 16:05:52.599115,11,505,0.7119829654693604,0.147369772195816,-0.0495190694928169,0.6847702264785767,-0.43798828125,0.8857421875,0.11767578125,0.8055651783943176,0.7013978958129883,-9.230047908204142e-07,0.7087121605873108,0.6082018613815308,0.010933768004179,0.6482478976249695,0.5218481421470642,-0.0015881028957664,0.5967522263526917,0.4724161624908447,-0.0214323140680789,0.5568236112594604,0.4316761195659637,-0.0423994734883308,0.7751654982566833,0.3609530627727508,0.0006908336072228,0.663097083568573,0.325247585773468,-0.0368444547057151,0.592201828956604,0.3484904170036316,-0.0703153759241104,0.5438740253448486,0.382614254951477,-0.0911002904176712,0.7976085543632507,0.3766421675682068,-0.025304215028882,0.6635149717330933,0.3237066864967346,-0.0591966211795806,0.5900542736053467,0.3634111881256103,-0.0851055681705474,0.5418562293052673,0.4093913435935974,-0.1013311967253685,0.8027721047401428,0.4187822639942169,-0.0527515262365341,0.6771886944770813,0.3657580018043518,-0.0847100242972374,0.6020484566688538,0.3977624177932739,-0.0995556637644767,0.5495752096176147,0.4305439591407776,-0.1067195087671279,0.7885661721229553,0.4825169444084167,-0.0789081007242202,0.6758959293365479,0.4672495424747467,-0.1071921288967132,0.6137843132019043,0.4732551276683807,-0.1186024919152259,0.5668764710426331,0.4769388139247894,-0.1230791583657264
2023-08-01 16:05:52.666545,12,506,0.7125449776649475,0.1384477466344833,-0.0469374433159828,0.6862279772758484,-0.40234375,0.89599609375,0.12939453125,0.7612436413764954,0.6901293992996216,-8.707150982445455e-07,0.6466683745384216,0.6001020073890686,0.0085410643368959,0.5830092430114746,0.5130671858787537,-0.0053609232418239,0.5341489315032959,0.4610472619533539,-0.0258158631622791,0.4997451305389404,0.4209159016609192,-0.047574695199728,0.7169383764266968,0.3501968383789062,-0.0089892176911234,0.5945452451705933,0.3093843460083008,-0.0441758893430233,0.5213924646377563,0.3466523885726928,-0.0740454941987991,0.4741923213005066,0.3918668627738952,-0.093024805188179,0.7358850240707397,0.3657520413398742,-0.0337053500115871,0.5908058285713196,0.30744668841362,-0.0660243183374404,0.5152274966239929,0.3547166287899017,-0.0877826437354087,0.4688663482666015,0.4077815115451813,-0.1017683073878288,0.7359171509742737,0.4103837609291076,-0.0595024973154068,0.599560022354126,0.3494013547897339,-0.0900825411081314,0.5241023898124695,0.3880556225776672,-0.1027465090155601,0.4754073023796081,0.4285867810249328,-0.1088542342185974,0.7199453711509705,0.4783839285373688,-0.0842388719320297,0.6030860543251038,0.4639769196510315,-0.1142182573676109,0.5372310280799866,0.4719499051570892,-0.1272720992565155,0.4890949726104736,0.4799368679523468,-0.1327485591173172
2023-08-01 16:05:52.727860,13,507,0.712934672832489,0.1306464225053787,-0.0437767952680587,0.6875604391098022,-0.42626953125,0.88330078125,0.1103515625,0.7491723895072937,0.6997631788253784,-9.56482722358487e-07,0.6415532231330872,0.6045347452163696,0.0188061818480491,0.5765976905822754,0.5185660123825073,0.007519282400608,0.5225207805633545,0.4664549827575683,-0.0123434048146009,0.4831688404083252,0.4236137866973877,-0.0333792865276336,0.7095884680747986,0.3487482070922851,-0.0060103023424744,0.5853275656700134,0.3101001381874084,-0.0385364294052124,0.5138530731201172,0.3477182388305664,-0.0645683258771896,0.4721239805221557,0.3917434215545654,-0.0808948203921318,0.7214156985282898,0.36695396900177,-0.0345580466091632,0.575821042060852,0.3151235282421112,-0.0641222968697547,0.5050893425941467,0.3620502650737762,-0.0842252671718597,0.4620171189308166,0.414183497428894,-0.098373919725418,0.7165819406509399,0.4129570424556732,-0.0626494288444519,0.5772243738174438,0.3665156364440918,-0.0885339826345443,0.5064517855644226,0.4031700789928436,-0.0995104387402534,0.4590343236923218,0.4416723847389221,-0.1068353280425071,0.6958109736442566,0.4807980060577392,-0.0887888744473457,0.5816416144371033,0.4645515978336334,-0.112365037202835,0.5201547145843506,0.4707663357257843,-0.1228414997458458,0.4732825756072998,0.4778962135314941,-0.1284983903169632
2023-08-01 16:05:52.785991,14,508,0.7129909992218018,0.1252451837062835,-0.0412990264594554,0.6886595487594604,-0.3837890625,0.88623046875,0.1220703125,0.7349887490272522,0.7004294991493225,-9.520981620880776e-07,0.6288197636604309,0.6036175489425659,0.0232820380479097,0.5667905807495117,0.5179343819618225,0.0151436747983098,0.5137925744056702,0.465117484331131,-0.0025487190578132,0.4752336144447326,0.4228291809558868,-0.021776869893074,0.6971561908721924,0.3527532815933227,0.003145650262013,0.5748081803321838,0.3152084350585937,-0.0261483713984489,0.5026502013206482,0.3508704304695129,-0.0514703914523124,0.4607701301574707,0.3909712135791778,-0.0680374950170517,0.7092183828353882,0.366057276725769,-0.0267894621938467,0.5657969117164612,0.314814031124115,-0.051410399377346,0.4945107102394104,0.3598005771636963,-0.0701648220419883,0.4503712654113769,0.4083997011184692,-0.0844170600175857,0.7041167616844177,0.4085454046726227,-0.0562941022217273,0.5650091767311096,0.3595935702323913,-0.0791696682572364,0.4933999180793762,0.3961129486560821,-0.0902859717607498,0.4444068968296051,0.4338885247707367,-0.0987454578280448,0.6816333532333374,0.4743785560131073,-0.0836210697889328,0.563494861125946,0.4690066874027252,-0.1053758114576339,0.500535249710083,0.479661226272583,-0.1160382777452468,0.4520691037178039,0.4885764718055725,-0.1225967854261398
2023-08-01 16:05:52.846645,15,509,0.7134631276130676,0.1186412274837493,-0.0375294238328933,0.6895549297332764,-0.43359375,0.88427734375,0.15869140625,0.6818261742591858,0.6892753839492798,-8.560958235648286e-07,0.574204683303833,0.6020005941390991,0.0182401705533266,0.511639416217804,0.5144655704498291,0.0065444209612905,0.4546016752719879,0.4639875888824463,-0.0131652085110545,0.405137300491333,0.4298403859138489,-0.0355283580720424,0.6399581432342529,0.3440181612968445,-0.0091074518859386,0.5067778825759888,0.308371365070343,-0.0389819368720054,0.4322987794876098,0.3442784547805786,-0.0641544237732887,0.388181984424591,0.3821375370025635,-0.0814757570624351,0.6497503519058228,0.3592227697372436,-0.0372307226061821,0.4992172420024872,0.3062708973884582,-0.0638207867741584,0.4253293871879577,0.351381242275238,-0.0822347477078437,0.3794357180595398,0.3979162573814392,-0.0969343706965446,0.6418182253837585,0.4046666622161865,-0.0646569952368736,0.5002331137657166,0.3496313691139221,-0.0895327851176261,0.4271915555000305,0.3889355063438415,-0.1014798209071159,0.3784709274768829,0.4266018867492676,-0.1108278632164001,0.6187207698822021,0.4717166423797607,-0.0900798588991165,0.5075895190238953,0.4596919119358063,-0.1153730452060699,0.4440056681632995,0.4715180397033691,-0.128663957118988,0.3957021236419678,0.4815148711204529,-0.1373663395643234
2023-08-01 16:05:52.916195,16,510,0.7137669920921326,0.1118890643119812,-0.035037986934185,0.6904997229576111,-0.435546875,0.85400390625,0.16015625,0.6668035984039307,0.6871379613876343,-9.1433821580722e-07,0.5591732859611511,0.5995773077011108,0.020360805094242,0.4932361245155334,0.5104711055755615,0.0090197278186678,0.4333998560905456,0.4567082822322845,-0.010469208471477,0.3838430047035217,0.4186658859252929,-0.0324211306869983,0.6231047511100769,0.34304079413414,-0.0113698178902268,0.4891004264354706,0.3060936331748962,-0.0415700115263462,0.413021445274353,0.3417326807975769,-0.0653931498527526,0.3692347109317779,0.3806750178337097,-0.0815720334649086,0.632057785987854,0.3589604496955871,-0.0409705452620983,0.4798373579978943,0.3011580109596252,-0.0676470845937728,0.4061050117015838,0.349088191986084,-0.0858896598219871,0.362392783164978,0.4000977873802185,-0.1004219278693199,0.6241467595100403,0.4060522019863128,-0.0691457390785217,0.4804768860340118,0.3481362462043762,-0.0953636318445205,0.409066379070282,0.3967131376266479,-0.1073416993021965,0.3635487854480743,0.4409879148006439,-0.1167955249547958,0.5998818874359131,0.4751743674278259,-0.094804435968399,0.4886166155338287,0.4663396179676056,-0.1227796748280525,0.4242349863052368,0.4796774983406067,-0.1374927163124084,0.3749256432056427,0.4883535802364349,-0.1471481919288635
2023-08-01 16:05:52.977965,17,511,0.7136476635932922,0.1064525544643402,-0.0316355302929878,0.6916459202766418,-0.435546875,0.86328125,0.09423828125,0.6544431447982788,0.6886956095695496,-9.156260034615116e-07,0.5495618581771851,0.6011404395103455,0.0247956831008195,0.485728770494461,0.5149745941162109,0.0153834912925958,0.4261443018913269,0.4643087089061737,-0.003397206775844,0.3758701086044311,0.4288127720355987,-0.0245889313519001,0.614067018032074,0.3420917987823486,-0.0057914988137781,0.4775013327598572,0.3010704517364502,-0.0332842469215393,0.4037284851074219,0.3383212685585022,-0.0553959347307682,0.3658636808395386,0.3806124329566955,-0.0704216808080673,0.6210953593254089,0.3567812740802765,-0.0363121256232261,0.4675096869468689,0.300113320350647,-0.0585242472589015,0.3954398930072784,0.3444160521030426,-0.0744930431246757,0.3546338677406311,0.3943515419960022,-0.0886666625738143,0.6116724610328674,0.4034708440303802,-0.0651559755206108,0.4654145240783691,0.3486303091049194,-0.0864347219467163,0.3953397870063782,0.3938114941120147,-0.0954877734184265,0.3515321910381317,0.4373218119144439,-0.1043147668242454,0.585102379322052,0.4722835719585418,-0.091556079685688,0.4733871519565582,0.4615419805049896,-0.1151045337319374,0.4118179082870483,0.4731278717517853,-0.127176284790039,0.3651556372642517,0.4808971583843231,-0.1357010602951049
2023-08-01 16:05:53.032800,18,512,0.7136889696121216,0.0991937890648841,-0.0297238938510417,0.6927663087844849,-0.3974609375,0.8779296875,0.13330078125,0.6427991986274719,0.6875708103179932,-8.73026351655426e-07,0.5379955768585205,0.6038311123847961,0.0200016740709543,0.4704614281654358,0.5143967866897583,0.0079385014250874,0.4083568453788757,0.4602026045322418,-0.0120953200384974,0.3552917242050171,0.4242554605007171,-0.0343441069126129,0.5967802405357361,0.3367074131965637,-0.0123394327238202,0.4563539624214172,0.2893767952919006,-0.0421376787126064,0.3788769543170929,0.3201645910739898,-0.0649158954620361,0.3373279571533203,0.3584892749786377,-0.0797075405716896,0.6049016714096069,0.3528745770454407,-0.0408392213284969,0.4468897879123688,0.2899172306060791,-0.0654210075736045,0.3730859160423279,0.3329235911369324,-0.081297867000103,0.3323486447334289,0.3830597996711731,-0.0941900014877319,0.5961059927940369,0.3999511003494262,-0.0678775534033775,0.4494260847568512,0.3371697664260864,-0.09147410094738,0.3791327476501465,0.3828239440917969,-0.1004098057746887,0.3365635275840759,0.4279027879238128,-0.1078926548361778,0.5702918767929077,0.4692228436470032,-0.0926041677594184,0.4583027362823486,0.4592086970806122,-0.119148813188076,0.3977598547935486,0.4729502499103546,-0.131821870803833,0.3533872365951538,0.4836859107017517,-0.139453575015068
2023-08-01 16:05:53.094271,19,513,0.7140799164772034,0.0923101529479026,-0.0308429282158613,0.6932657957077026,-0.34814453125,0.86572265625,0.15771484375,0.6059973239898682,0.6820306181907654,-8.094229428934341e-07,0.4947223961353302,0.5965855717658997,0.0198059361428022,0.4300334453582763,0.5112411975860596,0.007138427812606,0.3681176304817199,0.4599221050739288,-0.0140409618616104,0.3151346445083618,0.4271053075790405,-0.0368601605296134,0.5563943982124329,0.3333157002925873,-0.0121280029416084,0.4228182435035705,0.2757056355476379,-0.0444851145148277,0.3475538492202759,0.3147160410881042,-0.067980520427227,0.3089572787284851,0.3594992458820343,-0.0820971354842186,0.5627651214599609,0.348832219839096,-0.0405778251588344,0.408330500125885,0.2782195508480072,-0.0676705315709114,0.3359131813049316,0.3245003819465637,-0.0820727199316024,0.2980688214302063,0.376251071691513,-0.092531606554985,0.5507113337516785,0.3938141465187073,-0.0682043582201004,0.4008527994155884,0.3329141736030578,-0.0903180465102195,0.329276978969574,0.3737011551856994,-0.0961901769042015,0.2864757180213928,0.4154399037361145,-0.1012851446866989,0.5205280780792236,0.4602745473384857,-0.0941201448440551,0.405457854270935,0.4429605901241302,-0.1151597872376442,0.3447909653186798,0.4542575180530548,-0.1239619478583335,0.3015986382961273,0.4635997712612152,-0.1291570365428924
2023-08-01 16:05:53.162148,20,514,0.7154918313026428,0.0852702558040618,-0.0290716681629419,0.6927880644798279,-0.41064453125,0.900390625,0.099609375,0.595573902130127,0.6787706613540649,-9.497642281530716e-07,0.483518123626709,0.5947884321212769,0.0280706249177455,0.4188507199287414,0.5108884572982788,0.0188067499548196,0.3552697300910949,0.4607950747013092,-0.0001637902023503,0.3009604811668396,0.42879319190979,-0.0215831976383924,0.5465186834335327,0.3318700194358825,-0.0065769399516284,0.4145034551620483,0.2778724431991577,-0.0337296314537525,0.3414227664470672,0.3206632137298584,-0.0533375330269336,0.3053978681564331,0.3688195347785949,-0.0651388019323349,0.551203191280365,0.3478081524372101,-0.0365023575723171,0.3933245837688446,0.2847522497177124,-0.0583427362143993,0.3226693272590637,0.3359933495521545,-0.0691437721252441,0.288965493440628,0.3936817646026611,-0.0781650617718696,0.5385316610336304,0.3939467668533325,-0.0645573884248733,0.3855544924736023,0.3399331867694855,-0.0824619755148887,0.317760169506073,0.3820190727710724,-0.0860582292079925,0.2800318002700805,0.4273951947689056,-0.0906366929411888,0.5088080167770386,0.4597696959972381,-0.0900433808565139,0.3943960070610046,0.4439159631729126,-0.1071221455931663,0.3352938294410705,0.4560095071792602,-0.1134984195232391,0.2931209802627563,0.4692785441875458,-0.1179370880126953
2023-08-01 16:05:53.233892,21,515,0.7160742282867432,0.0771781131625175,-0.0249185096472501,0.6932966709136963,-0.42822265625,0.890625,0.11572265625,0.5806969404220581,0.6763898134231567,-9.674014336269463e-07,0.4712804555892944,0.5926764011383057,0.0308037120848894,0.4077489674091339,0.5114836692810059,0.0240881908684968,0.3443494141101837,0.4634429514408111,0.0070501053705811,0.2904648780822754,0.4328370988368988,-0.0125713320448994,0.5344850420951843,0.3333974480628967,-0.0025634618941694,0.4046254158020019,0.279895007610321,-0.0265273675322532,0.3343079388141632,0.3215981423854828,-0.0436564646661281,0.2992795407772064,0.3685401082038879,-0.0544572994112968,0.5372985601425171,0.3481051325798034,-0.0332057811319828,0.3807048201560974,0.2886319458484649,-0.0534609332680702,0.3123491406440735,0.3408277630805969,-0.0631742030382156,0.2789686024188995,0.3985284268856048,-0.0714954063296318,0.5229278802871704,0.3941454589366913,-0.0617605186998844,0.3702993988990783,0.3460700213909149,-0.078279323875904,0.3049421310424804,0.3888409733772278,-0.081084668636322,0.2675795257091522,0.4320072531700134,-0.0855374187231063,0.4927915334701538,0.4608166217803955,-0.0876452326774597,0.38066565990448,0.4468423724174499,-0.1048826798796653,0.3197640776634216,0.4570991694927215,-0.1118261814117431,0.2748613655567169,0.4665918350219726,-0.1169048398733139
2023-08-01 16:05:53.305832,22,516,0.7165843844413757,0.0719617083668708,-0.0250450670719146,0.6933260560035706,-0.40478515625,0.88134765625,0.16552734375,0.5508189797401428,0.6875500679016113,-9.336275752502844e-07,0.4412347376346588,0.6022361516952515,0.031404472887516,0.3756248950958252,0.5226135849952698,0.0245172195136547,0.312389463186264,0.4803918004035949,0.0078984508290886,0.2596065998077392,0.4564689397811889,-0.0121489511802792,0.4959046542644501,0.3349194824695587,-0.005363748408854,0.3570930957794189,0.3004643023014068,-0.0272199716418981,0.2882102429866791,0.3533235490322113,-0.0439580716192722,0.25257408618927,0.4055103659629822,-0.0549091324210166,0.4959898293018341,0.3487830758094787,-0.0354679152369499,0.3384070992469787,0.2997665703296661,-0.052991896867752,0.2693727016448974,0.3532019257545471,-0.0633356645703315,0.2301984280347824,0.411993533372879,-0.072827473282814,0.4800916016101837,0.3971528708934784,-0.0623478591442108,0.3276064097881317,0.3508132398128509,-0.0776047557592392,0.261182427406311,0.3954520523548126,-0.0815517231822013,0.2206538468599319,0.4390466213226318,-0.0869091972708702,0.4482307136058807,0.4690660834312439,-0.0860172733664512,0.3293200433254242,0.4542579650878906,-0.1048885434865951,0.2680126428604126,0.4697909653186798,-0.1116415411233902,0.2244476824998855,0.4835073053836822,-0.1156293451786041
2023-08-01 16:05:53.360846,23,517,0.7175196409225464,0.0687442570924758,-0.0246121790260076,0.6927006244659424,-0.44482421875,0.87255859375,0.17431640625,0.5372619032859802,0.6914141178131104,-1.0216394912276885e-06,0.4323576688766479,0.604419469833374,0.0412663929164409,0.3642841279506683,0.5235121846199036,0.0420996993780136,0.2960367500782013,0.4826398193836212,0.0315478630363941,0.242331862449646,0.4611668586730957,0.0172694418579339,0.4860523343086242,0.3355278968811035,0.0111434701830148,0.3456329703330993,0.3015605807304382,-0.0014655860140919,0.277479887008667,0.3509488999843597,-0.0138259613886475,0.2430637031793594,0.4024885892868042,-0.0230809580534696,0.4849444031715393,0.3488652408123016,-0.0201300345361232,0.3281064331531524,0.3060120344161987,-0.0272838976234197,0.2615595459938049,0.3559811115264892,-0.0365855656564235,0.224451407790184,0.4133926331996918,-0.048500221222639,0.4688149094581604,0.3958919644355774,-0.0473020002245903,0.3173325061798095,0.3523553609848022,-0.0543183200061321,0.2539380490779876,0.3966042995452881,-0.0595408380031585,0.2148067504167556,0.4428859949111938,-0.0686608776450157,0.4359310567378998,0.4671837091445923,-0.070449523627758,0.3168075382709503,0.4549664855003357,-0.0831845998764038,0.2592499852180481,0.4718093276023865,-0.0899092704057693,0.2173034846782684,0.4878974258899688,-0.0962122753262519
2023-08-01 16:05:53.420004,24,518,0.7177891135215759,0.066573679447174,-0.0241812318563461,0.6926485896110535,-0.455078125,0.85693359375,0.15625,0.5272217392921448,0.6877272129058838,-9.846088460108149e-07,0.4217874407768249,0.595990002155304,0.0455198250710964,0.3537339568138122,0.5173205733299255,0.0487841963768005,0.2877088487148285,0.4777329266071319,0.0393186323344707,0.234511062502861,0.4577584862709045,0.0257417224347591,0.4750353097915649,0.3387718200683594,0.0212141890078783,0.3389115929603576,0.3038951456546783,0.0102033521980047,0.2700583040714264,0.3503495752811432,-0.0027006531599909,0.235610231757164,0.3990485370159149,-0.0125104468315839,0.4723248779773712,0.3515455722808838,-0.0123562328517436,0.3214377760887146,0.3096455931663513,-0.0164755824953317,0.2545183300971985,0.3576950132846832,-0.0261717792600393,0.2178470641374588,0.4111302495002746,-0.0385546833276748,0.4552735090255737,0.3971814811229706,-0.0421210974454879,0.3069471716880798,0.3544430434703827,-0.0473973788321018,0.2431282848119735,0.3991458714008331,-0.053211510181427,0.2040538638830185,0.4434898793697357,-0.0628626346588134,0.4229896664619446,0.4678789675235748,-0.0676420331001281,0.3038043677806854,0.457154780626297,-0.0788977742195129,0.2480890899896621,0.4749388694763183,-0.0846584066748619,0.2091234177350998,0.4910169243812561,-0.0901685506105423
2023-08-01 16:05:53.488414,25,519,0.717562198638916,0.0655603110790252,-0.027055712416768,0.6928738951683044,-0.4169921875,0.830078125,0.19580078125,0.5094284415245056,0.6723448634147644,-9.91018396234722e-07,0.4228320121765136,0.5820461511611938,0.0643231272697448,0.3603657484054565,0.5093074440956116,0.0755270421504974,0.2963558435440063,0.4617513120174408,0.071239173412323,0.2417037338018417,0.4459871649742126,0.060713954269886,0.4422538876533508,0.3360228538513183,0.0286200772970914,0.305851548910141,0.3109687864780426,0.0259148087352514,0.2404066175222396,0.3620158731937408,0.0227849930524826,0.2072783857583999,0.4059009552001953,0.0190376080572605,0.4380300343036651,0.3462116122245788,-0.0134269092231988,0.2843713164329529,0.3081507086753845,-0.0124248536303639,0.2208984792232513,0.3621032238006592,-0.0123632680624723,0.1884448081254959,0.4188235402107239,-0.0166636332869529,0.4208231270313263,0.3940972685813904,-0.0491976216435432,0.2707840204238891,0.3564504384994507,-0.0484935194253921,0.2068417072296142,0.4043237864971161,-0.0455230511724948,0.1681398302316665,0.4459392428398132,-0.0496772415935993,0.3895124495029449,0.4691361784934997,-0.0791587606072425,0.2704261541366577,0.4652474820613861,-0.086930014193058,0.2141694575548172,0.4840573370456695,-0.0880927219986915,0.1750608682632446,0.4960150122642517,-0.0900390297174453
2023-08-01 16:05:53.549571,26,520,0.7181705832481384,0.0647626221179962,-0.0257642325013875,0.6923675537109375,-0.44970703125,0.875,0.15283203125,0.4991475939750671,0.6719105839729309,-1.0216276677965652e-06,0.4552016854286194,0.560401976108551,0.0685437470674514,0.4064987003803253,0.4720419943332672,0.0849306732416153,0.3548740446567535,0.4071402549743652,0.0855312049388885,0.3067284822463989,0.3824469745159149,0.0801971405744552,0.4411931931972503,0.3282729983329773,0.0338659919798374,0.3062826991081238,0.3048648834228515,0.0304932445287704,0.2417861223220825,0.3530448675155639,0.027498323470354,0.210864320397377,0.3942192196846008,0.0250258166342973,0.4314867556095123,0.3443636298179626,-0.0072976741939783,0.2795369923114776,0.3109753131866455,-0.0051045776344835,0.2182812392711639,0.3624121248722076,-0.0027384562417864,0.1880939900875091,0.4166914522647857,-0.0051024644635617,0.4105095267295837,0.3932072818279266,-0.0422754064202308,0.2634100914001465,0.35728520154953,-0.038956768810749,0.2038384079933166,0.4060385823249817,-0.0340546779334545,0.170840784907341,0.4499081671237945,-0.0367695093154907,0.3795449435710907,0.4668152034282684,-0.0712157934904098,0.260663777589798,0.466697484254837,-0.0756556689739227,0.2092672735452652,0.4837850332260132,-0.0758170709013938,0.1743482649326324,0.4941859245300293,-0.0771894007921218
2023-08-01 16:05:53.608494,27,521,0.7190487384796143,0.0658159330487251,-0.026429358869791,0.6913309097290039,-0.439453125,0.8857421875,0.1455078125,0.4989821314811706,0.6665018796920776,-9.87024009191373e-07,0.4291025400161743,0.5659448504447937,0.0549778416752815,0.3688163757324219,0.4849452674388885,0.0628805607557296,0.3087406158447265,0.4278978109359741,0.0578806921839714,0.2581603527069092,0.4056464731693268,0.0481071136891841,0.4374058246612549,0.3247976899147033,0.0195158924907445,0.2975870072841644,0.3089243769645691,0.012749046087265,0.2315892726182937,0.3596654236316681,0.0067322584800422,0.199092149734497,0.4026435613632202,0.0015377888921648,0.4298078715801239,0.3399770855903625,-0.0169291291385889,0.2748431265354156,0.3100279569625854,-0.019151110202074,0.2137122750282287,0.3660307228565216,-0.020565029233694,0.1828397661447525,0.4219208359718323,-0.0258667152374982,0.4104235768318176,0.3887311816215515,-0.0478360950946807,0.2603703141212463,0.3558358550071716,-0.0482859276235103,0.2001636326313018,0.4070279002189636,-0.0465255491435527,0.1656603217124939,0.4509400725364685,-0.0515634343028068,0.3790230751037597,0.4641569256782532,-0.0737221091985702,0.2597433924674988,0.4657724499702453,-0.081362210214138,0.2061066329479217,0.4833916127681732,-0.0841370597481727,0.1685122847557068,0.4931399822235107,-0.087629348039627
2023-08-01 16:05:53.670751,28,522,0.7190235257148743,0.0673633888363838,-0.0278837606310844,0.6911512017250061,-0.4130859375,0.87060546875,0.15185546875,0.496048629283905,0.6683149337768555,-1.0357439350627828e-06,0.4477307200431824,0.5587988495826721,0.0689465999603271,0.398238867521286,0.4740791618824005,0.0845988765358924,0.3452757894992828,0.4112385809421539,0.0849140062928199,0.2980612814426422,0.3866786062717438,0.0793163254857063,0.4404958188533783,0.3279498219490051,0.0288654919713735,0.3016120791435241,0.3067371845245361,0.0271770507097244,0.2358773797750473,0.3566541969776153,0.0265426896512508,0.2041422873735427,0.4002560973167419,0.0255759209394454,0.4305007755756378,0.3447909355163574,-0.012247510254383,0.2751743495464325,0.3132689595222473,-0.0086567010730504,0.2126277089118957,0.3662107288837433,-0.0050434139557182,0.1816159933805465,0.423059731721878,-0.0070607932284474,0.4091033935546875,0.3942540884017944,-0.0465325340628623,0.2607577741146087,0.360178142786026,-0.0415158011019229,0.1996403485536575,0.4082183837890625,-0.0362412594258785,0.165337324142456,0.4527620077133178,-0.0394421331584453,0.3768617212772369,0.4692884087562561,-0.0745973512530326,0.2582253813743591,0.4689981043338775,-0.0780451223254203,0.2057770490646362,0.4862792491912842,-0.0781656503677368,0.1697786152362823,0.4977559745311737,-0.0799085348844528
2023-08-01 16:05:53.731609,29,523,0.7187603712081909,0.0699453800916671,-0.0283741187304258,0.6911483407020569,-0.43603515625,0.875,0.16455078125,0.4955619573593139,0.6645495891571045,-1.0408018624730175e-06,0.4569690227508545,0.5553371906280518,0.067230649292469,0.4134157299995422,0.4686784446239471,0.0829627364873886,0.3676684498786926,0.400503396987915,0.0840145573019981,0.3245649933815002,0.3734579980373382,0.0791073963046073,0.4418718516826629,0.3290295004844665,0.0230686105787754,0.3054450154304504,0.3069499731063843,0.0203498378396034,0.2396366596221923,0.3569666743278503,0.0206494517624378,0.2081720829010009,0.4002674221992492,0.0204259119927883,0.4311973750591278,0.3455792069435119,-0.0173250529915094,0.2770062088966369,0.3134440183639526,-0.0156880244612693,0.2156800180673599,0.3671177923679352,-0.0103516988456249,0.1869731396436691,0.4245219230651855,-0.0105639668181538,0.4093988537788391,0.3961860239505768,-0.0508644580841064,0.2623838186264038,0.3598433136940002,-0.0476568378508091,0.201459065079689,0.408223032951355,-0.0410413369536399,0.1680297255516052,0.4536089599132538,-0.0428357906639575,0.3780281245708465,0.4727078974246979,-0.0782548859715461,0.2589269876480102,0.4715707004070282,-0.0840465649962425,0.2062006145715713,0.487406849861145,-0.0846110954880714,0.1703782379627227,0.4971742630004883,-0.0861873850226402
2023-08-01 16:05:53.794867,30,524,0.7185953259468079,0.0727689266204834,-0.0296868998557329,0.6909732818603516,-0.45068359375,0.869140625,0.1494140625,0.5016454458236694,0.668513298034668,-1.0686130735848565e-06,0.4505873620510101,0.5650808215141296,0.0703726857900619,0.4020435512065887,0.4768904149532318,0.0879710093140602,0.3520311117172241,0.4108884632587433,0.0903642550110817,0.3065440654754638,0.3865773677825928,0.0871643126010894,0.4442468583583832,0.3296667337417602,0.0298628527671098,0.3055752515792846,0.3083810210227966,0.0295776687562465,0.2392310798168182,0.3604887723922729,0.0305253434926271,0.2080722451210022,0.4053836166858673,0.030510215088725,0.4349247813224792,0.3434065282344818,-0.011646288447082,0.278188556432724,0.3129110336303711,-0.006564998999238,0.2158709913492202,0.3678130805492401,-0.0001484628592152,0.186736062169075,0.4263481795787811,0.0001089393772417,0.4141995012760162,0.39268958568573,-0.046371005475521,0.2643451690673828,0.3567691147327423,-0.0404133982956409,0.2029360234737396,0.4074510931968689,-0.0325531363487243,0.1689987182617187,0.4538760185241699,-0.0338556841015815,0.3823091089725494,0.4694333374500274,-0.0749161317944526,0.2631281018257141,0.4703377187252044,-0.0787567049264907,0.2096338421106338,0.4882740974426269,-0.0786674469709396,0.173030823469162,0.4989005029201507,-0.0799347683787345
2023-08-01 16:05:53.855192,31,525,0.7181175947189331,0.0762420743703842,-0.031170105561614,0.6910302042961121,-0.43408203125,0.8740234375,0.14501953125,0.5087028741836548,0.6732925772666931,-1.0275592785546903e-06,0.4317867159843445,0.578957736492157,0.0609111338853836,0.3705396950244903,0.4966897964477539,0.0722504779696464,0.3109922111034393,0.4375665187835693,0.0692789480090141,0.2611840069293976,0.4119988083839416,0.0614046826958656,0.4421879649162292,0.3287990093231201,0.0272788703441619,0.3019888401031494,0.3100885152816772,0.022613113746047,0.2347925454378128,0.3604104816913605,0.0181029383093118,0.2025020867586136,0.4065799713134765,0.0144229531288146,0.4370637536048889,0.3424121141433716,-0.011759378015995,0.2809400558471679,0.3131990134716034,-0.0105597544461488,0.217649221420288,0.3674696087837219,-0.0098912343382835,0.1862041056156158,0.4251008033752441,-0.0135028632357716,0.4196503758430481,0.3907800316810608,-0.0451972819864749,0.2693872451782226,0.3581494987010956,-0.0438862890005111,0.2079612910747528,0.4075310230255127,-0.0401487089693546,0.1729249954223632,0.4529984295368194,-0.043312881141901,0.3885446786880493,0.4670425653457641,-0.073245033621788,0.2688360810279846,0.4679966270923614,-0.0800364688038826,0.2156414836645126,0.4862678349018097,-0.0813446715474128,0.179442822933197,0.4982085227966308,-0.0830455496907234
2023-08-01 16:05:53.918910,32,526,0.7172664999961853,0.0807152986526489,-0.0323763713240623,0.6913505792617798,-0.43212890625,0.8623046875,0.1318359375,0.5281541347503662,0.6838738322257996,-9.755400469657616e-07,0.424398273229599,0.6034111976623535,0.0454611182212829,0.3519144058227539,0.5225993394851685,0.0484202839434146,0.2874606549739837,0.4754917323589325,0.0393241010606288,0.2389280200004577,0.452604591846466,0.0270075015723705,0.4639601111412048,0.3310713469982147,0.0150935715064406,0.3228656649589538,0.3076938986778259,0.0025323668960481,0.2546303272247314,0.3572797775268554,-0.0095687797293066,0.2207171618938446,0.4044005274772644,-0.0184719748795032,0.46059650182724,0.3447131514549255,-0.0193430390208959,0.3037430644035339,0.3058062791824341,-0.0257983673363924,0.2391392439603805,0.357590913772583,-0.0310024991631507,0.2057185173034668,0.4137319028377533,-0.0386250652372837,0.4432251751422882,0.393106997013092,-0.0499929785728454,0.2895358800888061,0.3532416522502899,-0.0563314706087112,0.2267537117004394,0.4009518623352051,-0.0564680509269237,0.1897487193346023,0.4460589289665222,-0.0611465722322464,0.4105352759361267,0.4682574868202209,-0.0766594037413597,0.2895045280456543,0.4646886587142944,-0.0887414366006851,0.2325891703367233,0.4848239421844482,-0.0928514376282692,0.1926709711551666,0.4999699890613556,-0.0962966009974479
2023-08-01 16:05:53.986499,33,527,0.7163998484611511,0.0868574976921081,-0.0348736755549907,0.6913832426071167,-0.39208984375,0.86181640625,0.150390625,0.5260620713233948,0.6866439580917358,-1.0375667898188112e-06,0.4221856892108917,0.603408694267273,0.0516695044934749,0.3515617847442627,0.5260950326919556,0.058019321411848,0.2836718261241913,0.4854141771793365,0.0508675538003444,0.2309394776821136,0.4645596742630005,0.0400225035846233,0.4685165882110595,0.3353515565395355,0.0247145015746355,0.3316076695919037,0.3035496473312378,0.0169375222176313,0.2650749981403351,0.3537737727165222,0.0079973712563514,0.2329219281673431,0.4044500589370727,0.0011242727050557,0.4662116765975952,0.3478373289108276,-0.010875322856009,0.3109748363494873,0.3092324137687683,-0.0121886143460869,0.2445957511663437,0.3606947362422943,-0.0172268003225326,0.2108029276132583,0.4178149700164795,-0.0260759983211755,0.4497051835060119,0.3940067589282989,-0.0420743525028228,0.2974207699298858,0.3538905680179596,-0.0442140214145183,0.2352810204029083,0.400480180978775,-0.0455328412353992,0.1997901946306228,0.4477512538433075,-0.0522301942110061,0.4178152680397033,0.4658046960830688,-0.0686718821525573,0.2956700026988983,0.4602554738521576,-0.0774278715252876,0.2400235086679458,0.4815899431705475,-0.0807413607835769,0.2024144977331161,0.5006779432296753,-0.08437080681324
2023-08-01 16:05:54.047555,34,528,0.7164998054504395,0.0923600196838378,-0.0355412997305393,0.6905319690704346,-0.41650390625,0.8779296875,0.14404296875,0.5338609218597412,0.6876593828201294,-9.852473112914597e-07,0.4285470843315124,0.6079833507537842,0.0406539179384708,0.3585286736488342,0.5287419557571411,0.0396735742688179,0.2884395718574524,0.4870448112487793,0.0268565341830253,0.2308090627193451,0.4679315984249115,0.0106291333213448,0.4768678545951843,0.335871160030365,0.0111487098038196,0.3367942571640014,0.3074381351470947,-0.0045740529894828,0.2684552371501922,0.3573256134986877,-0.0187575463205575,0.2339379340410232,0.4071464836597442,-0.0290155485272407,0.4742255210876465,0.3481524586677551,-0.0224955342710018,0.3171970248222351,0.3057502806186676,-0.0319293178617954,0.2530408203601837,0.3574109077453613,-0.0397363640367984,0.2190405428409576,0.4146446585655212,-0.0495897121727466,0.4577406048774719,0.396397978067398,-0.0528597198426723,0.3035699129104614,0.3499806523323059,-0.0632767602801323,0.240106001496315,0.3972571492195129,-0.065883032977581,0.2022478729486465,0.4438301920890808,-0.0720709934830665,0.425335556268692,0.4707204103469848,-0.0794865041971206,0.3036299347877502,0.4608097970485687,-0.0969767346978187,0.2459733188152313,0.4799197614192962,-0.1040201857686042,0.2059095799922943,0.4964441955089569,-0.109143815934658
2023-08-01 16:05:54.103498,35,529,0.7166075706481934,0.0981466695666313,-0.0374763458967208,0.689518928527832,-0.43505859375,0.87451171875,0.14892578125,0.5564774870872498,0.682011067867279,-1.0867440778383752e-06,0.4562534093856811,0.6043980121612549,0.0315898619592189,0.3920784890651703,0.5281039476394653,0.0274734981358051,0.3308343589305877,0.483414351940155,0.0138277010992169,0.2786838710308075,0.4582809209823608,-0.0023811473511159,0.5096875429153442,0.339250236749649,-0.0065414765849709,0.3722875714302063,0.2967866659164428,-0.0307797119021415,0.3022809624671936,0.3448879420757293,-0.0471197664737701,0.2672297358512878,0.3956782817840576,-0.0577411279082298,0.510796070098877,0.3551418483257293,-0.0366645939648151,0.3508424162864685,0.3053361177444458,-0.056658748537302,0.2826419174671173,0.357288658618927,-0.0652127116918563,0.2462344169616699,0.4122225642204284,-0.0739862546324729,0.4946684837341308,0.4036532640457153,-0.0644581764936447,0.3415895700454712,0.3539043664932251,-0.0847373083233833,0.2773361504077911,0.3990620970726013,-0.08719502389431,0.2382751256227493,0.4403605163097381,-0.0914728343486785,0.4638056755065918,0.4746775031089782,-0.0889993086457252,0.349461019039154,0.4576708674430847,-0.1163072735071182,0.2869998216629028,0.4710410237312317,-0.1270888149738311,0.2402385920286178,0.4795098304748535,-0.1336480677127838
2023-08-01 16:05:54.174159,36,530,0.7163909673690796,0.1055660843849182,-0.0396814085543155,0.6885238885879517,-0.43505859375,0.88720703125,0.14794921875,0.5704092979431152,0.6817433834075928,-9.76332557911519e-07,0.4663992524147033,0.6067385673522949,0.0281471665948629,0.4017374515533447,0.5323313474655151,0.0206339862197637,0.3403150737285614,0.4904727637767792,0.0037822206504642,0.2882249355316162,0.4622012972831726,-0.0156196197494864,0.5215846300125122,0.3407891392707824,-0.007682017982006,0.3862048387527466,0.2990260720252991,-0.032847810536623,0.3180012106895447,0.3412865400314331,-0.0519180372357368,0.2829645872116089,0.3888668715953827,-0.0641411021351814,0.5206219553947449,0.3562814593315124,-0.0361568294465541,0.3614690601825714,0.3074290156364441,-0.0575528852641582,0.2941096425056457,0.3589650094509125,-0.07032211124897,0.2588551938533783,0.4173106551170349,-0.0816404446959495,0.5043748617172241,0.4036618769168854,-0.0622131302952766,0.3505058586597442,0.3596665263175964,-0.0803790912032127,0.2859734892845154,0.4027247428894043,-0.0858210772275924,0.2491734772920608,0.4470382630825043,-0.0921573489904403,0.4738278985023498,0.4733046293258667,-0.0855292752385139,0.3599721789360046,0.458391398191452,-0.1052208393812179,0.2986756563186645,0.4695987403392792,-0.1141404435038566,0.2545952200889587,0.479343831539154,-0.1205428689718246
2023-08-01 16:05:54.257301,37,531,0.7154096961021423,0.1171321347355842,-0.0435726419091224,0.6874376535415649,-0.4228515625,0.86767578125,0.15478515625,0.5793204307556152,0.6842357516288757,-9.623606729292078e-07,0.4723610579967499,0.6097249984741211,0.0280646197497844,0.409250944852829,0.5330290198326111,0.0203209742903709,0.3479153215885162,0.4899675250053406,0.0032781986519694,0.2950724959373474,0.4607321321964264,-0.0163815841078758,0.5319501757621765,0.343224436044693,-0.0085874069482088,0.3950050473213196,0.3000814914703369,-0.0343605130910873,0.3242976069450378,0.343059778213501,-0.0532592944800853,0.2888481318950653,0.3904374539852142,-0.0654552802443504,0.5328169465065002,0.3589081764221191,-0.0378241278231143,0.3713217973709106,0.3080987334251404,-0.0595585964620113,0.300974428653717,0.3588175773620605,-0.0712531954050064,0.264766663312912,0.4168180227279663,-0.0817874521017074,0.5173379182815552,0.4068309664726257,-0.0648306310176849,0.3614143431186676,0.3610709905624389,-0.0840614512562751,0.2943861484527588,0.4043693542480469,-0.0885037630796432,0.2559266090393066,0.4484101831912994,-0.0940037220716476,0.4866476655006408,0.4766250848770141,-0.0891188979148864,0.3740267753601074,0.4625774621963501,-0.1098082959651947,0.3125749826431274,0.4733455777168274,-0.1184553578495979,0.2677732110023498,0.4817047417163849,-0.1245225295424461
2023-08-01 16:05:54.344315,38,532,0.7146105766296387,0.1282823532819748,-0.0477406494319438,0.6860001683235168,-0.4267578125,0.87646484375,0.15185546875,0.6184024810791016,0.6971323490142822,-9.68279664448346e-07,0.512590229511261,0.6224835515022278,0.0217534806579351,0.4477599859237671,0.5387206077575684,0.0100875180214643,0.3869888186454773,0.4894266724586487,-0.0104072513058781,0.3322019875049591,0.4590819180011749,-0.0330948270857334,0.5645305514335632,0.3542190492153168,-0.0124253183603286,0.4294836223125458,0.3015076518058777,-0.0461101830005645,0.3538363575935364,0.3355455100536346,-0.0705735310912132,0.3140961527824402,0.3798611462116241,-0.0852936953306198,0.5727733373641968,0.370360791683197,-0.041712399572134,0.4159903526306152,0.3060552477836609,-0.0693449601531028,0.3428284525871277,0.3531751036643982,-0.0843462646007537,0.3036938309669494,0.4060543477535248,-0.0957874059677124,0.5645173192024231,0.4170136451721191,-0.0699579343199729,0.4163540601730346,0.3558847606182098,-0.0941570326685905,0.3459586501121521,0.3990651369094848,-0.1006395146250724,0.3041636645793915,0.4432766735553741,-0.106073684990406,0.5389462113380432,0.4860413074493408,-0.0960720553994178,0.426906406879425,0.4692400097846985,-0.1204030811786651,0.3655875325202942,0.4803082942962646,-0.1309111416339874,0.3206686973571777,0.4897540509700775,-0.1373192071914672
2023-08-01 16:05:54.417545,39,533,0.7142418026924133,0.1389036327600479,-0.0513347275555133,0.6840534806251526,-0.421875,0.87744140625,0.11083984375,0.6331472396850586,0.6988648176193237,-9.057682746060892e-07,0.5224516987800598,0.6197412610054016,0.0224959272891283,0.4553826451301574,0.5350237488746643,0.0108215985819697,0.3945377171039581,0.486001968383789,-0.0097354985773563,0.3436358571052551,0.4505979716777801,-0.0325534716248512,0.5794793367385864,0.3493838608264923,-0.01358497235924,0.4367443025112152,0.2950781583786011,-0.0454853735864162,0.3596327602863312,0.3265939950942993,-0.0692078992724418,0.3190977871417999,0.3688896298408508,-0.0837296620011329,0.585148274898529,0.3657408356666565,-0.0424553714692592,0.425003319978714,0.3029942512512207,-0.0681151300668716,0.3510350883007049,0.3483769297599792,-0.0835950598120689,0.3124638795852661,0.399706482887268,-0.0964076593518257,0.5751354694366455,0.413821667432785,-0.0697019174695015,0.4250465929508209,0.3518336415290832,-0.092948317527771,0.3538581132888794,0.3959437906742096,-0.1007503196597099,0.3124857544898987,0.4423490762710571,-0.1076985523104667,0.5487684011459351,0.4844319820404053,-0.0945562571287155,0.4360494315624237,0.4700909852981567,-0.1178985014557838,0.3742468953132629,0.483907401561737,-0.1282416433095932,0.329971969127655,0.4974247515201568,-0.1348882466554641
2023-08-01 16:05:54.486300,40,534,0.7136362791061401,0.1497813761234283,-0.0563836432993412,0.6819894909858704,-0.42236328125,0.8828125,0.13671875,0.6731393337249756,0.7111333012580872,-1.0181527159147663e-06,0.5575628280639648,0.6085273027420044,0.0234395340085029,0.4927469491958618,0.5125063061714172,0.0141572058200836,0.4377581477165222,0.4491719901561737,-0.0053097591735422,0.3943549692630768,0.397590309381485,-0.02649194188416,0.616901695728302,0.3498587608337402,-0.0034904910717159,0.4835343062877655,0.304361879825592,-0.0398674607276916,0.4068053960800171,0.3230356574058532,-0.0675023570656776,0.3592015504837036,0.3540299236774444,-0.0849375054240226,0.6328139305114746,0.3664986193180084,-0.0360774397850036,0.4788359999656677,0.3112829327583313,-0.0665896013379097,0.4058326780796051,0.3517414033412933,-0.0862639099359512,0.3615339398384094,0.3951579332351684,-0.1022356674075126,0.6334847807884216,0.4127771854400635,-0.0686540827155113,0.4878761172294616,0.3603065013885498,-0.0992599800229072,0.4163224101066589,0.4071599841117859,-0.1104370728135109,0.3702596426010132,0.4518944323062897,-0.1186476498842239,0.6178274750709534,0.4828708469867706,-0.0990968123078346,0.5039082765579224,0.4715343713760376,-0.1285208463668823,0.4371626675128937,0.4830045104026794,-0.1430476009845733,0.3853779137134552,0.4928208589553833,-0.1526232957839965
2023-08-01 16:05:54.538785,41,535,0.7132930159568787,0.1561435312032699,-0.0592934861779212,0.6806735992431641,-0.43115234375,0.89013671875,0.134765625,0.6902081370353699,0.7071371078491211,-1.0496048616914775e-06,0.5780314207077026,0.6064361333847046,0.024398336187005,0.5152512788772583,0.5224262475967407,0.0131574273109436,0.4595254063606262,0.4694800674915313,-0.0085866106674075,0.4146322607994079,0.4243441224098205,-0.0329229161143302,0.6460139751434326,0.357865035533905,-0.005938371643424,0.5112876892089844,0.3192245960235595,-0.0406746827065944,0.4375713169574737,0.3579801321029663,-0.0689195618033409,0.3961147665977478,0.3995568454265594,-0.087646909058094,0.6566892862319946,0.3752354979515075,-0.038453359156847,0.5014601349830627,0.3194033801555633,-0.0697709992527961,0.4282810688018799,0.3734169006347656,-0.0922296568751335,0.3866274356842041,0.4272305071353912,-0.1098624542355537,0.6510574817657471,0.4220302402973175,-0.0698453038930893,0.5038694143295288,0.3651121854782104,-0.0979602485895156,0.4323943853378296,0.4132011234760284,-0.1105376631021499,0.387808084487915,0.4603155553340912,-0.1205426156520843,0.6299614310264587,0.4908938407897949,-0.0988311544060707,0.5133928656578064,0.4757361114025116,-0.1258606761693954,0.4474864304065704,0.4857803285121918,-0.1398575901985168,0.3978224396705627,0.4928928017616272,-0.1496199667453766
2023-08-01 16:05:54.600699,42,536,0.7124354839324951,0.1636117845773697,-0.0630994290113449,0.6794742941856384,-0.42529296875,0.89892578125,0.11376953125,0.6999030709266663,0.702172040939331,-1.0489902706467549e-06,0.593697726726532,0.6094329357147217,0.02689129114151,0.5294238924980164,0.5265827775001526,0.0191159415990114,0.474713921546936,0.4768580198287964,0.0004609508905559,0.4301448762416839,0.4357767105102539,-0.0208808593451976,0.6564180850982666,0.3614233136177063,-0.0001892605505418,0.5298234224319458,0.3294198513031006,-0.0320843011140823,0.4588998556137085,0.3705551922321319,-0.0581935346126556,0.4193545579910278,0.4132257401943207,-0.0757588371634483,0.6683045029640198,0.3772088587284088,-0.0331643261015415,0.5194107294082642,0.3289075493812561,-0.0631107315421104,0.4479497969150543,0.380142331123352,-0.0833707898855209,0.4063087105751037,0.4335459470748901,-0.098499983549118,0.6643964052200317,0.4237431585788727,-0.0652963668107986,0.5187015533447266,0.3758866190910339,-0.093958206474781,0.4478139579296112,0.4182190001010895,-0.105200782418251,0.4020753800868988,0.4589945375919342,-0.1132609322667121,0.6465088725090027,0.4922390580177307,-0.0947318822145462,0.530344545841217,0.4790612161159515,-0.1231107264757156,0.4654132723808288,0.4895574152469635,-0.1364341080188751,0.416114330291748,0.4961999654769897,-0.1448203325271606
2023-08-01 16:05:54.661779,43,537,0.7113745808601379,0.1711837649345398,-0.0689631626009941,0.6781492233276367,-0.3916015625,0.89111328125,0.1337890625,0.7427330017089844,0.7051421403884888,-1.0015722864409329e-06,0.6358076930046082,0.6141762137413025,0.0136770168319344,0.568454384803772,0.5322244763374329,0.0002736964379437,0.5138034820556641,0.4812901616096496,-0.0204686447978019,0.4724233746528625,0.4394641816616058,-0.0423596203327178,0.7010402083396912,0.3660373091697693,-0.0095659950748085,0.5803070664405823,0.3318124413490295,-0.0459948033094406,0.5086841583251953,0.3642738461494446,-0.0755565017461776,0.4651851058006286,0.4048646688461303,-0.0942236930131912,0.7196514010429382,0.3818862438201904,-0.0366955362260341,0.5776440501213074,0.3324829339981079,-0.0698008984327316,0.5043760538101196,0.3774756789207458,-0.0917252972722053,0.4595051109790802,0.4301983118057251,-0.1065576896071434,0.7207893133163452,0.4263597130775451,-0.0641438737511634,0.583977997303009,0.3802315294742584,-0.0932944267988205,0.5095120072364807,0.4138157367706299,-0.1040458157658577,0.4602034091949463,0.4513702988624573,-0.1105677261948585,0.704943060874939,0.4938076138496399,-0.0901030376553535,0.5918277502059937,0.4841196537017822,-0.1159595847129821,0.5285178422927856,0.4906603693962097,-0.1259782612323761,0.4808795750141144,0.4951843917369842,-0.1309371292591095
2023-08-01 16:05:54.727217,44,538,0.7103367447853088,0.1776916980743408,-0.0722279474139213,0.6772225499153137,-0.421875,0.8759765625,0.1494140625,0.7522258162498474,0.7087776064872742,-9.479641107645876e-07,0.6489593386650085,0.6149898171424866,0.0135552808642387,0.5813365578651428,0.5330710411071777,0.0002042322739725,0.5275164842605591,0.4860824942588806,-0.021280275657773,0.4904956817626953,0.4470307826995849,-0.0435730442404747,0.7131021022796631,0.3682663738727569,-0.0056804143823683,0.5968455076217651,0.3324465751647949,-0.0450221970677375,0.524501383304596,0.3624096512794494,-0.0775363221764564,0.4752250909805298,0.4031903445720672,-0.0971817225217819,0.7299169898033142,0.3845576047897339,-0.0334639027714729,0.5897270441055298,0.3356727957725525,-0.0687530115246772,0.5164045691490173,0.3789656162261963,-0.0935900509357452,0.4696873128414154,0.4302956759929657,-0.1095808446407318,0.7313142418861389,0.4280900955200195,-0.0621258988976478,0.5972894430160522,0.3836141526699066,-0.0929302051663398,0.524867594242096,0.4173724055290222,-0.1061308160424232,0.4757099747657776,0.4554730951786041,-0.11311786621809,0.7168331742286682,0.4940265715122223,-0.0894873365759849,0.6085206866264343,0.479458749294281,-0.1156902611255645,0.5479816198348999,0.4862403571605682,-0.1263945698738098,0.5018635988235474,0.4940362870693207,-0.1312722563743591
2023-08-01 16:05:54.787373,45,539,0.7083655595779419,0.1856552511453628,-0.0755583941936492,0.6767874956130981,-0.43603515625,0.87744140625,0.126953125,0.7645899057388306,0.7121604681015015,-9.504606737209542e-07,0.6644263863563538,0.6198290586471558,0.010347812436521,0.5938645005226135,0.5412633419036865,-0.0066507044248282,0.5363320708274841,0.4964303076267242,-0.0312336105853319,0.4939168691635132,0.4607989192008972,-0.0566665567457675,0.7266231775283813,0.3717834055423736,-0.0104205179959535,0.6066338419914246,0.3357597589492798,-0.0524565912783145,0.5317793488502502,0.3642695844173431,-0.0874371901154518,0.48007732629776,0.4031843245029449,-0.1087516173720359,0.7434715032577515,0.3871900141239166,-0.0375312305986881,0.5987867116928101,0.3349776864051819,-0.0756119191646575,0.5233376026153564,0.3799810409545898,-0.102555863559246,0.4747414588928222,0.4310659766197204,-0.1200277730822563,0.744595468044281,0.4296249151229858,-0.06544129550457,0.6097416281700134,0.3828676342964172,-0.0978919938206672,0.536470353603363,0.4210816025733948,-0.1116319745779037,0.4868046045303345,0.4619015753269195,-0.1187532767653465,0.7301238179206848,0.4941965043544769,-0.0922764986753463,0.6202994585037231,0.481781929731369,-0.1191088259220123,0.5589779615402222,0.4903505444526672,-0.1300205737352371,0.5122677087783813,0.499152809381485,-0.1350013166666031
2023-08-01 16:05:54.849125,46,540,0.7067147493362427,0.1922622919082641,-0.0782491341233253,0.6763626933097839,-0.3916015625,0.86474609375,0.107421875,0.7729560136795044,0.7113054394721985,-9.534198284200102e-07,0.6734278202056885,0.6214859485626221,0.0084353275597095,0.6017140746116638,0.5441750288009644,-0.0100728524848818,0.5438220500946045,0.5008012652397156,-0.0360910296440124,0.5041903257369995,0.4629642367362976,-0.0629889369010925,0.7360133528709412,0.372244268655777,-0.0107142562046647,0.6148533821105957,0.3363885283470154,-0.0545550510287284,0.5391560792922974,0.3624969720840454,-0.0915257111191749,0.487562745809555,0.3988945782184601,-0.1142516061663627,0.7546864151954651,0.3872913718223572,-0.0377137213945388,0.6089973449707031,0.3338876366615295,-0.0775680989027023,0.5331115126609802,0.3776560127735138,-0.1066631078720092,0.4849174618721008,0.4267375469207763,-0.1255097985267639,0.757686197757721,0.4284169673919678,-0.0658218935132026,0.6216100454330444,0.3819231688976288,-0.0994250103831291,0.5469791293144226,0.4194948673248291,-0.1142138391733169,0.4971303343772888,0.4590668678283691,-0.1219080984592437,0.744937002658844,0.4917280673980713,-0.0930986478924751,0.6330043077468872,0.479044497013092,-0.1207153275609016,0.5707350373268127,0.4881329238414764,-0.1319843977689743,0.5239781141281128,0.4968385100364685,-0.1370541006326675
2023-08-01 16:05:54.915656,47,541,0.7059268951416016,0.1980227977037429,-0.0812339335680008,0.6751704812049866,-0.35693359375,0.88525390625,0.12060546875,0.793906033039093,0.7158342599868774,-1.0071209999296116e-06,0.7012598514556885,0.6194686889648438,0.0072123208083212,0.6356849074363708,0.5312727093696594,-0.0069477129727602,0.581037163734436,0.4788298010826111,-0.0289673805236816,0.542778491973877,0.4345387518405914,-0.051425464451313,0.7642837166786194,0.368669718503952,0.0007603207486681,0.6546226143836975,0.3313130140304565,-0.0416946932673454,0.5836569666862488,0.3541763424873352,-0.0786807909607887,0.5356545448303223,0.3898176848888397,-0.1011068671941757,0.789854109287262,0.3835550546646118,-0.0246881581842899,0.6579909920692444,0.3361333012580871,-0.0640596523880958,0.5847558975219727,0.3796295821666717,-0.09409911185503,0.5366679430007935,0.4310619831085205,-0.1121111288666725,0.7999650835990906,0.4245995283126831,-0.0525225177407264,0.6724510192871094,0.3806311190128326,-0.0883057042956352,0.5979737639427185,0.4186909794807434,-0.1043941304087638,0.5474280714988708,0.4601326286792755,-0.1110131740570068,0.791465163230896,0.4886929392814636,-0.0796798318624496,0.681587815284729,0.4780354499816894,-0.1092541217803955,0.621030330657959,0.4864646196365356,-0.1211485192179679,0.5757253170013428,0.4947573542594909,-0.1252433359622955
2023-08-01 16:05:54.974446,48,542,0.7060822248458862,0.201933354139328,-0.0823663547635078,0.6737110018730164,-0.41162109375,0.87744140625,0.10009765625,0.8095846176147461,0.7140517234802246,-9.495010999671648e-07,0.7156438827514648,0.6208550930023193,0.0080201588571071,0.6506669521331787,0.5352906584739685,-0.005706395022571,0.59797602891922,0.4858504235744476,-0.0277223791927099,0.5586748123168945,0.4431155323982239,-0.0507203377783298,0.7728983163833618,0.3682464957237243,0.0056169130839407,0.6652432084083557,0.3367959856986999,-0.0375380106270313,0.5963864922523499,0.3522338271141052,-0.0766771659255027,0.5447182655334473,0.3800216913223266,-0.1003301367163658,0.7990307211875916,0.3837587535381317,-0.0209906492382287,0.6696981191635132,0.3368633389472961,-0.0603176690638065,0.5960948467254639,0.3749972283840179,-0.0913725346326828,0.5449645519256592,0.4196641743183136,-0.1099453121423721,0.809226930141449,0.4241903126239776,-0.0504743196070194,0.6872856020927429,0.3795954585075378,-0.0877845808863639,0.6115501523017883,0.4152811169624328,-0.1053422093391418,0.5583980679512024,0.4520420432090759,-0.1122271195054054,0.8004009127616882,0.4869338572025299,-0.0792597457766532,0.6926652789115906,0.4739542007446289,-0.1096340641379356,0.6321187615394592,0.4837395548820495,-0.1215446665883064,0.5856508016586304,0.4927632212638855,-0.1252910643815994
2023-08-01 16:05:55.039045,49,543,0.7065487504005432,0.2070162892341613,-0.0834293663501739,0.6715450286865234,-0.38037109375,0.880859375,0.1240234375,0.8210452795028687,0.7149619460105896,-9.470946338296926e-07,0.7294499278068542,0.6229023933410645,0.0057838717475533,0.665469765663147,0.53560870885849,-0.0092123830690979,0.6136274933815002,0.4862686991691589,-0.0319294407963752,0.5748480558395386,0.4396225810050964,-0.0552868731319904,0.7848014235496521,0.3706488609313965,0.0011315656593069,0.6794576048851013,0.338555097579956,-0.0449384935200214,0.6107833385467529,0.3566538691520691,-0.0855439752340316,0.559829592704773,0.3883512616157532,-0.110078141093254,0.8127582669258118,0.3853347301483154,-0.0256108753383159,0.6846947073936462,0.3364190459251404,-0.0678747370839119,0.6133875846862793,0.3757529258728027,-0.1001068279147148,0.5655111074447632,0.4212787449359894,-0.1193250119686126,0.8251587748527527,0.4263446927070617,-0.0554621070623397,0.70721435546875,0.3770100176334381,-0.096007153391838,0.633338212966919,0.4119156002998352,-0.1141942664980888,0.5823196768760681,0.4489844441413879,-0.1210984513163566,0.8186197280883789,0.4901510179042816,-0.0846126079559326,0.713325560092926,0.4755294322967529,-0.1187443137168884,0.6512176990509033,0.4840341806411743,-0.1320536434650421,0.6038927435874939,0.4925340116024017,-0.1363543272018432
2023-08-01 16:05:55.101556,50,544,0.7069361209869385,0.2102837413549423,-0.0833675786852836,0.6701282262802124,-0.3994140625,0.90185546875,0.107421875,0.8231236934661865,0.7154166102409363,-9.214447231897792e-07,0.7327787280082703,0.6226143836975098,0.0027581902686506,0.6694966554641724,0.5366149544715881,-0.013577464967966,0.6191005110740662,0.4863680899143219,-0.0368912555277347,0.5837799310684204,0.4393007159233093,-0.0604754351079463,0.793527364730835,0.3715405762195587,-0.0011997623369097,0.6917869448661804,0.3395789861679077,-0.0473517924547195,0.6237140893936157,0.3579033613204956,-0.0880955681204795,0.5729712247848511,0.3892968297004699,-0.1125283017754554,0.8212937116622925,0.3874151110649109,-0.0262445621192455,0.6969594955444336,0.3406151533126831,-0.0690270215272903,0.6256018280982971,0.3777927458286285,-0.1016544699668884,0.5770821571350098,0.4217607378959656,-0.1207507699728012,0.8337646722793579,0.429414689540863,-0.0545039512217044,0.7175671458244324,0.3820643723011017,-0.095117449760437,0.6444785594940186,0.4148635268211365,-0.1130237579345703,0.5933539271354675,0.4501227736473083,-0.1194100379943847,0.8278869986534119,0.4945725798606872,-0.0823563188314437,0.7244598269462585,0.4783880710601806,-0.1162356063723564,0.6649149060249329,0.4867390990257263,-0.128669187426567,0.6197106242179871,0.4947135150432586,-0.1319376826286316
2023-08-01 16:05:55.165501,51,545,0.7073453068733215,0.2131066769361496,-0.0837809816002845,0.6687517762184143,-0.4150390625,0.90625,0.10546875,0.8432401418685913,0.7195556163787842,-9.38164816943754e-07,0.7556355595588684,0.6312910318374634,0.0006412732764147,0.6922276020050049,0.5436683893203735,-0.013969731517136,0.6385746002197266,0.4926585555076599,-0.0346598550677299,0.6013933420181274,0.443490982055664,-0.0552835874259471,0.8136892318725586,0.3801863193511963,-0.0025282942224293,0.7136750817298889,0.3444634974002838,-0.0443986766040325,0.6483423113822937,0.3652384877204895,-0.0798961147665977,0.6037873029708862,0.3971368968486786,-0.1015672758221626,0.8424168825149536,0.3976992070674896,-0.0250503141433,0.7172890901565552,0.3447190523147583,-0.0650762692093849,0.6484084725379944,0.3857854306697845,-0.0940475240349769,0.6059131026268005,0.4302533864974975,-0.1106974557042121,0.8552349209785461,0.4397233128547668,-0.0507149845361709,0.7373740077018738,0.3911914229393005,-0.0910493806004524,0.6653872728347778,0.4259822070598602,-0.1074414923787117,0.6181014776229858,0.4616400003433227,-0.1125855520367622,0.8481976985931396,0.5025750994682312,-0.0758930742740631,0.7429582476615906,0.4872596263885498,-0.1107679679989814,0.6827294826507568,0.496689110994339,-0.1236208155751228,0.6382664442062378,0.5060631632804871,-0.1269226819276809
2023-08-01 16:05:55.220672,52,546,0.7072162628173828,0.2143231332302093,-0.0848793536424636,0.6683607697486877,-0.41455078125,0.88232421875,0.142578125,0.8440872430801392,0.7185096740722656,-8.877885875335778e-07,0.7560842633247375,0.6317422986030579,-0.0023477154318243,0.6912924647331238,0.5450916290283203,-0.0208398438990116,0.6413053274154663,0.4942850172519684,-0.0456570126116275,0.6068770289421082,0.4419461786746979,-0.0710058733820915,0.8124489188194275,0.3809000849723816,-0.0066407602280378,0.7154984474182129,0.346984714269638,-0.0568431466817855,0.6488516926765442,0.3611681163311004,-0.1006880477070808,0.597786545753479,0.3909258544445038,-0.1269157230854034,0.8428784608840942,0.3979040384292602,-0.0308008156716823,0.7226051688194275,0.3489416241645813,-0.0787514001131057,0.6515626907348633,0.3864707946777344,-0.1156277060508728,0.6041362285614014,0.4303995370864868,-0.1367745101451873,0.8585465550422668,0.4403200447559356,-0.0586394555866718,0.745936393737793,0.393977403640747,-0.1051201969385147,0.6719744205474854,0.4278892576694488,-0.1272197812795639,0.6219150424003601,0.464428037405014,-0.1350325495004654,0.8552694320678711,0.5040867328643799,-0.0861028656363487,0.7544812560081482,0.4868573546409607,-0.1244007423520088,0.6962549090385437,0.4959671199321747,-0.1393898874521255,0.6533564925193787,0.5058891773223877,-0.1436410397291183
2023-08-01 16:05:55.278280,53,547,0.7067439556121826,0.2156688272953033,-0.0857713595032692,0.6683135628700256,-0.44287109375,0.8916015625,0.1328125,0.8476381301879883,0.7205934524536133,-9.07397804894572e-07,0.761870265007019,0.6336407661437988,-0.0019204429117962,0.6982810497283936,0.5454279780387878,-0.0184676628559827,0.6482375860214233,0.4938583076000213,-0.0409361645579338,0.6151379346847534,0.4404835402965545,-0.0634840428829193,0.8206971287727356,0.3852646350860595,-0.0047297603450715,0.7261240482330322,0.352178692817688,-0.0513835586607456,0.6598886251449585,0.3694450259208679,-0.0920262858271598,0.6100172996520996,0.4002276957035064,-0.1166885197162628,0.8504741191864014,0.4027530550956726,-0.0276040043681859,0.7311668992042542,0.3529020845890045,-0.0718627646565437,0.661033034324646,0.3903433084487915,-0.1056683808565139,0.6145422458648682,0.4334152638912201,-0.125353530049324,0.8650772571563721,0.4443015158176422,-0.054091989994049,0.7524094581604004,0.3966611921787262,-0.097253531217575,0.6801704168319702,0.4288695454597473,-0.1171330660581588,0.6309254765510559,0.4633148312568664,-0.1244708523154258,0.8607944846153259,0.5069184303283691,-0.0803027376532554,0.7587738633155823,0.4906946718692779,-0.116689458489418,0.7002214789390564,0.5002666115760803,-0.1309078335762024,0.6570224761962891,0.509662389755249,-0.1352300494909286
2023-08-01 16:05:55.341789,54,548,0.7060847878456116,0.2190601974725723,-0.0878384411334991,0.6676387190818787,-0.38916015625,0.88525390625,0.12939453125,0.8687880039215088,0.7221719026565552,-8.787479259808606e-07,0.7804418802261353,0.6358537673950195,-0.0002565168251749,0.7145720720291138,0.5525607466697693,-0.0186888240277767,0.6598495244979858,0.5037531852722168,-0.0439313910901546,0.6252524256706238,0.4504536986351013,-0.0692332237958908,0.8379845023155212,0.3893172442913055,-0.0036893370561301,0.7409948110580444,0.3546872437000274,-0.0497095696628093,0.6766316890716553,0.3764346837997436,-0.0894488170742988,0.6312635540962219,0.4100524187088012,-0.11422099173069,0.8668192625045776,0.4070043563842773,-0.0290743336081504,0.7445924282073975,0.351453572511673,-0.0745378956198692,0.6763064861297607,0.392533004283905,-0.1096955835819244,0.6339544653892517,0.4376358985900879,-0.13053959608078,0.8800191283226013,0.4476202130317688,-0.0578581877052784,0.7662906050682068,0.4008937180042267,-0.1015287563204765,0.6933497786521912,0.4345415234565735,-0.1225214600563049,0.6447467803955078,0.4706372916698456,-0.1311054974794387,0.873948335647583,0.5072019696235657,-0.0862600207328796,0.7727988362312317,0.4942356646060943,-0.1234898194670677,0.7139079570770264,0.5032142996788025,-0.1394269466400146,0.6696807742118835,0.5117214918136597,-0.1454218029975891
2023-08-01 16:05:55.404525,55,549,0.7057223320007324,0.2208782285451889,-0.0891016274690628,0.6672554016113281,-0.36376953125,0.8798828125,0.123046875,0.8654639720916748,0.7263038158416748,-8.891236689123616e-07,0.7811159491539001,0.6351049542427063,0.0008927605813369,0.7165919542312622,0.5480989813804626,-0.0166763011366128,0.663705050945282,0.4980575442314148,-0.0416475124657154,0.6334174871444702,0.4407719671726227,-0.0664329156279563,0.8435271978378296,0.3902375400066376,0.0010397713631391,0.75041264295578,0.3531811833381653,-0.0448243804275989,0.6859784722328186,0.3737180829048157,-0.0851992145180702,0.640104353427887,0.4078950583934784,-0.1101370453834533,0.871601939201355,0.4088280200958252,-0.0241842679679393,0.7526900172233582,0.3557415604591369,-0.0694178715348243,0.6848422288894653,0.3954403400421142,-0.1050418689846992,0.6426244974136353,0.4385764300823211,-0.1259775310754776,0.88496994972229,0.4479435980319977,-0.0530452914535999,0.7745385766029358,0.3997946977615356,-0.0964980721473693,0.7018917798995972,0.4319154620170593,-0.117535188794136,0.6530746817588806,0.4672425985336303,-0.12575264275074,0.880281388759613,0.5063184499740601,-0.0815207362174987,0.7814240455627441,0.4893194139003753,-0.1185359060764312,0.7220609784126282,0.4993003308773041,-0.1339811533689499,0.6775892972946167,0.5101784467697144,-0.1392279267311096
2023-08-01 16:05:55.469380,56,550,0.7052329778671265,0.2220583856105804,-0.0901925861835479,0.6672343015670776,-0.4130859375,0.8837890625,0.13818359375,0.8669548034667969,0.7240087985992432,-8.868548206919513e-07,0.7840312123298645,0.6370112895965576,-0.0030293883755803,0.7209766507148743,0.5501712560653687,-0.0207084994763135,0.6688967347145081,0.5003217458724976,-0.0444698818027973,0.6341418623924255,0.4451648890972137,-0.0681922435760498,0.8475130796432495,0.3877360224723816,-0.00311607751064,0.7554450035095215,0.3519784212112427,-0.048624325543642,0.6900915503501892,0.3679872155189514,-0.0893192514777183,0.6406856179237366,0.3977317214012146,-0.1143629997968673,0.8765388131141663,0.4058440625667572,-0.0250088181346654,0.7579935193061829,0.3561540246009826,-0.0692986398935318,0.6877795457839966,0.3918421864509582,-0.105075366795063,0.6411291360855103,0.432172030210495,-0.126140147447586,0.8899421691894531,0.4470358788967132,-0.0505602993071079,0.7798921465873718,0.4011614620685577,-0.0934976860880851,0.7060017585754395,0.4299448430538177,-0.1154734790325164,0.6546000838279724,0.4622233510017395,-0.1241105422377586,0.8840490579605103,0.5076999068260193,-0.0759020298719406,0.7840309739112854,0.4897319972515106,-0.1125310063362121,0.7252347469329834,0.4978587925434112,-0.1283873915672302,0.6810564398765564,0.5069611668586731,-0.133679986000061
2023-08-01 16:05:55.541276,57,551,0.704535961151123,0.2233906239271164,-0.0905535817146301,0.6674771904945374,-0.4169921875,0.88720703125,0.14013671875,0.8724035620689392,0.7228385210037231,-8.866268785823195e-07,0.7877683043479919,0.635733962059021,-0.0044448357075452,0.7228071093559265,0.5481891632080078,-0.0235588625073432,0.6701632142066956,0.4971566796302795,-0.04859060049057,0.6378248929977417,0.4425928592681885,-0.0734387710690498,0.8515584468841553,0.3875491917133331,-0.0058361431583762,0.7553196549415588,0.352634072303772,-0.0542910881340503,0.6885764598846436,0.3698917031288147,-0.0963235795497894,0.6395726203918457,0.4014756977558136,-0.1218130365014076,0.8794423341751099,0.4057896137237549,-0.0283558033406734,0.7581031322479248,0.3516289293766022,-0.0763939246535301,0.6883503794670105,0.392124593257904,-0.1127477437257766,0.6449874639511108,0.4375078976154327,-0.1329217404127121,0.8923527002334595,0.4469791948795318,-0.0548361130058765,0.7814162373542786,0.3998285233974457,-0.1006510183215141,0.7074991464614868,0.4301288723945617,-0.1229170784354209,0.6587706804275513,0.4644196629524231,-0.1306830644607544,0.8867982029914856,0.5073473453521729,-0.0812112241983413,0.7865898609161377,0.4889459908008575,-0.1196461096405983,0.7273762226104736,0.4965493977069855,-0.136296808719635,0.6841776371002197,0.5056939721107483,-0.1415939182043075
2023-08-01 16:05:55.631675,58,552,0.7042014598846436,0.2246540486812591,-0.091962955892086,0.6672132611274719,-0.4306640625,0.8828125,0.1669921875,0.8760912418365479,0.7179273962974548,-8.483800684189191e-07,0.7935971617698669,0.6315754055976868,-0.0075110225006937,0.7303661108016968,0.5474597811698914,-0.0290199741721153,0.6771470904350281,0.4976101815700531,-0.0563947446644306,0.6447970271110535,0.4387319684028625,-0.0836173221468925,0.8557628989219666,0.3868708312511444,-0.0069595957174897,0.7680551409721375,0.3486126363277435,-0.0577510260045528,0.7041105628013611,0.3625547885894775,-0.1022038906812667,0.6560450792312622,0.391068696975708,-0.129754364490509,0.8859585523605347,0.4034087061882019,-0.0290121585130691,0.7721970677375793,0.3470053672790527,-0.0814156383275985,0.7038871049880981,0.3861358165740967,-0.1225892230868339,0.6605550050735474,0.4284712970256805,-0.146147072315216,0.9011561870574952,0.442396342754364,-0.0553655140101909,0.7936526536941528,0.3942562937736511,-0.105802945792675,0.7195571064949036,0.4273492991924286,-0.1328062862157821,0.6694336533546448,0.4632925987243652,-0.1433737128973007,0.8983208537101746,0.5002186298370361,-0.0816423371434211,0.7997860312461853,0.483362466096878,-0.1237644851207733,0.7408419847488403,0.4920308291912079,-0.1440163105726242,0.6968891620635986,0.5008437633514404,-0.1519230157136917
2023-08-01 16:05:55.717299,59,553,0.7035563588142395,0.2278177142143249,-0.0930427089333534,0.6666713953018188,-0.38818359375,0.88720703125,0.14794921875,0.8793777227401733,0.7181009650230408,-8.811458656055038e-07,0.7978167533874512,0.632473349571228,-0.0073668058030307,0.7358534932136536,0.5455801486968994,-0.0258648339658975,0.6850106120109558,0.494290292263031,-0.0495647378265857,0.6516488790512085,0.4385315477848053,-0.072841115295887,0.8589694499969482,0.3825386762619018,-0.0044497544877231,0.7705634236335754,0.3477761149406433,-0.0511890798807144,0.7056686282157898,0.3644250631332397,-0.0923686251044273,0.65772944688797,0.3955627083778381,-0.1175103262066841,0.8884876370429993,0.4008964002132416,-0.0241003185510635,0.7740955352783203,0.3507398962974548,-0.0708578750491142,0.7046777606010437,0.3911333978176117,-0.1071551665663719,0.660541832447052,0.4358941316604614,-0.1273908019065857,0.903389573097229,0.4423986971378326,-0.0480361953377723,0.7978403568267822,0.3954352736473083,-0.0939657539129257,0.7238507270812988,0.4259981215000152,-0.1173769980669021,0.6736978888511658,0.4607284367084503,-0.1257400065660476,0.9000949263572693,0.5039680004119873,-0.0719845965504646,0.8030761480331421,0.4861599504947662,-0.1113284900784492,0.7449915409088135,0.4942689836025238,-0.1288158595561981,0.7019426226615906,0.5031116604804993,-0.1344654858112335
2023-08-01 16:05:55.791566,60,554,0.7027738690376282,0.2302233278751373,-0.0939262434840202,0.6665464043617249,-0.37255859375,0.88427734375,0.13330078125,0.8809126615524292,0.7167284488677979,-8.791618029135861e-07,0.7993733882904053,0.6312174201011658,-0.0052295955829322,0.7367920875549316,0.5445528030395508,-0.0238483324646949,0.6851263642311096,0.4932442009449005,-0.0485951043665409,0.6549079418182373,0.4366201162338257,-0.0727571472525596,0.8609272241592407,0.3863061070442199,-0.0020801336504518,0.773213267326355,0.3473349511623382,-0.0495123118162155,0.7076601386070251,0.364533007144928,-0.0909638181328773,0.6591510772705078,0.396980732679367,-0.115748293697834,0.8894146680831909,0.4047256708145141,-0.0232340618968009,0.7753171920776367,0.3489422798156738,-0.0700976997613906,0.7053637504577637,0.3878403007984161,-0.1064391955733299,0.6612401008605957,0.431794136762619,-0.1263588368892669,0.9039719700813292,0.4442940950393677,-0.0486539229750633,0.798738420009613,0.3948947489261627,-0.0929847061634063,0.7249117493629456,0.4238862991333008,-0.1152984797954559,0.6757497191429138,0.4587777256965637,-0.1229084953665733,0.9005884528160095,0.5024863481521606,-0.0741387084126472,0.8034869432449341,0.4817476272583008,-0.1106728985905647,0.743751585483551,0.4875212907791137,-0.1267749667167663,0.6993820071220398,0.4969969689846039,-0.1316349506378173
2023-08-01 16:05:55.862362,61,555,0.7023763656616211,0.2315965145826339,-0.0935023427009582,0.6665491461753845,-0.41357421875,0.8857421875,0.0927734375,0.8811011910438538,0.7110784649848938,-8.676996685608174e-07,0.8006936311721802,0.6269350051879883,-0.0086584920063614,0.7387270927429199,0.5418471693992615,-0.028667502105236,0.6878522634506226,0.488661915063858,-0.0536796078085899,0.658116340637207,0.4305658638477325,-0.0780389755964279,0.8656874895095825,0.3808863162994385,-0.0065743676386773,0.7764913439750671,0.3451111316680908,-0.0538068041205406,0.712800145149231,0.362292468547821,-0.0948021709918975,0.666967511177063,0.3941441178321838,-0.1196741163730621,0.8953702449798584,0.3992567062377929,-0.0256916880607604,0.7799145579338074,0.3459717035293579,-0.0724603310227394,0.7129861116409302,0.3859608173370361,-0.1080869361758232,0.6720424890518188,0.4303306341171264,-0.1279513388872146,0.9105191826820374,0.4399392008781433,-0.0491372421383857,0.8031044602394104,0.3938215970993042,-0.0951408296823501,0.7301269769668579,0.4247575104236603,-0.1175611168146133,0.6816282272338867,0.4598608911037445,-0.1252326816320419,0.9073925018310548,0.4998739957809448,-0.0727059245109558,0.8092213869094849,0.4813822209835052,-0.1117182075977325,0.74996417760849,0.4896451830863952,-0.1287177503108978,0.7057645916938782,0.5002474188804626,-0.1340498030185699
2023-08-01 16:05:55.923732,62,556,0.7022399306297302,0.2318566143512725,-0.0938249453902244,0.666557252407074,-0.3857421875,0.8876953125,0.12548828125,0.8898981809616089,0.7084576487541199,-8.665297741572431e-07,0.8115337491035461,0.6268898844718933,-0.0075936247594654,0.7535036206245422,0.5405473113059998,-0.0244135539978742,0.7030914425849915,0.4875277280807495,-0.0463217198848724,0.6692825555801392,0.430289626121521,-0.0677089616656303,0.8728431463241577,0.3864821195602417,-0.0027221078053116,0.7923757433891296,0.3408129215240478,-0.0464407987892627,0.7302207350730896,0.3557642996311188,-0.0846261158585548,0.685073971748352,0.3847368955612182,-0.1081738770008087,0.9041731953620912,0.4024834334850311,-0.0211387928575277,0.7992671132087708,0.3443116247653961,-0.0648294910788536,0.7317811250686646,0.3782800436019897,-0.0988125205039978,0.6883960962295532,0.4173113703727722,-0.1181830614805221,0.9210491180419922,0.4403763711452484,-0.0438813902437686,0.819839358329773,0.3883769512176513,-0.0884621366858482,0.7461623549461365,0.4194166958332062,-0.1100999042391777,0.6959128975868225,0.4530467689037323,-0.1177962869405746,0.9195233583450316,0.4971829056739807,-0.0666582286357879,0.8215522766113281,0.4771511852741241,-0.1056230440735817,0.761913001537323,0.4871732294559479,-0.1223524361848831,0.7177809476852417,0.4970478117465973,-0.1278095990419387
2023-08-01 16:05:55.982781,63,557,0.7024599313735962,0.2312633842229843,-0.092946283519268,0.6666545867919922,-0.412109375,0.8916015625,0.12548828125,0.8885970115661621,0.7075353264808655,-8.659000059196842e-07,0.8106555938720703,0.6245332956314087,-0.0107287494465708,0.7508184909820557,0.5378507971763611,-0.0299613587558269,0.700394868850708,0.4831545054912567,-0.0537596456706523,0.6744674444198608,0.4242166876792907,-0.0762058347463607,0.8737533092498779,0.3806017935276031,-0.0050600911490619,0.7928162217140198,0.3378856778144836,-0.0519092455506324,0.7292144894599915,0.3546186685562134,-0.0920876711606979,0.6812487244606018,0.3870555758476257,-0.1158366426825523,0.9054629802703856,0.3981605768203735,-0.0220625456422567,0.7978506684303284,0.3409901261329651,-0.0678493529558181,0.728670597076416,0.3790395855903625,-0.1014508679509162,0.6853208541870117,0.4237141013145447,-0.1191706359386444,0.9224400520324708,0.4372471570968628,-0.0439023002982139,0.8210158348083496,0.3862185776233673,-0.0892480462789535,0.7475018501281738,0.4177504777908325,-0.1096487119793891,0.6991739273071289,0.4549068212509155,-0.1151979267597198,0.92033451795578,0.4952672123908996,-0.0661712437868118,0.8237243890762329,0.476521760225296,-0.1050320714712143,0.7640578746795654,0.4845897257328033,-0.121119849383831,0.7204160690307617,0.495776891708374,-0.1250239610671997
2023-08-01 16:05:56.039405,64,558,0.7024751305580139,0.2306165397167205,-0.0914875045418739,0.6670642495155334,-0.42041015625,0.8994140625,0.1025390625,0.8894402980804443,0.7085278034210205,-8.797861141829344e-07,0.8113428950309753,0.6251535415649414,-0.0105292899534106,0.7508204579353333,0.5361748933792114,-0.0286447443068027,0.7012165784835815,0.4816483855247497,-0.0504405498504638,0.6747644543647766,0.4237739443778991,-0.0711234211921691,0.8720724582672119,0.3770211338996887,-0.0073191449046134,0.790881335735321,0.3384618759155273,-0.0510662943124771,0.7278886437416077,0.3565396964550018,-0.0888772755861282,0.680585503578186,0.3875052034854889,-0.1116992160677909,0.904349446296692,0.3952939808368683,-0.023615401238203,0.7973824143409729,0.3410422205924988,-0.0656447932124137,0.7285279035568237,0.3784642219543457,-0.0971922948956489,0.684376060962677,0.421047180891037,-0.1145586892962455,0.9219682812690736,0.4362017512321472,-0.0442238226532936,0.8224053382873535,0.3866173028945923,-0.0873930752277374,0.748482346534729,0.4166311025619507,-0.1077504828572273,0.6984350085258484,0.4501140713691711,-0.114495649933815,0.9205535054206848,0.4962661266326904,-0.0649793744087219,0.82220059633255,0.4813659787178039,-0.1037292927503585,0.7612869739532471,0.4914389848709106,-0.1197704225778579,0.7162526249885559,0.5012814998626709,-0.1241704747080802
