Timestamp,Index,Frame ID,w,x,y,z,ax,ay,az,x_0,y_0,z_0,x_1,y_1,z_1,x_2,y_2,z_2,x_3,y_3,z_3,x_4,y_4,z_4,x_5,y_5,z_5,x_6,y_6,z_6,x_7,y_7,z_7,x_8,y_8,z_8,x_9,y_9,z_9,x_10,y_10,z_10,x_11,y_11,z_11,x_12,y_12,z_12,x_13,y_13,z_13,x_14,y_14,z_14,x_15,y_15,z_15,x_16,y_16,z_16,x_17,y_17,z_17,x_18,y_18,z_18,x_19,y_19,z_19,x_20,y_20,z_20
2023-08-01 15:56:04.257894,0,568,0.6798227429389954,0.6082239151000977,-0.1354617923498153,0.3867230117321014,-0.0263671875,0.93310546875,0.3720703125,0.5206316709518433,0.735978364944458,1.762977603902982e-07,0.4614147245883941,0.6697821021080017,-0.0135968718677759,0.4211437106132507,0.5683202147483826,-0.0176593419164419,0.3958108425140381,0.4919997155666351,-0.0242966432124376,0.366663247346878,0.4423732161521911,-0.031508445739746,0.5008621215820312,0.4536008834838867,0.0115383043885231,0.4979342520236969,0.3629126250743866,-0.0013201818801462,0.4968660473823547,0.3042216598987579,-0.019341891631484,0.4972343146800995,0.2492388784885406,-0.0350837670266628,0.5408147573471069,0.4458575844764709,0.0011152469087392,0.548322856426239,0.3361505568027496,-0.009787275455892,0.5506929159164429,0.264339804649353,-0.026978887617588,0.5510140061378479,0.2008385062217712,-0.0416511259973049,0.5759895443916321,0.4605997502803802,-0.0141802160069346,0.5975366830825806,0.3584167957305908,-0.0273609813302755,0.6067872643470764,0.2905393838882446,-0.0414445698261261,0.6112898588180542,0.2289021611213684,-0.0535733103752136,0.6078202724456787,0.4937749207019806,-0.032152634114027,0.6411923170089722,0.4249231815338135,-0.0440620444715023,0.6609113812446594,0.3720655739307403,-0.0511698573827743,0.6755971908569336,0.3203935623168945,-0.0580816678702831
2023-08-01 15:56:04.324191,1,569,0.6765924692153931,0.6104182600975037,-0.1343317925930023,0.3893162310123443,-0.0625,0.9375,0.3837890625,0.5195236206054688,0.732053279876709,1.764514365731884e-07,0.4621410667896271,0.6635071635246277,-0.0132730631157755,0.4230722188949585,0.5641433596611023,-0.0170148760080337,0.3971090614795685,0.4897045791149139,-0.0231590084731578,0.36650550365448,0.4400909841060638,-0.0297691151499748,0.5035606026649475,0.4612126052379608,0.0120099475607275,0.4978447258472442,0.3722336888313293,-0.0006982599734328,0.4929049611091614,0.3153674602508545,-0.0179454311728477,0.4896837770938873,0.261785089969635,-0.0327114462852478,0.5408831238746643,0.4537729024887085,0.0023472763132303,0.546207070350647,0.3461423218250274,-0.0086109424009919,0.5456594824790955,0.2750608325004577,-0.025296552106738,0.5431384444236755,0.2118023037910461,-0.0393394492566585,0.5743829607963562,0.4660587310791015,-0.0122102983295917,0.5921689867973328,0.3648259043693542,-0.0255589932203292,0.5966038107872009,0.2948178350925445,-0.0401954129338264,0.5960747003555298,0.2315629124641418,-0.0522118806838989,0.6051127314567566,0.4949118494987488,-0.0293139014393091,0.6365276575088501,0.4237869381904602,-0.0417431332170963,0.6536052823066711,0.3688478469848633,-0.0499993599951267,0.6648898124694824,0.3160750567913055,-0.0574037656188011
2023-08-01 15:56:04.386367,2,570,0.6743584871292114,0.6118007302284241,-0.1348853111267089,0.3908278942108154,0.09619140625,0.90625,0.27490234375,0.5195578336715698,0.7279598712921143,1.1042796188576177e-07,0.4619075655937195,0.6593499779701233,-0.0113909747451543,0.4244799017906189,0.5592601299285889,-0.0127537818625569,0.4012579321861267,0.4843965172767639,-0.0168856400996446,0.3737202882766723,0.4342275857925415,-0.0212047565728425,0.5036847591400146,0.465530514717102,0.017786618322134,0.498149037361145,0.381691038608551,0.0067317197099328,0.4911381304264068,0.3286952674388885,-0.0095333848148584,0.4840373694896698,0.2783907651901245,-0.0233956649899482,0.5409205555915833,0.4577990770339966,0.0084159467369318,0.545027494430542,0.3547679781913757,-0.0012398646213114,0.5413411259651184,0.2859485745429992,-0.0173165015876293,0.5345879793167114,0.2245898842811584,-0.0306156482547521,0.5742669701576233,0.4683659672737121,-0.0059485048986971,0.5902496576309204,0.3708868026733398,-0.017914805561304,0.5920407772064209,0.3041402995586395,-0.0315121710300445,0.5882160067558289,0.2443490624427795,-0.0423447601497173,0.6046271920204163,0.494149774312973,-0.0227957777678966,0.6323423385620117,0.4223599135875702,-0.0338242538273334,0.6455780863761902,0.3667033612728119,-0.0412236079573631,0.6525526642799377,0.3134040832519531,-0.0477144047617912
2023-08-01 15:56:04.448281,3,571,0.672601044178009,0.6122637987136841,-0.136555328965187,0.3925474286079407,0.0576171875,0.9169921875,0.4033203125,0.5163788795471191,0.7238554358482361,-7.268596835530161e-09,0.460272341966629,0.655282199382782,-0.0078038782812654,0.4255792498588562,0.5543689727783203,-0.0064264317043125,0.4043460786342621,0.4788832366466522,-0.0089744245633482,0.3811168670654297,0.4260152578353882,-0.011021071113646,0.5065243244171143,0.4695384502410888,0.0310508776456117,0.5035692453384399,0.3920073211193084,0.0203490499407053,0.4907190799713135,0.3514239192008972,0.0029917559586465,0.4745816886425018,0.315775454044342,-0.009885829873383,0.5427894592285156,0.462662011384964,0.0217590220272541,0.5465646982192993,0.3660248517990112,0.0157012585550546,0.537975013256073,0.3013329803943634,0.000894549943041,0.5249907374382019,0.2445804476737976,-0.0112980445846915,0.5752315521240234,0.4722880721092224,0.006555238738656,0.5892676115036011,0.3796630501747131,-0.0011030423920601,0.5861906409263611,0.3170768022537231,-0.0120572615414857,0.5764645934104919,0.2601968944072723,-0.0210040025413036,0.6047484874725342,0.4949639737606048,-0.0112590035423636,0.6269741058349609,0.4230439662933349,-0.0179198086261749,0.6345717310905457,0.3685285747051239,-0.0224649235606193,0.6351248025894165,0.3157922029495239,-0.0268695540726184
2023-08-01 15:56:04.508101,4,572,0.6710502505302429,0.612772524356842,-0.1402289122343063,0.3931123316287994,0.00341796875,0.9345703125,0.3642578125,0.5148187279701233,0.7248455882072449,-2.707267015011894e-07,0.4583123624324798,0.6496838331222534,-0.0085745193064212,0.4275843799114227,0.5560112595558167,-0.0066688489168882,0.4186078608036041,0.4723889827728271,-0.0104374615475535,0.4209096729755401,0.4038818478584289,-0.0107328901067376,0.4992546737194061,0.4867722392082214,0.048100721091032,0.5000162124633789,0.4138040244579315,0.0317274965345859,0.485150009393692,0.3957453370094299,0.0100591294467449,0.4710746705532074,0.4071641266345978,-0.0010047893738374,0.5324829816818237,0.4774241745471954,0.0429100915789604,0.5402715802192688,0.3867205679416656,0.0312624759972095,0.5242300033569336,0.3629721999168396,0.0127056948840618,0.5040050745010376,0.3836927413940429,0.0036874955985695,0.5645312666893005,0.4816915690898895,0.0302779730409383,0.5772333741188049,0.3955566585063934,0.0208437107503414,0.5581852793693542,0.3669589161872864,0.0105964578688144,0.5349428057670593,0.3830040693283081,0.0079213557764887,0.5982769727706909,0.4981820285320282,0.0146173536777496,0.6094602346420288,0.4273174703121185,0.0092959478497505,0.5902572274208069,0.3966456353664398,0.0058819912374019,0.56289142370224,0.4039615392684936,0.0066942418925464
2023-08-01 15:56:04.568082,5,573,0.6708885431289673,0.6121094226837158,-0.1401889026165008,0.3944335877895355,0.01513671875,0.95849609375,0.31298828125,0.5182183384895325,0.7132413983345032,-1.880005839893784e-07,0.4589394032955169,0.6458033323287964,-0.0118800401687622,0.4278357923030853,0.5544654130935669,-0.0112782958894968,0.4220446944236755,0.4704586267471313,-0.015967721119523,0.4318403601646423,0.4025974869728088,-0.0170937813818454,0.4916151165962219,0.4854864180088043,0.0458326153457164,0.4919775426387787,0.4199982583522796,0.0287952218204736,0.4836084246635437,0.4086541831493377,0.0078936414793133,0.4801187813282013,0.426056444644928,-0.0028322604484856,0.52684086561203,0.4763424098491668,0.0420433543622493,0.5346342921257019,0.3836576640605926,0.0269695371389389,0.5209527015686035,0.3741452395915985,0.0081568928435444,0.5101966261863708,0.4096087217330932,0.0003747020382434,0.5602107048034668,0.480747252702713,0.0307082906365394,0.5746381282806396,0.3897644281387329,0.0169776976108551,0.5546514987945557,0.3791929483413696,0.0063439984805881,0.5383668541908264,0.4135149419307709,0.0049074338749051,0.5959566831588745,0.4983477592468261,0.0163988713175058,0.6101505160331726,0.4242573380470276,0.0083221523091197,0.588809072971344,0.403074562549591,0.0040173274464905,0.5637635588645935,0.4229246079921722,0.0046855611726641
2023-08-01 15:56:04.636781,6,574,0.6707217693328857,0.6117721796035767,-0.1417534500360489,0.3946810960769653,0.0263671875,0.9267578125,0.30517578125,0.5173393487930298,0.7139072418212891,-2.0027572134040386e-07,0.4562472105026245,0.6443578004837036,-0.0137690380215644,0.4262857437133789,0.552604079246521,-0.0150409918278455,0.4256103038787842,0.4652759432792663,-0.0214943084865808,0.4394538402557373,0.3966118097305298,-0.0241926684975624,0.4904007613658905,0.4789950847625732,0.0438230261206626,0.4999107420444488,0.406370460987091,0.0247921720147132,0.4921558797359466,0.4041314125061035,0.0031545900274068,0.4888067841529846,0.4325703382492065,-0.0077297664247453,0.5250878930091858,0.4750895798206329,0.04051373898983,0.538245439529419,0.38218754529953,0.0218074154108762,0.5228110551834106,0.3861874938011169,0.0014640035806223,0.5137835144996643,0.4281812608242035,-0.0065844524651765,0.5572735071182251,0.4825632274150848,0.0295923296362161,0.5747727155685425,0.3913503587245941,0.013064139522612,0.5537679195404053,0.3913218677043915,0.0011251606047153,0.5411021709442139,0.4318592548370361,-0.0006570848636329,0.592229962348938,0.500453531742096,0.0157254021614789,0.6042432188987732,0.4233821630477905,0.0063175885006785,0.5838521122932434,0.4113334119319916,0.0018906986806541,0.565251350402832,0.4394556879997253,0.0026333536952733
2023-08-01 15:56:04.701193,7,575,0.6695921421051025,0.611697793006897,-0.1434415131807327,0.3961017727851867,0.01708984375,0.9091796875,0.35400390625,0.5245549082756042,0.7154366970062256,-4.788345790984749e-07,0.4580721259117126,0.6399926543235779,-0.0084572006016969,0.4293527007102966,0.5491466522216797,-0.0107756415382027,0.4436745047569275,0.4682750999927521,-0.0206851046532392,0.4844579994678497,0.4234765470027923,-0.0281254034489393,0.4863815903663635,0.5014514923095703,0.0405044183135032,0.4861612319946289,0.4296482801437378,0.0207548309117555,0.4704115092754364,0.4640877842903137,0.0005779634229838,0.4692400395870209,0.50777268409729,-0.0099165625870227,0.5179004669189453,0.4933860301971435,0.0337484888732433,0.524952232837677,0.4012681841850281,0.0094232894480228,0.5062403678894043,0.4461337625980377,-0.0102201234549283,0.5046461820602417,0.5008916854858398,-0.0154868857935071,0.5516642332077026,0.4937082529067993,0.021053846925497,0.5632227063179016,0.3918848633766174,-0.0013789184158667,0.5413364768028259,0.4317913651466369,-0.0084799118340015,0.5362687110900879,0.4936440885066986,-0.0042345058172941,0.5877029895782471,0.504135251045227,0.0065327789634466,0.5874556303024292,0.4216803014278412,-0.0048013571649789,0.5675012469291687,0.43744558095932,-0.0033683481160551,0.5590474605560303,0.484735757112503,0.0028664227575063
2023-08-01 15:56:04.762262,8,576,0.6686491370201111,0.6111547946929932,-0.1475353837013244,0.3970283567905426,0.03955078125,0.91650390625,0.38623046875,0.525346040725708,0.7097551822662354,-4.646827846954693e-07,0.4595330059528351,0.639371395111084,-0.0046384492889046,0.429465115070343,0.5507079362869263,-0.0064070546068251,0.4454394578933716,0.4732862710952759,-0.0165306758135557,0.4902669191360473,0.4371143579483032,-0.0246572718024253,0.4845912754535675,0.5068914890289307,0.0395780801773071,0.4831706583499908,0.4286044239997864,0.0197764541953802,0.4691435992717743,0.4665164649486542,0.0010391966206952,0.4694064855575561,0.5110163688659668,-0.0079025132581591,0.5172479152679443,0.4989391267299652,0.0308218598365783,0.523874819278717,0.4032559096813202,0.0068212747573852,0.5067774653434753,0.4519406259059906,-0.010676790960133,0.5060330629348755,0.5066041350364685,-0.0136438524350523,0.552107036113739,0.4978806674480438,0.016756834462285,0.5598599910736084,0.3938359022140503,-0.0050852382555603,0.5409678220748901,0.4413825869560241,-0.0079405549913644,0.5387139916419983,0.5028046369552612,-3.285361890448257e-05,0.5887731313705444,0.5070739388465881,0.0011756321182474,0.5850721001625061,0.4241521656513214,-0.0086587872356176,0.5660373568534851,0.4467653930187225,-0.0032875901088118,0.5598326921463013,0.4949319958686828,0.0061716004274785
2023-08-01 15:56:04.816820,9,577,0.6679562926292419,0.6108492016792297,-0.1498250365257263,0.3978067338466644,-0.06298828125,0.9375,0.33642578125,0.5255860090255737,0.7089419364929199,-4.734585843380046e-07,0.4607242941856384,0.6406135559082031,-0.00477792089805,0.4281842112541199,0.5501543283462524,-0.0067205410450696,0.4455296099185943,0.4743307828903198,-0.0167401134967803,0.49422287940979,0.4454853236675262,-0.0248124450445175,0.4833716750144958,0.5081795454025269,0.0371896885335445,0.4797995984554291,0.4315511882305145,0.0164482779800891,0.4647984802722931,0.4720320999622345,-0.0020187865011394,0.46566241979599,0.5142126083374023,-0.0109434658661484,0.5168203115463257,0.501486599445343,0.0280242152512073,0.521564781665802,0.4077155590057373,0.0024316913913935,0.5032849311828613,0.4586892127990722,-0.0140325324609875,0.503277599811554,0.5114344358444214,-0.0158160682767629,0.5520827770233154,0.5006210207939148,0.0135705107823014,0.5581549406051636,0.3972655534744262,-0.0100586805492639,0.537992537021637,0.449500024318695,-0.0111567117273807,0.5367431640625,0.5100332498550415,-0.0015431428328156,0.5893118977546692,0.5103963017463684,-0.0024361652322113,0.5820294618606567,0.4287558794021606,-0.0135927656665444,0.5622515678405762,0.4581567049026489,-0.0074595329351723,0.5581629276275635,0.5071460604667664,0.0026922258548438
2023-08-01 15:56:04.885569,10,578,0.667018711566925,0.6108551025390625,-0.1531386226415634,0.3981088697910309,0.0810546875,0.91943359375,0.357421875,0.5222585201263428,0.725593090057373,-6.237971774680773e-07,0.4604025185108185,0.6576786041259766,-0.0006667039124295,0.4257287383079529,0.570066511631012,-0.0022232590708881,0.4427066445350647,0.5025550127029419,-0.0117014022544026,0.4887772500514984,0.4983255267143249,-0.0190009325742721,0.4782969057559967,0.514640748500824,0.0286942515522241,0.4690717458724975,0.4475214779376983,0.001257149153389,0.4561899304389953,0.5041792392730713,-0.0147798787802457,0.4657295942306518,0.5416816473007202,-0.0215783659368753,0.5098394751548767,0.5120633840560913,0.0161244552582502,0.5034641027450562,0.4338737726211548,-0.0167035050690174,0.4899574518203735,0.5008915662765503,-0.0260630659759044,0.5032289028167725,0.535664439201355,-0.0213570296764373,0.5454035997390747,0.5139079689979553,-0.0018928763456642,0.5342981219291687,0.4345382452011108,-0.0323256030678749,0.5215152502059937,0.5000776052474976,-0.0264271236956119,0.5362124443054199,0.534301221370697,-0.0113599151372909,0.5848615765571594,0.5264559984207153,-0.0208840724080801,0.560231626033783,0.4621262550354004,-0.0348701179027557,0.548041582107544,0.5065662860870361,-0.02514024451375,0.5617680549621582,0.5393474102020264,-0.0121998069807887
2023-08-01 15:56:04.948804,11,579,0.6660972237586975,0.6110550165176392,-0.1558307111263275,0.3983003497123718,0.03515625,0.93115234375,0.33935546875,0.5221220850944519,0.7177925109863281,-5.49704225250025e-07,0.4588170945644378,0.655022382736206,-0.0029296167194843,0.4247977435588836,0.5692670941352844,-0.0053970552980899,0.4421790838241577,0.5032488107681274,-0.0147810112684965,0.4891598224639892,0.4988398551940918,-0.0221338141709566,0.4789921045303345,0.5202216506004333,0.0249338652938604,0.4680691659450531,0.4547518193721771,-0.0018652126891538,0.4549098014831543,0.5088855028152466,-0.01797497831285,0.4628520607948303,0.544478178024292,-0.0249394997954368,0.5106638073921204,0.5171971917152405,0.0143257891759276,0.5021973252296448,0.441306322813034,-0.0158434025943279,0.4879161119461059,0.5060897469520569,-0.0238173250108957,0.5007814764976501,0.539379894733429,-0.0189853962510824,0.546231210231781,0.5199695229530334,-0.0016701553249731,0.5338151454925537,0.4409389793872833,-0.0291490405797958,0.5198802351951599,0.5072305202484131,-0.0214280635118484,0.5336886644363403,0.5417851805686951,-0.0060661355964839,0.5869683027267456,0.5331078767776489,-0.018981335684657,0.5609660744667053,0.4753170609474182,-0.0310224797576665,0.5477385520935059,0.5187144875526428,-0.0207283571362495,0.5609717965126038,0.5465546250343323,-0.0079627037048339
2023-08-01 15:56:05.006474,12,580,0.666001558303833,0.6107585430145264,-0.1560453474521637,0.3988304138183594,0.0185546875,0.9306640625,0.34716796875,0.5247971415519714,0.7135763168334961,-5.34613718627952e-07,0.4606671929359436,0.6579520106315613,-0.0056239319965243,0.4251389801502228,0.5693315863609314,-0.0074360803700983,0.4430700540542602,0.5034433603286743,-0.0148261990398168,0.4891602694988251,0.5043051242828369,-0.0195865966379642,0.4823378622531891,0.5178458094596863,0.0205702260136604,0.4716100096702575,0.4560588598251343,-0.0049839257262647,0.4585703909397125,0.5114202499389648,-0.0191562119871377,0.468158483505249,0.5425870418548584,-0.0255677606910467,0.5140848159790039,0.5157802104949951,0.0117626450955867,0.5041264891624451,0.4444290101528168,-0.0174978431314229,0.489603191614151,0.5093550086021423,-0.0228740070015192,0.5049090385437012,0.5369408130645752,-0.0167194176465272,0.5481163859367371,0.5203887224197388,-0.0026258670259267,0.53522127866745,0.4468568563461303,-0.0298061519861221,0.5200538635253906,0.5124033093452454,-0.0205709375441074,0.5353923439979553,0.5413914918899536,-0.004695835057646,0.5873460173606873,0.5346131324768066,-0.0186299458146095,0.5615421533584595,0.4799669981002807,-0.0316409952938556,0.5473299026489258,0.5239464044570923,-0.0219216980040073,0.5610164403915405,0.5503668189048767,-0.0097793908789753
2023-08-01 15:56:05.071712,13,581,0.6652902364730835,0.6106479167938232,-0.1568686068058014,0.3998627960681915,0.0546875,0.92578125,0.3349609375,0.5248023867607117,0.7138240933418274,-5.537805805033713e-07,0.4610633254051208,0.6588859558105469,-0.0055314856581389,0.42550790309906,0.5693961381912231,-0.0068768770433962,0.4432434141635895,0.5051747560501099,-0.0134119549766182,0.4886262118816376,0.5065574645996094,-0.0170934405177831,0.4846246838569641,0.5162485241889954,0.0179574135690927,0.4720259308815002,0.4567352533340454,-0.0085984673351049,0.4588593244552612,0.5139973759651184,-0.022221265360713,0.4691022038459778,0.5439004898071289,-0.0280512049794197,0.5160549283027649,0.5150881409645081,0.0093212239444255,0.5035105347633362,0.4468345642089844,-0.0209275651723146,0.4888857007026672,0.5149013996124268,-0.0247173905372619,0.5054004788398743,0.5410215854644775,-0.017153013497591,0.5496166944503784,0.5208843946456909,-0.0049096764996647,0.5342586636543274,0.4507056474685669,-0.0329697877168655,0.5189966559410095,0.5193753242492676,-0.0224845260381698,0.535356342792511,0.5472496747970581,-0.0056469845585525,0.5879623889923096,0.5361064672470093,-0.0207346677780151,0.5611295104026794,0.4843422770500183,-0.0350676178932189,0.5472539067268372,0.5296847820281982,-0.0257317535579204,0.5620253086090088,0.5547412633895874,-0.0136005757376551
2023-08-01 15:56:05.136233,14,582,0.6649401187896729,0.6109825372695923,-0.1564836502075195,0.400084912776947,0.00830078125,0.93994140625,0.35302734375,0.5254952311515808,0.7157690525054932,-5.357757686397235e-07,0.4623230695724487,0.6616930961608887,-0.0050977654755115,0.4273023307323456,0.5728887915611267,-0.0064720306545495,0.4453354477882385,0.5099658966064453,-0.0129307741299271,0.4891979992389679,0.5129983425140381,-0.0170050449669361,0.4835821688175201,0.5186259746551514,0.0173268672078847,0.4710906445980072,0.4628894925117492,-0.0082945311442017,0.4578383862972259,0.5169499516487122,-0.021706411615014,0.4675690233707428,0.5477280616760254,-0.0276053994894027,0.5151247978210449,0.5165950059890747,0.0086948182433843,0.50336754322052,0.4520354270935058,-0.0203295741230249,0.4886892735958099,0.5170857310295105,-0.0240435637533664,0.5044745802879333,0.5433274507522583,-0.0169557854533195,0.5484201908111572,0.5225793719291687,-0.005315167363733,0.5331467390060425,0.458615094423294,-0.0331009700894355,0.51772540807724,0.5246472358703613,-0.0238978862762451,0.5335187315940857,0.5518317222595215,-0.0081910956650972,0.5862569808959961,0.53829026222229,-0.0206937137991189,0.5584753155708313,0.4893611669540405,-0.0351951196789741,0.5446045398712158,0.5331487059593201,-0.0266402456909418,0.5590316653251648,0.5573602914810181,-0.0152174895629286
2023-08-01 15:56:05.195205,15,583,0.6643164753913879,0.611648678779602,-0.1568154394626617,0.399973064661026,0.0322265625,0.9248046875,0.35498046875,0.5261943936347961,0.7155627012252808,-5.260765760795039e-07,0.4618291556835174,0.6591200828552246,-0.0046558640897274,0.4282812476158142,0.5708585977554321,-0.0061641721986234,0.4468072652816772,0.510261595249176,-0.0129120936617255,0.4908002316951751,0.5126897096633911,-0.0173521041870117,0.4844250679016113,0.5177704691886902,0.0189684387296438,0.4726376235485077,0.4631184935569763,-0.0066632274538278,0.4596817791461944,0.5176922082901001,-0.0207273308187723,0.4685027301311493,0.5488436222076416,-0.0270463079214096,0.5154021978378296,0.5158905982971191,0.0100554469972848,0.5036534667015076,0.4514166116714477,-0.0191830918192863,0.4895171523094177,0.5167068243026733,-0.0242357701063156,0.5043707489967346,0.5442306995391846,-0.0179662834852933,0.548633337020874,0.5218841433525085,-0.0041881306096911,0.5324955582618713,0.457318902015686,-0.0316047854721546,0.5181953310966492,0.5244694948196411,-0.0228151176124811,0.5335642099380493,0.5526866316795349,-0.007356506306678,0.5865543484687805,0.5376591086387634,-0.019794762134552,0.556447446346283,0.4903559386730194,-0.0343009643256664,0.5438515543937683,0.535141110420227,-0.0259790159761905,0.558595597743988,0.5592549443244934,-0.014591347426176
2023-08-01 15:56:05.254544,16,584,0.6643053293228149,0.6137582063674927,-0.1602704375982284,0.3953640460968017,0.30322265625,0.99560546875,0.1181640625,0.5261222124099731,0.7166515588760376,-5.25996483702329e-07,0.4621523022651672,0.6604313850402832,-0.0042620906606316,0.4293515682220459,0.5704339742660522,-0.0049785254523158,0.4475911855697632,0.5103835463523865,-0.0108193103224039,0.4902144968509674,0.5149486064910889,-0.0142464060336351,0.4862953424453735,0.5160521864891052,0.0185870211571455,0.473331481218338,0.4618780016899109,-0.0059928377158939,0.4607727527618408,0.5172116160392761,-0.0191100742667913,0.471339464187622,0.5479556918144226,-0.0251220315694808,0.5173884630203247,0.5145833492279053,0.0096114631742239,0.5048964619636536,0.4503813982009887,-0.0189832374453544,0.4900130331516266,0.5167937278747559,-0.0231084357947111,0.5062451362609863,0.544104814529419,-0.0162680465728044,0.5502361059188843,0.5216454863548279,-0.0045609697699546,0.5340786576271057,0.4583769142627716,-0.0311506763100624,0.5186160206794739,0.5260254144668579,-0.0215605460107326,0.5346864461898804,0.553580641746521,-0.005811886396259,0.5877122282981873,0.5383808016777039,-0.0201265029609203,0.5586908459663391,0.4914441108703613,-0.0339702330529689,0.5447724461555481,0.5365396738052368,-0.0251952819526195,0.5592765808105469,0.5604839324951172,-0.0136711075901985
2023-08-01 15:56:05.315997,17,585,0.6659837961196899,0.614287257194519,-0.1576999723911285,0.3927435576915741,-0.02587890625,0.9189453125,0.43017578125,0.5260087251663208,0.7140253782272339,-5.178815740691789e-07,0.4628207385540008,0.6545530557632446,-0.0030690461862832,0.4320375621318817,0.5683226585388184,-0.0043642651289701,0.4500710964202881,0.5098933577537537,-0.0112199848517775,0.4929315149784088,0.5093441605567932,-0.0158046428114175,0.4887319207191467,0.5145493745803833,0.0199755206704139,0.4749324023723602,0.4606242775917053,-0.004135965835303,0.4630028307437897,0.5153547525405884,-0.0175262093544006,0.4739262461662292,0.5456125140190125,-0.0239820796996355,0.5187907814979553,0.5128809213638306,0.0100912051275372,0.5059881210327148,0.4482749700546264,-0.0182817671447992,0.491874098777771,0.5143980383872986,-0.0232244357466697,0.5082398653030396,0.54119473695755,-0.0172702837735414,0.5515092611312866,0.5192168354988098,-0.0048021781258285,0.5345705151557922,0.4555907845497131,-0.0310143548995256,0.5196014046669006,0.5222204327583313,-0.0216659232974052,0.5358363389968872,0.5489842891693115,-0.0063624363392591,0.5884009003639221,0.5354611873626709,-0.0209996383637189,0.5583057403564453,0.4888601899147033,-0.0344857573509216,0.5445054769515991,0.5330358743667603,-0.0255347583442926,0.5592905879020691,0.5563079118728638,-0.0140378978103399
2023-08-01 15:56:05.381155,18,586,0.6688460111618042,0.6145777106285095,-0.1514254063367843,0.3898840844631195,0.09423828125,0.943359375,0.25927734375,0.5267313122749329,0.7109339237213135,-5.028114742344769e-07,0.4632035493850708,0.6524866819381714,-0.0032888641580939,0.4310543835163116,0.5682074427604675,-0.0047772391699254,0.4480364918708801,0.5084496736526489,-0.0116390073671936,0.4915949702262878,0.5042096376419067,-0.016093386337161,0.4874113202095032,0.511536717414856,0.019055163487792,0.4740386307239532,0.4556770324707031,-0.0050859437324106,0.4619162678718567,0.5084983706474304,-0.0189608037471771,0.4728808999061584,0.5376787185668945,-0.0259883161634206,0.5181463360786438,0.5108656883239746,0.0093422010540962,0.5056701302528381,0.4441142678260803,-0.0186062958091497,0.4907773435115814,0.5087214708328247,-0.0241903625428676,0.5068573951721191,0.5351782441139221,-0.0191265754401683,0.5513893365859985,0.5176738500595093,-0.0052254456095397,0.5355011224746704,0.4493070840835571,-0.0309671480208635,0.518864095211029,0.5154365301132202,-0.0216038785874843,0.5346717834472656,0.5433791875839233,-0.0066918767988681,0.5887582898139954,0.534279465675354,-0.0211146138608455,0.5588897466659546,0.4866208136081695,-0.0348762199282646,0.543315052986145,0.5305711030960083,-0.0261241625994443,0.5573235750198364,0.5546936392784119,-0.0148558812215924
2023-08-01 15:56:05.439149,19,587,0.6710724234580994,0.6141331195831299,-0.1471806317567825,0.3883815407752991,-0.056640625,0.92333984375,0.3857421875,0.5279028415679932,0.7118015289306641,-5.032591161580058e-07,0.4644397497177124,0.6559158563613892,-0.0039920266717672,0.4318591356277466,0.5670771598815918,-0.0047566159628331,0.4503140747547149,0.5042082071304321,-0.0108918892219662,0.4954531490802765,0.5017235279083252,-0.0147285778075456,0.4877564907073974,0.5162438154220581,0.0204167943447828,0.4772247672080993,0.4587321877479553,-0.0024015384260565,0.4634595513343811,0.5108242034912109,-0.0149794686585664,0.4730376899242401,0.5407295823097229,-0.0209188163280487,0.5189021229743958,0.5131546854972839,0.0115119218826293,0.5095590949058533,0.4445029497146606,-0.0153588196262717,0.4931809604167938,0.5079380869865417,-0.0200575627386569,0.5088518261909485,0.5348151922225952,-0.0140550592914223,0.5521340370178223,0.5180734395980835,-0.0024035912938416,0.5384415984153748,0.4483558237552643,-0.0281534306704998,0.5211499333381653,0.5125573873519897,-0.0198765881359577,0.5367827415466309,0.5410156846046448,-0.0051655266433954,0.5894587635993958,0.5325403213500977,-0.0176107212901115,0.5609572529792786,0.4818747937679291,-0.0309692453593015,0.5452543497085571,0.5245898962020874,-0.0226572584360837,0.5594074726104736,0.5499266982078552,-0.0115974023938179
2023-08-01 15:56:05.492873,20,588,0.6727368831634521,0.6136866807937622,-0.1435922384262085,0.3875500559806824,0.01611328125,0.9267578125,0.3330078125,0.5297136902809143,0.7089263796806335,-5.034871151110565e-07,0.4668834805488586,0.6574010848999023,-0.0051282192580401,0.4328818023204803,0.5670247673988342,-0.0064643248915672,0.4511737525463104,0.500732421875,-0.0133873587474226,0.4979789555072784,0.4912963807582855,-0.0183101966977119,0.4846976399421692,0.520469605922699,0.0215676091611385,0.4767939150333404,0.4580692052841186,-0.0016025238437578,0.4629495739936828,0.5080831050872803,-0.014961615204811,0.4719690084457397,0.5420544743537903,-0.0205883923918008,0.5162551403045654,0.5159123539924622,0.0132606178522109,0.5096780061721802,0.4418160319328308,-0.0148493200540542,0.4945224523544311,0.5039939284324646,-0.021710991859436,0.509006142616272,0.5370055437088013,-0.0160041563212871,0.5501495599746704,0.51727694272995,-9.225385292666032e-05,0.5388293862342834,0.4398553371429443,-0.0273312572389841,0.5235834121704102,0.5018818974494934,-0.0210381597280502,0.5377705693244934,0.5363924503326416,-0.0063579869456589,0.5876968502998352,0.5272130966186523,-0.014633079059422,0.5611341595649719,0.4662991166114807,-0.0296934358775615,0.5472235679626465,0.5093080997467041,-0.0218207947909832,0.560133695602417,0.5415014624595642,-0.0100682647898793
2023-08-01 15:56:05.548047,21,589,0.6747786998748779,0.6123141050338745,-0.1405795514583587,0.3872758150100708,-0.0595703125,0.94189453125,0.4248046875,0.5267334580421448,0.6944960355758667,-4.712418615326897e-07,0.4622211158275604,0.6460872292518616,-0.0090033877640962,0.4289737343788147,0.5641055703163147,-0.010504120029509,0.4367476105690002,0.4869717359542846,-0.0175812058150768,0.4660508334636688,0.4339501559734344,-0.0210228525102138,0.4866233468055725,0.50054532289505,0.0340661406517028,0.4879382252693176,0.4300673007965088,0.0136529672890901,0.4750663042068481,0.4756789207458496,-0.002618835773319,0.4768264591693878,0.5228846073150635,-0.0097358310595154,0.5191341638565063,0.4951739907264709,0.0284230057150125,0.5212157368659973,0.4106231927871704,0.0032722330652177,0.5031552314758301,0.4711197912693023,-0.0094216950237751,0.5061697959899902,0.5267540812492371,-0.0081330500543117,0.5531449913978577,0.4974546730518341,0.0167660247534513,0.5544468760490417,0.4050335884094238,-0.01038418430835,0.5342488288879395,0.4653286635875702,-0.0087713478133082,0.5354136824607849,0.5241363048553467,0.0036225297953933,0.5904715657234192,0.5102906823158264,0.0037279743701219,0.5792499780654907,0.4380288422107696,-0.01453179679811,0.5586594343185425,0.4754779934883117,-0.0095423888415098,0.5557673573493958,0.5232692956924438,0.0015562290791422
2023-08-01 15:56:05.610878,22,590,0.6772037744522095,0.6093909740447998,-0.1367877423763275,0.3890072703361511,-0.07958984375,0.94140625,0.4052734375,0.5240412950515747,0.7025959491729736,-5.098406745673856e-07,0.4611195027828216,0.6505101919174194,-0.0105249416083097,0.4280158579349518,0.5674086809158325,-0.0126855336129665,0.4310293197631836,0.4874260723590851,-0.0208354815840721,0.448822408914566,0.4267491996288299,-0.0253096912056207,0.4946009814739227,0.4931616485118866,0.0351482555270195,0.4964357614517212,0.4183788895606994,0.0143033266067504,0.4809348285198211,0.4522467255592346,-0.0035031416919082,0.478260338306427,0.4981424212455749,-0.0115060796961188,0.5258638262748718,0.4898277223110199,0.0287748519331216,0.5289444327354431,0.4015609622001648,0.0032127804588526,0.5086482763290405,0.4521625339984894,-0.012465450912714,0.5071859955787659,0.5095570683479309,-0.0134305581450462,0.5589109659194946,0.4940318167209625,0.0160595942288637,0.5635230541229248,0.3971294164657593,-0.0090863462537527,0.5398901700973511,0.4445024728775024,-0.0114106396213173,0.536266028881073,0.5031214952468872,-0.0025134843308478,0.5956821441650391,0.5089954137802124,0.0014245224883779,0.5878259539604187,0.4306480884552002,-0.0147856017574667,0.5648967623710632,0.4604338109493255,-0.0119370389729738,0.5580543875694275,0.5112466216087341,-0.0029803067445755
2023-08-01 15:56:05.660082,23,591,0.6783295273780823,0.607961893081665,-0.1367456316947937,0.3892970085144043,0.015625,0.92822265625,0.3232421875,0.5258609056472778,0.7089653015136719,-4.57562606470674e-07,0.4613673388957977,0.6599794626235962,-0.0113511318340897,0.4282468259334564,0.5711232423782349,-0.0110677378252148,0.42840775847435,0.4882751703262329,-0.0161941815167665,0.4413265585899353,0.4276208579540252,-0.0175324939191341,0.5016493201255798,0.4968215525150299,0.036459531635046,0.5020689964294434,0.4180748462677002,0.0196910537779331,0.482438325881958,0.4317778348922729,0.003547090338543,0.4769663214683532,0.4722167551517486,-0.004112971946597,0.5317526459693909,0.4893626570701599,0.0316777974367141,0.5336408019065857,0.3952398002147674,0.0111781572923064,0.5094921588897705,0.4247724413871765,-0.0039219674654304,0.505129337310791,0.4801504015922546,-0.0063707577064633,0.5641672015190125,0.4918620884418487,0.0205111615359783,0.5675162672996521,0.3938131928443908,0.0006457142299041,0.5428748726844788,0.4231261610984802,-0.0050866692326962,0.5396915078163147,0.4793428778648376,-0.0009550338145345,0.6012411713600159,0.5049581527709961,0.0070705376565456,0.5961031913757324,0.4275781214237213,-0.0068124993704259,0.5710455179214478,0.443060040473938,-0.0077513698488473,0.5618981122970581,0.4912766516208648,-0.0029167660977691
2023-08-01 15:56:05.718905,24,592,0.6808294653892517,0.6044241189956665,-0.135248377919197,0.3909610211849212,-0.04736328125,0.94140625,0.349609375,0.5235483646392822,0.7134173512458801,-1.9615204394085597e-07,0.4611203372478485,0.6620334386825562,-0.0122918961569666,0.4298376441001892,0.5729955434799194,-0.0124854622408747,0.4248464703559875,0.4941886067390442,-0.0171828959137201,0.431195318698883,0.4327170252799988,-0.0185997392982244,0.5007814168930054,0.4899305701255798,0.0334418378770351,0.4957723319530487,0.4136699736118316,0.0161808654665946,0.4817010164260864,0.3863894343376159,-0.0026580933481454,0.4710071086883545,0.3920409083366394,-0.0115730771794915,0.5355494618415833,0.4813806116580963,0.0287057217210531,0.5380986332893372,0.3852185904979706,0.0096103614196181,0.5220752954483032,0.3784925937652588,-0.0086767058819532,0.5117805004119873,0.4197335541248321,-0.0134478053078055,0.5691452622413635,0.4848867654800415,0.0178656391799449,0.57923424243927,0.3900207281112671,0.0018963037291541,0.5582765340805054,0.383266270160675,-0.0076079829595983,0.5458898544311523,0.4220513701438904,-0.0063928291201591,0.6052975654602051,0.5007542967796326,0.0043234531767666,0.612435519695282,0.4256651103496551,-0.0063339192420244,0.5902507305145264,0.4030064642429352,-0.0107701802626252,0.5703458786010742,0.4230504631996155,-0.0081818597391247
2023-08-01 15:56:05.763859,25,593,0.6819739937782288,0.6034082770347595,-0.136159211397171,0.3902187347412109,0.03515625,0.908203125,0.431640625,0.5191315412521362,0.7139251232147217,-1.893077694603562e-07,0.4591585397720337,0.6586837768554688,-0.0082469144836068,0.4279133677482605,0.5716137886047363,-0.0065971221774816,0.4223665595054626,0.4949952960014343,-0.0091777434572577,0.4233987927436828,0.4354588091373443,-0.0089801475405693,0.5062127709388733,0.4808532297611236,0.0346738584339618,0.5005202889442444,0.4069540500640869,0.0226366650313138,0.4841104745864868,0.3714436888694763,0.0045180236920714,0.4655576348304748,0.3598269820213318,-0.0063338638283312,0.5408253073692322,0.4747065901756286,0.0286877006292343,0.5427924394607544,0.385966956615448,0.0169041696935892,0.5252782106399536,0.3564156889915466,5.397890345193446e-05,0.5040135979652405,0.3704687654972076,-0.007563030347228,0.5740988254547119,0.4812694191932678,0.0172786824405193,0.5818924307823181,0.3916665017604828,0.0076554510742425,0.5652893781661987,0.3653487265110016,-5.669904567184858e-05,0.5462148785591125,0.3837043642997741,-0.0008618468418717,0.608437716960907,0.500184953212738,0.0031291707418859,0.6161562204360962,0.4289078116416931,-0.0048273182474076,0.6013194918632507,0.3946110606193542,-0.008303434588015,0.5815210342407227,0.3978087902069092,-0.0066626719199121
2023-08-01 15:56:05.810411,26,594,0.6832749247550964,0.6021426916122437,-0.135579377412796,0.3900997340679168,-0.02978515625,0.93505859375,0.30615234375,0.5200499296188354,0.7132642269134521,-1.5265378294770926e-07,0.4602172970771789,0.6569766402244568,-0.0067636123858392,0.4282850325107574,0.5674791932106018,-0.0049039386212825,0.4220309555530548,0.4927787780761719,-0.0065318862907588,0.4189395606517792,0.4332478046417236,-0.0063646347261965,0.5046575665473938,0.4733576476573944,0.0307966694235801,0.497197151184082,0.3965413272380829,0.0255360230803489,0.4843283891677856,0.355413556098938,0.0117450356483459,0.4686816334724426,0.3239053785800934,-2.083573053823784e-05,0.5394330620765686,0.466921716928482,0.0241238139569759,0.532555878162384,0.3827092349529266,0.0184820890426635,0.5151724219322205,0.3391377031803131,0.0030535035766661,0.4913265407085418,0.3196382522583008,-0.0086096627637743,0.5727159380912781,0.473516583442688,0.0128704272210598,0.5760310888290405,0.3881014585494995,0.0061978949233889,0.5611076354980469,0.3472215533256531,-0.0042308298870921,0.5366359949111938,0.3331716656684875,-0.0115794353187084,0.6080724000930786,0.4920387268066406,-0.0006214096792973,0.6163105368614197,0.4237091839313507,-0.0082214111462235,0.604548990726471,0.3846668601036072,-0.0142113408073782,0.582722008228302,0.3665516078472137,-0.0179109312593936
2023-08-01 15:56:05.863817,27,595,0.6855769753456116,0.6009206175804138,-0.1339055299758911,0.3885200917720794,0.0263671875,0.921875,0.29736328125,0.5175706744194031,0.7027994990348816,2.0579787474162006e-07,0.4559946060180664,0.654990017414093,-0.0136360228061676,0.4228635132312774,0.5667133927345276,-0.0175151284784078,0.4120074212551117,0.4939207434654236,-0.0222055688500404,0.3971652388572693,0.4393560290336609,-0.0267090480774641,0.4998157024383545,0.4592456817626953,0.0032616339158266,0.4929635524749756,0.3707798719406128,-0.0092999571934342,0.4862124621868133,0.3141955435276031,-0.024821339175105,0.4806954264640808,0.2631182670593261,-0.0375076755881309,0.540907621383667,0.4504699110984802,-0.0038946545682847,0.537980854511261,0.3481277227401733,-0.0156654436141252,0.531990110874176,0.2777130603790283,-0.0309890657663345,0.525001585483551,0.2172604501247406,-0.0426868647336959,0.5764389634132385,0.462302565574646,-0.0146415950730443,0.5893004536628723,0.3692162334918976,-0.0277440138161182,0.5890376567840576,0.3045750260353088,-0.0396740026772022,0.5844295024871826,0.2467380166053772,-0.0485874451696872,0.6080857515335083,0.4907350540161133,-0.0274590160697698,0.6276734471321106,0.4186044931411743,-0.0397121645510196,0.6318734288215637,0.3668360710144043,-0.0454018302261829,0.6306385397911072,0.3173470199108124,-0.049354825168848
2023-08-01 15:56:05.916968,28,596,0.6881363987922668,0.6001972556114197,-0.1344902664422989,0.3848946988582611,0.05078125,0.8984375,0.44970703125,0.5170978307723999,0.7096678614616394,1.782608336498015e-07,0.4570852220058441,0.6581789255142212,-0.0109792752191424,0.4210619032382965,0.5652260184288025,-0.0121832266449928,0.4065761566162109,0.4923531711101532,-0.0146577367559075,0.3909798860549927,0.4410841166973114,-0.0168962553143501,0.4980753660202026,0.4494789838790893,0.0089108189567923,0.4907546043395996,0.3594230413436889,-0.0007828152738511,0.4856016635894775,0.3030166923999786,-0.0146464547142386,0.4835030734539032,0.2522213459014892,-0.0267403256148099,0.5395504832267761,0.4431879222393036,0.0001103487957152,0.5389893054962158,0.33755624294281,-0.0081481337547302,0.537635862827301,0.2663338780403137,-0.0221206061542034,0.5357374548912048,0.2051904201507568,-0.0337631553411483,0.5763755440711975,0.4573359489440918,-0.0126245589926838,0.5913900136947632,0.361539214849472,-0.0235588066279888,0.5957112908363342,0.2956058382987976,-0.0362935066223144,0.5956985354423523,0.2380354404449463,-0.0466408319771289,0.6094489097595215,0.4877460300922394,-0.0274125859141349,0.6341338157653809,0.4161294102668762,-0.0380982719361782,0.646838366985321,0.3648149669170379,-0.0448341146111488,0.6546155214309692,0.3159903287887573,-0.0504916533827781
2023-08-01 15:56:05.968158,29,597,0.6911463141441345,0.5978715419769287,-0.1337249130010604,0.3833848536014557,0.00244140625,0.9189453125,0.318359375,0.5177069902420044,0.7142395973205566,2.430752772397682e-07,0.4576897025108337,0.6611354351043701,-0.0117509439587593,0.419260025024414,0.5685824155807495,-0.0132950227707624,0.4013262093067169,0.4979617297649383,-0.0159331671893596,0.3822078108787536,0.4485756158828735,-0.0185157358646392,0.4972308278083801,0.4411261975765228,0.0076200314797461,0.4923562109470367,0.3491820693016052,-0.0017800600035116,0.4894150793552398,0.2917415499687195,-0.0154806105419993,0.4899367094039917,0.2408795952796936,-0.0275164954364299,0.5400233864784241,0.4353964328765869,-0.0008930737967602,0.5448128581047058,0.3278642296791076,-0.0079345451667904,0.548073410987854,0.2569349706172943,-0.0212733577936887,0.5503852963447571,0.1965700685977935,-0.0329649150371551,0.5773816704750061,0.4512011110782623,-0.0134654929861426,0.5963914394378662,0.3564682006835937,-0.0239400044083595,0.6047770380973816,0.2924294471740722,-0.037780612707138,0.6082186698913574,0.23605278134346,-0.0494947992265224,0.6101129055023193,0.4837663769721985,-0.0281554143875837,0.6422378420829773,0.4175333976745605,-0.039727721363306,0.6598860621452332,0.3691286444664001,-0.0481642894446849,0.6721833944320679,0.3222987055778503,-0.0553564839065074
2023-08-01 15:56:06.029070,30,598,0.6936821937561035,0.596106231212616,-0.1336878687143325,0.3815623521804809,-0.07373046875,0.921875,0.40185546875,0.5158514976501465,0.7195767760276794,2.823621514380648e-07,0.4572208821773529,0.664544403553009,-0.0135547090321779,0.4189780354499817,0.5686753392219543,-0.0163140352815389,0.3993848264217376,0.498473197221756,-0.0198343694210052,0.3757666349411011,0.4507745802402496,-0.0236718915402889,0.4976938664913177,0.4353259801864624,0.0052739395759999,0.4943392872810364,0.3420551419258117,-0.0043608238920569,0.4927815496921539,0.283801257610321,-0.0180848035961389,0.4944275617599487,0.232542335987091,-0.0301095340400934,0.5417655110359192,0.4306350350379944,-0.0033249061089009,0.5519702434539795,0.3216408491134643,-0.0099665122106671,0.5576160550117493,0.2509396374225616,-0.0230510048568248,0.5615577101707458,0.1912089586257934,-0.0346007607877254,0.5798628330230713,0.4487414956092834,-0.016106953844428,0.6042532920837402,0.3553199768066406,-0.0260801743716001,0.6153834462165833,0.2906250357627868,-0.039462499320507,0.621300220489502,0.2322610914707183,-0.0511847622692585,0.6110852360725403,0.4840151071548462,-0.0311778597533702,0.645909309387207,0.4184288084506988,-0.0421200655400753,0.6662506461143494,0.370775431394577,-0.049400795251131,0.6818257570266724,0.3238857984542846,-0.0559789575636386
2023-08-01 15:56:06.088078,31,599,0.6958450078964233,0.5951449871063232,-0.134140059351921,0.3789572417736053,-0.09375,0.91162109375,0.46142578125,0.5152378678321838,0.7243524193763733,3.073063226111117e-07,0.4560123085975647,0.666788637638092,-0.0140020316466689,0.4179967045783996,0.5694965720176697,-0.0180498845875263,0.3975813090801239,0.4998442530632019,-0.0229682121425867,0.3696330487728119,0.4546128511428833,-0.0283716041594743,0.4977038502693176,0.4309706091880798,0.0038115328643471,0.4964988529682159,0.3371128141880035,-0.0069589111953973,0.4964221119880676,0.2784844636917114,-0.0215660110116004,0.4990384876728058,0.2264159023761749,-0.0342928580939769,0.5431228280067444,0.4281119406223297,-0.0052132029086351,0.5587121248245239,0.3198829889297485,-0.0123151391744613,0.567685067653656,0.2501570880413055,-0.0250304546207189,0.5740728378295898,0.190756618976593,-0.0365049429237842,0.5815556049346924,0.4486144483089447,-0.0185688864439725,0.6094425916671753,0.3556814193725586,-0.028792031109333,0.6227872371673584,0.293684720993042,-0.0409503057599067,0.6307663321495056,0.2369258850812912,-0.0518671460449695,0.6117405295372009,0.4865323305130005,-0.0343837514519691,0.6480318307876587,0.420258492231369,-0.0453013740479946,0.6700764894485474,0.3732430934906006,-0.0516856089234352,0.6877491474151611,0.3265309929847717,-0.0577157326042652
2023-08-01 15:56:06.135591,32,600,0.6965474486351013,0.5951548218727112,-0.135576993227005,0.3771356344223022,-0.06689453125,0.93017578125,0.373046875,0.5156141519546509,0.7389472723007202,4.195019016606239e-07,0.4520116448402405,0.6791272759437561,-0.0177027229219675,0.4084805846214294,0.58283531665802,-0.0241555068641901,0.3822939991950989,0.5161401629447937,-0.0306074302643537,0.3528122007846832,0.4731773138046264,-0.0372030213475227,0.4918754398822784,0.432143896818161,-0.0023236582055687,0.4912765026092529,0.3303927779197693,-0.0139972949400544,0.4925211668014526,0.267874151468277,-0.0287753250449895,0.4961671829223633,0.2132707834243774,-0.041694451123476,0.5397483110427856,0.431604266166687,-0.0110539337620139,0.5571206212043762,0.3165986537933349,-0.0182035230100154,0.5687931180000305,0.2433735728263855,-0.0306440163403749,0.5774256587028503,0.183261752128601,-0.0419606529176235,0.5799760222434998,0.4568616449832916,-0.0244535468518733,0.6108413934707642,0.3578527867794037,-0.0357495807111263,0.6279340386390686,0.2949161529541015,-0.0487551353871822,0.6394267082214355,0.237477034330368,-0.060220368206501,0.6117082238197327,0.5007203221321106,-0.040560632944107,0.6514899730682373,0.4338331222534179,-0.0532310530543327,0.6753960847854614,0.3870230913162231,-0.0606882311403751,0.6954945921897888,0.3399061858654022,-0.0673524662852287
2023-08-01 15:56:06.194056,33,601,0.69670170545578,0.5948969125747681,-0.1352754086256027,0.3773658871650696,-0.11865234375,0.9443359375,0.376953125,0.5173835754394531,0.744746208190918,4.214276145830809e-07,0.4543066620826721,0.6817417144775391,-0.0181381590664386,0.410973459482193,0.585067093372345,-0.0248718746006488,0.3842515349388122,0.5192511677742004,-0.0319938510656356,0.3526710271835327,0.4756019115447998,-0.0395081788301467,0.4903773069381714,0.4336107671260834,-0.0003935915592592,0.4894063472747803,0.3322719633579254,-0.0129473796114325,0.4901200532913208,0.2689182758331299,-0.0285642351955175,0.4933022856712341,0.2131411433219909,-0.042050577700138,0.5385907888412476,0.4324069023132324,-0.009413075633347,0.555704653263092,0.3166144788265228,-0.0173917356878519,0.5670901536941528,0.2436746507883072,-0.0309122446924448,0.5764180421829224,0.1819514632225036,-0.0429534688591957,0.5795584917068481,0.4574039578437805,-0.0233698226511478,0.610521137714386,0.3584566712379455,-0.0357841067016124,0.6278681755065918,0.2936453223228454,-0.0496149361133575,0.6399632692337036,0.2333998382091522,-0.0615374408662319,0.6117604374885559,0.5019031167030334,-0.0400513149797916,0.6508494019508362,0.4339010119438171,-0.0527316778898239,0.6763889789581299,0.3876397609710693,-0.0593491792678833,0.6984752416610718,0.3404823541641235,-0.0654867216944694
2023-08-01 15:56:06.240909,34,602,0.6967907547950745,0.5949665307998657,-0.1354655474424362,0.3770235180854797,0.03955078125,0.91845703125,0.3681640625,0.5153113603591919,0.7477297782897949,4.279762038095214e-07,0.4537684917449951,0.6843053102493286,-0.0176698025316,0.4098210632801056,0.5850227475166321,-0.0241599529981613,0.3811343312263489,0.5178494453430176,-0.0311886109411716,0.3461808562278747,0.4772934317588806,-0.0387831218540668,0.490006148815155,0.4354631006717682,4.467977760214126e-06,0.4885209202766418,0.3329312205314636,-0.0120705580338835,0.488592118024826,0.2695019245147705,-0.0272581856697797,0.4914011359214782,0.2135254740715026,-0.0406175628304481,0.5385830998420715,0.4341697990894317,-0.0094337714836001,0.5553166270256042,0.3169377148151397,-0.0171182956546545,0.566804826259613,0.2431693375110626,-0.0304555110633373,0.5759755969047546,0.181372731924057,-0.0425504744052886,0.5797398686408997,0.4591066539287567,-0.0237942636013031,0.6100531816482544,0.3596490025520324,-0.0360985361039638,0.627338171005249,0.2943518161773681,-0.0501127280294895,0.6391315460205078,0.234414666891098,-0.0623612329363822,0.6122069358825684,0.5032132863998413,-0.0408491641283035,0.6512776613235474,0.4344104826450348,-0.0536437481641769,0.6770021915435791,0.3876159489154815,-0.0606553293764591,0.6990535855293274,0.3406630754470825,-0.0672910958528518
2023-08-01 15:56:06.286556,35,603,0.697094738483429,0.5946970582008362,-0.1333999037742614,0.3776223361492157,-0.06787109375,0.8955078125,0.435546875,0.5169283151626587,0.7491340041160583,4.291871107398038e-07,0.4540441930294037,0.6862619519233704,-0.0183890722692012,0.4095114469528198,0.5880259275436401,-0.025379778817296,0.3817291855812073,0.5217807292938232,-0.0327506400644779,0.3477972149848938,0.4815539121627807,-0.0406491160392761,0.488249123096466,0.4360643029212951,-0.0018530993256717,0.486184298992157,0.331820547580719,-0.0148516166955232,0.4863543212413788,0.2673455476760864,-0.0304349586367607,0.4891561865806579,0.2106943130493164,-0.0439458414912223,0.537409245967865,0.4347776770591736,-0.0108912708237767,0.5547622442245483,0.3167220950126648,-0.0193271357566118,0.5665202736854553,0.2431904673576355,-0.0327112786471843,0.5761269330978394,0.1810266077518463,-0.0447049364447593,0.579177737236023,0.4599070250988006,-0.0248619355261325,0.6098203659057617,0.3591877222061157,-0.0374964848160743,0.6272528767585754,0.293960303068161,-0.0512403137981891,0.6395854353904724,0.2337141633033752,-0.0632151216268539,0.6122840046882629,0.5046098232269287,-0.0415853038430213,0.6513071060180664,0.4358431100845337,-0.0544824786484241,0.6772730350494385,0.389068067073822,-0.0612836778163909,0.699842095375061,0.3416860699653625,-0.0676687285304069
2023-08-01 15:56:06.336397,36,604,0.696742057800293,0.5953053832054138,-0.134444460272789,0.376943826675415,-0.04345703125,0.8857421875,0.4560546875,0.5154234766960144,0.7480601072311401,4.4100897866883326e-07,0.4529513120651245,0.6836063861846924,-0.0186392590403556,0.4090707302093506,0.586238443851471,-0.0260186213999986,0.3818832635879516,0.5201339721679688,-0.033754713833332,0.3477414846420288,0.4794419407844543,-0.0420161932706832,0.487481951713562,0.4352521300315857,-0.0026040524244308,0.4852157831192016,0.3307532370090484,-0.0160225052386522,0.4847092926502228,0.2660932540893554,-0.031773280352354,0.4869692623615265,0.2087577581405639,-0.0453192517161369,0.5372534394264221,0.4344362914562225,-0.0117234149947762,0.5542746186256409,0.315933495759964,-0.0204884801059961,0.565661609172821,0.2416190803050995,-0.0341222211718559,0.5748976469039917,0.1783935725688934,-0.0462671071290969,0.5793639421463013,0.4599698483943939,-0.0257542636245489,0.6092458963394165,0.3593198657035827,-0.0389234013855457,0.6262309551239014,0.293720543384552,-0.0527475997805595,0.6381343603134155,0.233014702796936,-0.0646535828709602,0.6130263805389404,0.5047908425331116,-0.0425105355679988,0.6520895957946777,0.4354243874549866,-0.0557771399617195,0.6780039072036743,0.3886111974716186,-0.0624559670686721,0.7004121541976929,0.3412634432315826,-0.0686630606651306
