Timestamp,Index,Frame ID,w,x,y,z,ax,ay,az,x_0,y_0,z_0,x_1,y_1,z_1,x_2,y_2,z_2,x_3,y_3,z_3,x_4,y_4,z_4,x_5,y_5,z_5,x_6,y_6,z_6,x_7,y_7,z_7,x_8,y_8,z_8,x_9,y_9,z_9,x_10,y_10,z_10,x_11,y_11,z_11,x_12,y_12,z_12,x_13,y_13,z_13,x_14,y_14,z_14,x_15,y_15,z_15,x_16,y_16,z_16,x_17,y_17,z_17,x_18,y_18,z_18,x_19,y_19,z_19,x_20,y_20,z_20
2023-08-01 15:55:56.210890,0,418,0.6917714476585388,0.5969714522361755,-0.1238729283213615,0.3869533836841583,-0.076171875,0.9189453125,0.357421875,0.5111063718795776,0.7414543628692627,4.502172998854803e-07,0.4501781761646271,0.6784480810165405,-0.0166322030127048,0.4095711708068847,0.5862688422203064,-0.0226011089980602,0.3834028244018554,0.5236746668815613,-0.0296108573675155,0.3527441024780273,0.4832629263401031,-0.0366324894130229,0.4937722682952881,0.4329837262630462,0.0061742756515741,0.499475359916687,0.3390266299247741,-0.0039116539992392,0.5057489275932312,0.2806733250617981,-0.01861715875566,0.5136144161224365,0.2307298481464386,-0.031189315021038,0.5398187637329102,0.4305216670036316,-0.0023070238530635,0.5617837905883789,0.3190168440341949,-0.0066741956397891,0.5759613513946533,0.2496847659349441,-0.0176560916006565,0.5872411131858826,0.1943244040012359,-0.0278553701937198,0.57906174659729,0.4534233212471008,-0.0160146728157997,0.6136110424995422,0.3593729734420776,-0.0243789255619049,0.6314685940742493,0.2999841570854187,-0.0356540717184543,0.6436480283737183,0.2475381642580032,-0.0459401085972785,0.6101099848747253,0.4967941045761108,-0.0327854193747043,0.6539375185966492,0.4368253946304321,-0.0419162809848785,0.6815333366394043,0.3958973884582519,-0.0469677411019802,0.7053134441375732,0.3563024997711181,-0.0518530197441577
2023-08-01 15:55:56.258964,1,419,0.6940102577209473,0.5957937240600586,-0.1261238008737564,0.3840214312076568,-0.11767578125,0.91845703125,0.39208984375,0.509300708770752,0.7443534731864929,4.656984344819648e-07,0.448265790939331,0.6802024841308594,-0.016115678474307,0.4101301431655884,0.5879472494125366,-0.0216374769806861,0.3857636153697967,0.526139497756958,-0.0284906849265098,0.3545524477958679,0.4862712323665619,-0.0353233069181442,0.4949892461299896,0.4325403571128845,0.0080913640558719,0.5016762614250183,0.3386432528495788,-0.0010332880774512,0.5081584453582764,0.2804549932479858,-0.0148357413709163,0.5162942409515381,0.2304736077785492,-0.0267181601375341,0.5407501459121704,0.4313787221908569,-0.0006901190499775,0.5637949109077454,0.3194961249828338,-0.0041696466505527,0.57859867811203,0.2491738349199295,-0.0144569929689168,0.5908288955688477,0.1934134364128112,-0.0241098366677761,0.5792621970176697,0.4558218121528625,-0.0148202273994684,0.6146778464317322,0.363418698310852,-0.0228785313665866,0.6331652402877808,0.3051451444625854,-0.0339338742196559,0.6463047862052917,0.2537739872932434,-0.0438945516943931,0.6092700958251953,0.4999947249889374,-0.0320490673184394,0.6545230150222778,0.4408521056175232,-0.0413027070462703,0.6833308935165405,0.4000883400440216,-0.0466396026313304,0.7087063193321228,0.3604729175567627,-0.0516030043363571
2023-08-01 15:55:56.319951,2,420,0.6943438649177551,0.595811665058136,-0.126698225736618,0.3832007050514221,-0.07861328125,0.91845703125,0.41943359375,0.5092682242393494,0.749466061592102,4.977641765435692e-07,0.4469266831874847,0.6863084435462952,-0.0173162892460823,0.4062394499778747,0.5929102897644043,-0.0239615589380264,0.3804304301738739,0.5311007499694824,-0.0314730294048786,0.3473027646541595,0.4949624240398407,-0.0393183529376983,0.4919708371162414,0.4335635304450989,0.0034294223878532,0.4989678263664245,0.3379046618938446,-0.0067143575288355,0.5066168308258057,0.2790720462799072,-0.02136748470366,0.5157517790794373,0.22886523604393,-0.0341657102108001,0.5390635132789612,0.4332557022571563,-0.0056828209199011,0.5630850195884705,0.3184225261211395,-0.0108007378876209,0.5781606435775757,0.245816946029663,-0.022948844358325,0.5902765989303589,0.1878964006900787,-0.0342262759804725,0.578511118888855,0.4592084288597107,-0.0199493933469057,0.6149160265922546,0.3623289465904236,-0.0301516931504011,0.6331095099449158,0.3003364205360412,-0.0442474484443664,0.6458086371421814,0.2449931055307388,-0.0565754882991313,0.6093885898590088,0.5056164264678955,-0.0370721779763698,0.6567025184631348,0.4451742172241211,-0.0484618619084358,0.6862525939941406,0.4030552506446838,-0.0558992139995098,0.7116760015487671,0.3614072799682617,-0.0627374425530433
2023-08-01 15:55:56.365981,3,421,0.6930476427078247,0.5968073010444641,-0.1261696368455886,0.3841708302497864,-0.08544921875,0.91943359375,0.33935546875,0.5079960227012634,0.7520581483840942,4.821833385904029e-07,0.4458791017532348,0.6872445344924927,-0.0164830423891544,0.4069359898567199,0.5952774286270142,-0.0228940602391958,0.3830329179763794,0.533876359462738,-0.0305898264050483,0.3509719371795654,0.4947330951690674,-0.038583219051361,0.4916728734970093,0.4352158606052398,0.0059960749931633,0.4989235699176788,0.3389752507209778,-0.0038472872693091,0.5057297348976135,0.279895544052124,-0.0184036064893007,0.5140753984451294,0.2287802398204803,-0.0311755929142236,0.5388874411582947,0.4344577193260193,-0.0036332421004772,0.5629206895828247,0.31903737783432,-0.0085615525022149,0.5781561732292175,0.2466642409563064,-0.0209844522178173,0.5908271670341492,0.1887080073356628,-0.0325265675783157,0.5782322287559509,0.4600457549095154,-0.0184648726135492,0.6152160167694092,0.3635932803153991,-0.0282407570630311,0.634712815284729,0.3023788034915924,-0.0420103557407856,0.6484851837158203,0.247694507241249,-0.0542092397809028,0.6090646386146545,0.5062079429626465,-0.036174152046442,0.656271755695343,0.4456078708171844,-0.0468617938458919,0.6861145496368408,0.4036800563335418,-0.0536907128989696,0.7117950916290283,0.3624415397644043,-0.060159359127283
2023-08-01 15:55:56.412533,4,422,0.692721962928772,0.5965508222579956,-0.125906229019165,0.3852413296699524,-0.10595703125,0.9208984375,0.33154296875,0.507304310798645,0.7523558139801025,4.886103397439001e-07,0.4458840191364288,0.6876026391983032,-0.0167859587818384,0.4071425497531891,0.5946114659309387,-0.0232964847236871,0.3830325305461883,0.533103883266449,-0.030958442017436,0.3508986234664917,0.4944047033786773,-0.0389278829097747,0.4912480115890503,0.4351483881473541,0.0051188506186008,0.498279720544815,0.3380125164985657,-0.0047913393937051,0.5053601264953613,0.2788916826248169,-0.0192057900130748,0.5143054127693176,0.2276529371738433,-0.0318403914570808,0.5384839177131653,0.4342513978481293,-0.0042002703994512,0.5630857348442078,0.3186935782432556,-0.0089275408536195,0.5785251259803772,0.2464959323406219,-0.0210636984556913,0.5913234949111938,0.1884568333625793,-0.0324604585766792,0.5777854919433594,0.4594692289829254,-0.0187273398041725,0.6148858070373535,0.3625742793083191,-0.0281050987541675,0.6334861516952515,0.3007621169090271,-0.0418381951749324,0.64654141664505,0.2452205270528793,-0.0541796721518039,0.6085055470466614,0.5051016807556152,-0.0361564755439758,0.6563398838043213,0.4448735415935516,-0.0465090274810791,0.686115026473999,0.4025188386440277,-0.0534875094890594,0.7116132378578186,0.360536515712738,-0.060196753591299
2023-08-01 15:55:56.460472,5,423,0.6911109089851379,0.5968318581581116,-0.127830684185028,0.3870616853237152,-0.17724609375,0.91650390625,0.42333984375,0.5082578063011169,0.7511473894119263,4.871403689321596e-07,0.4471775889396667,0.6870161294937134,-0.0170565284788608,0.4082801938056946,0.5933724641799927,-0.0238251630216836,0.3833948373794555,0.5316235423088074,-0.0317065380513668,0.350248634815216,0.4929167330265045,-0.0399172827601432,0.4915466904640198,0.4346562922000885,0.0044390819966793,0.498441994190216,0.3379631638526916,-0.0055872262455523,0.5051471590995789,0.2790051698684692,-0.0198616776615381,0.5137172341346741,0.2283192276954651,-0.0323258303105831,0.538882315158844,0.4336009323596954,-0.0046718982048332,0.5634644031524658,0.3183722496032715,-0.0095912860706448,0.578433632850647,0.246333971619606,-0.0215668845921754,0.5905576348304749,0.1887630820274353,-0.032787948846817,0.5783852338790894,0.4584839344024658,-0.0189687795937061,0.6159932017326355,0.3622736930847168,-0.0284746419638395,0.6347579956054688,0.300444483757019,-0.0420859791338443,0.6478314995765686,0.2451378852128982,-0.0542886406183242,0.6091435551643372,0.503649890422821,-0.0361578576266765,0.657150387763977,0.4441266655921936,-0.0464206859469413,0.6869678497314453,0.401921659708023,-0.053258117288351,0.7124643921852112,0.3601814806461334,-0.0598499923944473
2023-08-01 15:55:56.520914,6,424,0.6897946000099182,0.5980274677276611,-0.1336567848920822,0.3855934739112854,0.25927734375,0.9169921875,0.37646484375,0.5075938105583191,0.7503067851066589,4.80377423173195e-07,0.4457175433635711,0.6850107908248901,-0.0160579904913902,0.4062803387641907,0.590802788734436,-0.0222197715193033,0.3804180324077606,0.529321014881134,-0.0297051351517438,0.3470444977283478,0.4939596354961395,-0.0377703830599784,0.4905214309692383,0.4347091615200043,0.0045960969291627,0.4971094131469726,0.3368477821350097,-0.0056652128696441,0.5030842423439026,0.2766579389572143,-0.0202640499919652,0.5106407999992371,0.2243273854255676,-0.0331653542816638,0.5371989607810974,0.4335141777992248,-0.0051853684708476,0.5608505010604858,0.3181705772876739,-0.0105115752667188,0.5754601955413818,0.2455885410308838,-0.0229589957743883,0.5874584317207336,0.1862624883651733,-0.0346349850296974,0.5759178996086121,0.4580636918544769,-0.02004025131464,0.6128794550895691,0.3591483831405639,-0.0302567481994628,0.6310716867446899,0.2971872985363006,-0.0444340743124485,0.6437687873840332,0.2408896535634994,-0.0570363886654377,0.6058983206748962,0.5028230547904968,-0.0376681350171566,0.6537460088729858,0.4429712891578674,-0.0490342937409877,0.6831920146942139,0.4003688395023346,-0.0566396750509738,0.7082725763320923,0.3580898642539978,-0.06379134953022
2023-08-01 15:55:56.567229,7,425,0.6890661716461182,0.5968641042709351,-0.1294428557157516,0.3901097476482391,-0.1435546875,0.88818359375,0.3583984375,0.5041953921318054,0.7457658052444458,4.716724504305603e-07,0.4419485032558441,0.6818186044692993,-0.0194485578685998,0.3984463810920715,0.5873076319694519,-0.0281797554343938,0.369482159614563,0.5221694111824036,-0.037639208137989,0.3364964723587036,0.4835818409919739,-0.0474608018994331,0.4863631427288055,0.4357891678810119,-0.000772796513047,0.4916239380836487,0.3386811017990112,-0.0133434254676103,0.4958617985248565,0.2784057259559631,-0.0294601488858461,0.5020720958709717,0.2252929210662841,-0.0431732423603534,0.5324767827987671,0.4338112771511078,-0.0091360807418823,0.554446816444397,0.3195887207984924,-0.0165870077908039,0.5672628283500671,0.2466547489166259,-0.0293312482535839,0.577686071395874,0.1868215799331665,-0.0409536436200141,0.5710293650627136,0.4564659297466278,-0.0227041542530059,0.6056166887283325,0.3586100935935974,-0.0339374616742134,0.622452437877655,0.2959233522415161,-0.046956080943346,0.6344234347343445,0.2403154820203781,-0.0584181994199752,0.6012102365493774,0.4989009201526642,-0.0394320003688335,0.6470735669136047,0.4370657801628113,-0.0510818660259246,0.675650954246521,0.3920818269252777,-0.0580304972827434,0.7002683877944946,0.348534882068634,-0.0643921792507171
2023-08-01 15:55:56.614469,8,426,0.686119019985199,0.5994411706924438,-0.1352718770503997,0.3893744647502899,-0.13671875,0.92724609375,0.396484375,0.5080279111862183,0.7432054281234741,3.987748300460226e-07,0.4456965923309326,0.6807729601860046,-0.0174787733703851,0.4015685319900512,0.5872300863265991,-0.0246396623551845,0.3730431795120239,0.5216291546821594,-0.0327375642955303,0.3399836719036102,0.4827131927013397,-0.0416162461042404,0.4866945743560791,0.4389031529426574,0.0012120105093345,0.488426923751831,0.3419219851493835,-0.0112082073464989,0.4905175864696502,0.2802520990371704,-0.0274094436317682,0.4945080280303955,0.2260067760944366,-0.0415609590709209,0.5329521894454956,0.4351467490196228,-0.0079815806820988,0.5532608032226562,0.321126639842987,-0.0164811294525861,0.5642381906509399,0.2478266656398773,-0.0306710191071033,0.572905421257019,0.1864988505840301,-0.0435120090842247,0.5716012716293335,0.4562011361122131,-0.0220961980521678,0.6064029335975647,0.3577238321304321,-0.034835547208786,0.6238194108009338,0.2919544875621795,-0.0496500134468078,0.6359128355979919,0.2332304120063781,-0.0625365749001503,0.6013690233230591,0.4970174133777618,-0.0389605276286602,0.6450061202049255,0.4347522854804992,-0.0527998618781566,0.6727983355522156,0.3888922929763794,-0.0611085593700408,0.6969239711761475,0.3440121412277221,-0.0685281604528427
2023-08-01 15:55:56.662958,9,427,0.6832922101020813,0.6021672487258911,-0.1389559656381607,0.3888413608074188,0.05224609375,0.91259765625,0.37451171875,0.5107678771018982,0.74181067943573,3.6078199627809227e-07,0.4484487771987915,0.6817213296890259,-0.0181546714156866,0.4024890661239624,0.5888148546218872,-0.026236917823553,0.3724493980407715,0.5217849016189575,-0.0352791249752044,0.3394117951393127,0.4785175621509552,-0.0450262725353241,0.4874019622802734,0.4439697563648224,-3.431641380302608e-05,0.4865626692771911,0.3479560613632202,-0.0135414600372314,0.4860709607601166,0.2866662442684173,-0.0304807387292385,0.4875791072845459,0.2317008972167968,-0.0450594499707222,0.5332216620445251,0.4384876191616058,-0.0090602170675992,0.5496660470962524,0.3253425657749176,-0.0190327502787113,0.5576905012130737,0.251892477273941,-0.0338397994637489,0.5630332231521606,0.1899292171001434,-0.0470658838748931,0.5714876651763916,0.4570945799350738,-0.0230371206998825,0.6007179021835327,0.3594219088554382,-0.036410141736269,0.6124274730682373,0.2934292554855346,-0.0508698597550392,0.6185973286628723,0.2340209782123565,-0.0633391439914703,0.6025515198707581,0.4942392110824585,-0.0398729033768177,0.6438864469528198,0.4275836050510406,-0.0533050782978534,0.6681559085845947,0.3771016299724579,-0.0615023411810398,0.6873308420181274,0.3273389339447021,-0.0689344555139541
2023-08-01 15:55:56.724222,10,428,0.6790830492973328,0.6057830452919006,-0.1437374502420425,0.3888607323169708,-0.00341796875,0.9189453125,0.34326171875,0.512615442276001,0.7373232245445251,3.2115826797962654e-07,0.4504886865615845,0.6778671741485596,-0.0192532483488321,0.4031711220741272,0.5856083631515503,-0.0276865977793931,0.3717987239360809,0.5161683559417725,-0.0368870347738266,0.3401145339012146,0.4694516658782959,-0.0465720295906066,0.4879756271839142,0.4464226961135864,-5.983007213217206e-05,0.4853695631027221,0.3515189886093139,-0.0136572541669011,0.4827342927455902,0.291913628578186,-0.0306791346520185,0.4818587005138397,0.2375195026397705,-0.0453794822096824,0.533137857913971,0.4401130676269531,-0.0082390494644641,0.547121524810791,0.3293870985507965,-0.018584044650197,0.5517540574073792,0.2578282952308655,-0.0340066663920879,0.553122878074646,0.1968079507350921,-0.0478338189423084,0.57069993019104,0.4572434425354004,-0.0214780680835247,0.598281741142273,0.3615138530731201,-0.0349805131554603,0.6073623299598694,0.2974850237369537,-0.0497389286756515,0.6100572347640991,0.2397990971803665,-0.0624550804495811,0.6014668941497803,0.492165058851242,-0.0376452058553695,0.640686571598053,0.4255605041980743,-0.0510304756462574,0.6623009443283081,0.3743259310722351,-0.0598651021718978,0.6781117916107178,0.3237205147743225,-0.0679016932845115
2023-08-01 15:55:56.785032,11,429,0.6770320534706116,0.605802059173584,-0.1392456144094467,0.3940078318119049,-0.14453125,0.9287109375,0.369140625,0.5110151767730713,0.7350097298622131,2.460682537730463e-07,0.451553612947464,0.6751502752304077,-0.0178888868540525,0.4059227108955383,0.5836975574493408,-0.0261589549481868,0.3745347857475281,0.5130953788757324,-0.0355553217232227,0.3436869382858276,0.4634538292884826,-0.0454410053789615,0.4883475303649902,0.4481353759765625,0.0025324241723865,0.484765350818634,0.3568543791770935,-0.0120229655876755,0.4795580506324768,0.299801230430603,-0.0304142273962497,0.4748894870281219,0.2466479837894439,-0.0460156612098217,0.5325415134429932,0.4421814978122711,-0.0062431218102574,0.5455859303474426,0.3363731503486633,-0.0174307711422443,0.5467537641525269,0.2677177190780639,-0.0343447923660278,0.5432609915733337,0.2081309556961059,-0.0491849444806575,0.5692077279090881,0.4586138427257538,-0.0199707355350255,0.5965534448623657,0.3669905066490173,-0.0335340648889541,0.6025763750076294,0.3040146827697754,-0.048068881034851,0.6004335880279541,0.2478341162204742,-0.0606154985725879,0.5979872345924377,0.4931545555591583,-0.0364622101187706,0.6327871680259705,0.4287148416042328,-0.0491248220205307,0.6499491930007935,0.3794790804386139,-0.0567841343581676,0.6597940921783447,0.3323689699172973,-0.0639472529292106
2023-08-01 15:55:56.831773,12,430,0.6746663451194763,0.6096420288085938,-0.1434015482664108,0.3906378149986267,0.01416015625,0.92333984375,0.30859375,0.5102264285087585,0.7328431010246277,1.1790670129130377e-07,0.4504030644893646,0.6683536171913147,-0.0147454775869846,0.4067010879516601,0.5799077153205872,-0.0217996817082166,0.3767767250537872,0.510375440120697,-0.0310108233243227,0.349407434463501,0.4573362469673157,-0.0402298644185066,0.4898205697536468,0.4513894021511078,0.0108764665201306,0.4863775074481964,0.3659119307994842,-0.0026317033916711,0.4781563878059387,0.3151227831840515,-0.0215074382722377,0.4677341282367706,0.2658606767654419,-0.0374334119260311,0.5327131152153015,0.4459134638309479,0.0013867558445781,0.5460115671157837,0.3483298420906067,-0.008334930986166,0.5426644682884216,0.2851697206497192,-0.0251013468950986,0.5325664281845093,0.2293731868267059,-0.0400756560266017,0.5681523084640503,0.4617545902729034,-0.013323220424354,0.5957363843917847,0.3755810558795929,-0.0247476324439048,0.5997280478477478,0.3166234493255615,-0.0377702042460441,0.5927892327308655,0.2642047703266144,-0.0493086203932762,0.5955320000648499,0.4951415061950683,-0.0308350902050733,0.6251543760299683,0.4318512976169586,-0.0413895137608051,0.6324057579040527,0.3832021653652191,-0.0478008687496185,0.6291760206222534,0.3379164934158325,-0.0540978461503982
2023-08-01 15:55:56.880454,13,431,0.6738114356994629,0.610728919506073,-0.143510103225708,0.3903757631778717,-0.03076171875,0.91650390625,0.39990234375,0.5086894631385803,0.7319772839546204,-1.8091954245846867e-07,0.4480267167091369,0.6603151559829712,-0.007818279787898,0.4087793827056885,0.567110002040863,-0.0090516870841383,0.3907011449337005,0.4883884191513061,-0.0151468096300959,0.3795120120048523,0.4241489768028259,-0.0182375684380531,0.490265816450119,0.4652891755104065,0.0383564159274101,0.4923443794250488,0.3883545994758606,0.0203358046710491,0.4801048636436462,0.3646837472915649,-0.002610511612147,0.4637067914009094,0.366887629032135,-0.0152143994346261,0.5284477472305298,0.4580894708633423,0.0309931710362434,0.5365431904792786,0.3679391145706177,0.0205173157155513,0.5275576710700989,0.3303967118263244,0.0044613257050514,0.5097551941871643,0.3356879353523254,-0.0045278989709913,0.5629889369010925,0.4687500894069671,0.0165819488465785,0.5801821351051331,0.38629150390625,0.0073805917054414,0.5705494284629822,0.3429678678512573,-0.0006858479464426,0.5487680435180664,0.3388538956642151,-0.0036187367513775,0.5976663827896118,0.4963795244693756,-0.0007300846627913,0.6185013055801392,0.4347864687442779,-0.0085679963231086,0.6093969345092773,0.3936792612075805,-0.0126284388825297,0.5862607955932617,0.3793366849422455,-0.0126036619767546
2023-08-01 15:55:56.948845,14,432,0.6732011437416077,0.6112098693847656,-0.1415879279375076,0.3913764953613281,-0.033203125,0.93994140625,0.33251953125,0.5038754343986511,0.7207127213478088,-2.6859663648792775e-07,0.4472227990627289,0.6555067300796509,-0.0078642973676323,0.4085882902145386,0.5619085431098938,-0.009427947923541,0.3908669352531433,0.485438197851181,-0.015747969970107,0.3841243386268616,0.4221921563148498,-0.0185748562216758,0.4900068044662475,0.4644927382469177,0.0344742275774478,0.4919286668300628,0.3874880969524383,0.0160325150936841,0.4758709371089935,0.3698463141918182,-0.0066106119193136,0.4563014507293701,0.3814778923988342,-0.0188355725258588,0.5256509184837341,0.4585004150867462,0.0276030451059341,0.5316799879074097,0.3683349788188934,0.0149815194308757,0.5147647261619568,0.3446381092071533,-0.0022042612545192,0.4920450150966644,0.3644296526908874,-0.0111161218956112,0.5601727962493896,0.4676801264286041,0.0143168047070503,0.5750645399093628,0.3813984990119934,0.005562346894294,0.5584877729415894,0.3478590548038482,-0.0021948814392089,0.5341322422027588,0.3548752963542938,-0.0049104769714176,0.5961579084396362,0.4922839701175689,-0.0018511899979785,0.6141970753669739,0.4252223372459411,-0.0083336029201745,0.5995973944664001,0.3881078362464905,-0.0120120560750365,0.5731677412986755,0.3821041285991668,-0.0120040401816368
2023-08-01 15:55:57.006260,15,433,0.6730268001556396,0.6121416687965393,-0.1430889517068863,0.3896705508232116,0.0185546875,0.93798828125,0.35888671875,0.5047223567962646,0.7167920470237732,-2.500909772606974e-07,0.4461768567562103,0.6545485258102417,-0.0113200759515166,0.4087418615818023,0.563105046749115,-0.0118637857958674,0.3917282223701477,0.4855520725250244,-0.0169146265834569,0.3872944712638855,0.4206485152244568,-0.0181197691708803,0.4899077713489532,0.4714945554733276,0.0381067432463169,0.4891170561313629,0.3964625895023346,0.0209696106612682,0.4734437167644501,0.3807405829429626,-0.0010921003995463,0.4563353657722473,0.3953663408756256,-0.0127081889659166,0.5245723128318787,0.4628842771053314,0.0333848781883716,0.5322715044021606,0.3722062110900879,0.0212955567985773,0.5150481462478638,0.3466529846191406,0.0032257249113172,0.4920909106731415,0.3685317635536194,-0.0059329275973141,0.5588304996490479,0.4700735211372375,0.0214297417551279,0.5745625495910645,0.3848810791969299,0.0121575184166431,0.5569407343864441,0.3498913049697876,0.0014779205666854,0.5312142372131348,0.3603994250297546,-0.0025225689169019,0.5948288440704346,0.4907450377941131,0.0062334025278687,0.6136979460716248,0.42465740442276,-0.001113454462029,0.5970754623413086,0.3903912007808685,-0.0067076878622174,0.5679651498794556,0.393711119890213,-0.0077400542795658
2023-08-01 15:55:57.066438,16,434,0.6732017993927002,0.6123473644256592,-0.1425882428884506,0.389228343963623,-0.06787109375,0.92578125,0.376953125,0.5065323710441589,0.7120416760444641,-2.0756941410127186e-07,0.4471901655197143,0.6537907123565674,-0.0140999956056475,0.4100297689437866,0.5642379522323608,-0.0150136547163128,0.3947018980979919,0.4834701418876648,-0.0202625505626201,0.3924705386161804,0.4162918329238891,-0.0215817485004663,0.4895105957984924,0.4746306240558624,0.0394553244113922,0.487253189086914,0.4027125537395477,0.0219377242028713,0.4727637469768524,0.3876136839389801,-0.0003430511278565,0.4599373638629913,0.4024020135402679,-0.0119705814868211,0.5245742201805115,0.4650421738624573,0.0359386913478374,0.5343376994132996,0.370066225528717,0.0210570748895406,0.5171203017234802,0.347623199224472,0.0021074858959764,0.4963937401771545,0.3759438395500183,-0.0060679190792143,0.5586137771606445,0.4715527594089508,0.0247012246400117,0.5745909810066223,0.3835533857345581,0.012933743186295,0.5549123287200928,0.3529422879219055,0.0013571924064308,0.5299220085144043,0.371120274066925,-0.0016055072192102,0.5948057770729065,0.4912247955799103,0.0100134927779436,0.6122750043869019,0.4209071099758148,0.0016927391989156,0.5932090282440186,0.3877054452896118,-0.0044749826192855,0.5639523863792419,0.3954302072525024,-0.0052672009915113
2023-08-01 15:55:57.114486,17,435,0.6728785037994385,0.611994743347168,-0.1442928165197372,0.3897134661674499,-0.09423828125,0.955078125,0.33447265625,0.5079590082168579,0.712489902973175,-2.371840537307435e-07,0.447269082069397,0.6540058851242065,-0.014913429506123,0.4111643433570862,0.5648742318153381,-0.0166643243283033,0.3963534235954284,0.4835027754306793,-0.0230944771319627,0.393677145242691,0.4156070351600647,-0.0253880526870489,0.4900495707988739,0.4755043089389801,0.0387941226363182,0.4876661300659179,0.4013405442237854,0.0185272917151451,0.4726118743419647,0.392344981431961,-0.0052205263637006,0.46064493060112,0.4155377149581909,-0.0171948950737714,0.5243120789527893,0.4656484723091125,0.0353445559740066,0.5348384976387024,0.3699895441532135,0.0178958419710397,0.5162467956542969,0.3532225489616394,-0.0021229868289083,0.4968982934951782,0.387573093175888,-0.0101938536390662,0.5580770373344421,0.4714543223381042,0.0239304415881633,0.5746389031410217,0.3822816908359527,0.0101784244179725,0.5527173280715942,0.3605915904045105,-0.0014836972113698,0.5290706157684326,0.387680172920227,-0.0036586218047887,0.5946575403213501,0.4896163046360016,0.0089571578428149,0.6126354932785034,0.4205588102340698,-0.0003424393653403,0.5920153856277466,0.3917505443096161,-0.0068413163535296,0.5631409287452698,0.4046642482280731,-0.0073499870486557
2023-08-01 15:55:57.178371,18,436,0.6742189526557922,0.610821545124054,-0.1457370668649673,0.3886986076831817,0.0615234375,0.89501953125,0.4130859375,0.5151278376579285,0.7135158777236938,-3.367730414538528e-07,0.4521771967411041,0.6494295597076416,-0.0159412641078233,0.4165064692497253,0.5570197105407715,-0.017814315855503,0.4108037948608398,0.4678349494934082,-0.0248223021626472,0.4235770106315613,0.3998243808746338,-0.0277913846075534,0.4819734990596771,0.4758196175098419,0.0417953468859195,0.4867443740367889,0.4056827425956726,0.0218597371131181,0.4747578501701355,0.4093047082424164,0.0001986591523746,0.4707332253456116,0.4379546046257019,-0.0111454194411635,0.5181817412376404,0.4688655734062195,0.038013357669115,0.5317754149436951,0.3739176094532013,0.0157223027199506,0.5122073888778687,0.3902592658996582,-0.0040317843668162,0.5022437572479248,0.4384943544864654,-0.0103244800120592,0.5524576902389526,0.4754885733127594,0.0264020077884197,0.5726525783538818,0.3826658427715301,0.0064639314077794,0.5493780374526978,0.3926877975463867,-0.0036216026637703,0.5363602638244629,0.438237726688385,-0.0030138660222291,0.5887346267700195,0.4962945282459259,0.0116325914859771,0.6029497981071472,0.4194400608539581,-0.0004083107924088,0.5795588493347168,0.415093332529068,-0.0040685976855456,0.5599608421325684,0.4484336376190185,-0.0021196894813328
2023-08-01 15:55:57.235491,19,437,0.6754740476608276,0.6110190749168396,-0.1451961398124694,0.3864045739173889,0.140625,0.9267578125,0.37744140625,0.5119574666023254,0.7127993106842041,-3.2747661293797137e-07,0.4512144327163696,0.6489611864089966,-0.0158526487648487,0.4166591763496399,0.5563503503799438,-0.0185830313712358,0.4099197387695312,0.4683546721935272,-0.0262478981167078,0.4232852160930633,0.4000678360462188,-0.0299088302999734,0.4828085899353027,0.4753821492195129,0.0397747009992599,0.4881590604782104,0.4044187068939209,0.0178735107183456,0.4766813218593597,0.4094476699829101,-0.005010322201997,0.4723715186119079,0.4420521259307861,-0.0165624525398015,0.5188199877738953,0.4688931703567505,0.0359521880745887,0.5327641367912292,0.3731757998466491,0.0122716063633561,0.5134308934211731,0.3902569413185119,-0.0077333375811576,0.5030615329742432,0.4405596554279327,-0.0138696637004613,0.5530416369438171,0.4752528667449951,0.0243105012923479,0.5737124085426331,0.3824348747730255,0.0041200090199708,0.5497881174087524,0.3920019567012787,-0.0058981059119105,0.5359923243522644,0.4365995824337005,-0.0052938652224838,0.5890849232673645,0.4953469932079315,0.0095009785145521,0.6039038896560669,0.4189891815185547,-0.0019453776767477,0.5801476240158081,0.4150353074073791,-0.0055057862773537,0.5599623918533325,0.4467816054821014,-0.0037363779265433
2023-08-01 15:55:57.282833,20,438,0.6762192845344543,0.6105815768241882,-0.1422555595636367,0.3868862092494964,-0.03662109375,0.9052734375,0.435546875,0.5115366578102112,0.7133426070213318,-3.488971742626745e-07,0.4508098363876343,0.6514275670051575,-0.0157689079642295,0.4173767566680908,0.5578224062919617,-0.0195684414356946,0.4148935675621032,0.4697205126285553,-0.0285133086144924,0.433700680732727,0.4036594927310943,-0.0330660045146942,0.4828421175479889,0.4736502766609192,0.0359813384711742,0.4928492307662964,0.3963547348976135,0.0132602285593748,0.4762500524520874,0.4066817760467529,-0.0077163632959127,0.4699643850326538,0.4432840943336487,-0.0176586974412202,0.5169493556022644,0.4692883491516113,0.0315485671162605,0.535391092300415,0.3710567355155945,0.0072097624652087,0.5113837122917175,0.3935748934745788,-0.0099807363003492,0.5023185014724731,0.4431043863296509,-0.0137215293943881,0.5501536726951599,0.4777758121490478,0.0194541756063699,0.5729527473449707,0.3818529844284057,-0.0017338008619844,0.5464779138565063,0.3987993001937866,-0.0090413531288504,0.5353646278381348,0.4467169046401977,-0.0061829648911952,0.5852394104003906,0.4985853135585785,0.0042830030433833,0.599043607711792,0.4195755124092102,-0.007421804126352,0.5749139785766602,0.4211492836475372,-0.0089814066886901,0.5584996938705444,0.4579841196537018,-0.0053994767367839
2023-08-01 15:55:57.329966,21,439,0.6753672957420349,0.6121405959129333,-0.1429377347230911,0.3856574892997741,0.04248046875,0.953125,0.31494140625,0.5191774368286133,0.7203472256660461,-4.616162811998948e-07,0.4548221528530121,0.6415756344795227,-0.004295265302062,0.4275486469268799,0.5471059083938599,-0.0067958403378725,0.4468398094177246,0.4682827591896057,-0.0176843516528606,0.489757776260376,0.4243271648883819,-0.0262536872178316,0.4802481830120086,0.490768551826477,0.0387014597654342,0.4830562472343445,0.4114164412021637,0.0168103277683258,0.4676224887371063,0.444459468126297,-0.0030781694222241,0.4685887992382049,0.485334187746048,-0.0132970977574586,0.5133143663406372,0.48587766289711,0.027993282303214,0.5258608460426331,0.3877635300159454,0.0020497536752372,0.5054773688316345,0.4284148812294006,-0.0156020317226648,0.5029904246330261,0.478616327047348,-0.0191639307886362,0.5477924942970276,0.4896933734416961,0.0115748476237058,0.5614684820175171,0.3846321105957031,-0.0123210223391652,0.538202702999115,0.428078830242157,-0.0152734173461794,0.5337260961532593,0.4869253635406494,-0.0081018321216106,0.5836154222488403,0.5048038363456726,-0.0065382346510887,0.5828835964202881,0.4216680824756622,-0.0188552420586347,0.5613530874252319,0.4450272619724273,-0.0145760886371135,0.5536699295043945,0.4926683306694031,-0.0062194704078137
2023-08-01 15:55:57.375962,22,440,0.6748475432395935,0.6114055514335632,-0.1418367773294448,0.3881317973136902,-0.01416015625,0.89501953125,0.41845703125,0.5233780741691589,0.7190700769424438,-4.760863134833926e-07,0.4586489200592041,0.646668016910553,-0.0097771417349576,0.429485946893692,0.5502069592475891,-0.0150926476344466,0.4527778923511505,0.4690897762775421,-0.0274297855794429,0.5032202005386353,0.430576741695404,-0.0370785929262638,0.4806714653968811,0.4999139904975891,0.0303042382001876,0.4775175154209137,0.4210076332092285,0.0061256978660821,0.4658073782920837,0.4641632437705993,-0.0146078113466501,0.469768762588501,0.5099716186523438,-0.0247974172234535,0.5157584547996521,0.4935435354709625,0.0226249489933252,0.5210151076316833,0.3997307419776916,-0.0041824080981314,0.5063958764076233,0.4498076736927032,-0.0210361573845148,0.5092169642448425,0.5033832788467407,-0.0237068459391593,0.5520831942558289,0.4949537813663482,0.0091286627575755,0.5588077902793884,0.3916411697864532,-0.0163088217377662,0.5401879549026489,0.4425632953643799,-0.0174796488136053,0.5403125882148743,0.5038087368011475,-0.0082738930359482,0.5898716449737549,0.507465124130249,-0.006339784245938,0.5827130675315857,0.4270170927047729,-0.0196475330740213,0.5642693638801575,0.4550352692604065,-0.0143191749230027,0.5615348219871521,0.5035554766654968,-0.0046106223016977
2023-08-01 15:55:57.423255,23,441,0.6725380420684814,0.6118753552436829,-0.1421247273683548,0.3912821412086487,-0.09423828125,0.94921875,0.294921875,0.5219287872314453,0.718878984451294,-4.6036112166802923e-07,0.4578819572925567,0.6457456946372986,-0.0099745551124215,0.4299505352973938,0.5484311580657959,-0.0149292470887303,0.4584988355636596,0.4683470129966736,-0.026613088324666,0.512140691280365,0.4333097636699676,-0.0358617603778839,0.4783556163311004,0.5004821419715881,0.0312729030847549,0.4745092391967773,0.4227812886238098,0.0067268847487866,0.4640903174877167,0.4669359028339386,-0.0135696940124034,0.4693705439567566,0.510673999786377,-0.0233342163264751,0.5143104195594788,0.4955749213695526,0.0236918106675148,0.5195862650871277,0.4043502807617187,-0.0049218409694731,0.5047911405563354,0.4559502899646759,-0.0225259009748697,0.5074666142463684,0.5081766843795776,-0.0247135814279317,0.5517415404319763,0.4983930885791778,0.0102317966520786,0.5585449934005737,0.3953895270824432,-0.0184069406241178,0.5390554070472717,0.4508541226387024,-0.0205743499100208,0.5390176177024841,0.512103259563446,-0.0106377713382244,0.5917239189147949,0.5127099752426147,-0.0048671653494238,0.5785897374153137,0.434403508901596,-0.0213100556284189,0.5602729320526123,0.4690267741680145,-0.0167632680386304,0.559832751750946,0.5185853838920593,-0.0065675573423504
2023-08-01 15:55:57.470010,24,442,0.6696478128433228,0.6113677620887756,-0.1391213238239288,0.3980533480644226,-0.02734375,0.93505859375,0.337890625,0.5240309238433838,0.7209395170211792,-5.127744771016296e-07,0.4599237442016601,0.6471400856971741,-0.0063237003050744,0.4309949576854706,0.5515209436416626,-0.0100443512201309,0.4593995213508606,0.4759206473827362,-0.0213009491562843,0.5138173699378967,0.4511773288249969,-0.0306511521339416,0.4793145060539245,0.5077230334281921,0.0315785184502601,0.4744946956634521,0.4321147203445434,0.0072065060958266,0.461105465888977,0.4799566566944122,-0.0111407916992902,0.4675238728523254,0.5235641002655029,-0.0196818653494119,0.5151702761650085,0.5027436017990112,0.0220333766192197,0.5163227915763855,0.4126189351081848,-0.0080600585788488,0.5005097985267639,0.4714053273200989,-0.0233411435037851,0.5078448057174683,0.5232747197151184,-0.0229458566755056,0.5530670285224915,0.5045248866081238,0.0069690286181867,0.5537614822387695,0.4063492715358734,-0.0219624694436788,0.5358192920684814,0.4673264026641845,-0.0216368716210126,0.5414846539497375,0.5253221392631531,-0.0095642693340778,0.5944270491600037,0.5175206065177917,-0.0094844987615942,0.576441764831543,0.4429472684860229,-0.0244819819927215,0.5597655773162842,0.4805373251438141,-0.0181655976921319,0.5647314190864563,0.5254193544387817,-0.0069003603421151
2023-08-01 15:55:57.518889,25,443,0.6683385372161865,0.611483097076416,-0.1410180479288101,0.3994069993495941,0.00634765625,0.9287109375,0.3154296875,0.5211218595504761,0.7192450165748596,-5.200826080908882e-07,0.4576694965362549,0.6462472677230835,-0.0035392066929489,0.4288065731525421,0.5538442134857178,-0.0062205088324844,0.4580463767051697,0.4869315028190613,-0.0163666568696498,0.5115159749984741,0.4734960496425628,-0.0250321086496114,0.4773786067962646,0.5076972246170044,0.0279724653810262,0.4710847735404968,0.4352796673774719,0.0021653654985129,0.4564566910266876,0.4867478311061859,-0.0157458111643791,0.4636527597904205,0.5292506814002991,-0.0239150915294885,0.5125685930252075,0.5045746564865112,0.0172465350478887,0.5140523314476013,0.4169942736625671,-0.013768377713859,0.4967321157455444,0.4808037281036377,-0.0269241072237491,0.5053528547286987,0.5290005207061768,-0.0249096676707267,0.5505472421646118,0.5085208415985107,0.0014751391718164,0.5504173040390015,0.414541482925415,-0.0274255163967609,0.5320734977722168,0.4814074635505676,-0.0244282931089401,0.5400251746177673,0.5340943336486816,-0.0108225829899311,0.5923395156860352,0.5248987078666687,-0.0154275288805365,0.5739337205886841,0.455219030380249,-0.0301166549324989,0.5580080151557922,0.4973370134830475,-0.0224140938371419,0.5658507347106934,0.536727249622345,-0.0103543419390916
2023-08-01 15:55:57.577972,26,444,0.6683506369590759,0.6100723147392273,-0.1394435167312622,0.402087926864624,-0.0712890625,0.91943359375,0.3798828125,0.5196548700332642,0.7174162864685059,-5.534824367714464e-07,0.4573027491569519,0.6481854319572449,-0.0039871782064437,0.4296121597290039,0.5546191334724426,-0.0054006981663405,0.4587314128875732,0.4901398420333862,-0.0136728230863809,0.5103219151496887,0.4887162446975708,-0.019917132332921,0.4831664264202118,0.510041356086731,0.0263270698487758,0.477930337190628,0.4397752285003662,-0.0004374099953565,0.4625506401062011,0.4938047528266907,-0.0171852055937051,0.4697093069553375,0.5331228971481323,-0.024319851770997,0.5165374279022217,0.5100874304771423,0.016656270250678,0.5166539549827576,0.4252130687236786,-0.0155533971264958,0.4992405474185943,0.4919132590293884,-0.0259151328355073,0.5099886059761047,0.5338369607925415,-0.0213271342217922,0.5529200434684753,0.5153801441192627,0.0016150930896401,0.5505434274673462,0.4276118278503418,-0.0277972407639026,0.532192587852478,0.4954364895820617,-0.0222358591854572,0.5423787832260132,0.5397258996963501,-0.0066117858514189,0.5940188765525818,0.5314766764640808,-0.0147351929917931,0.5762782692909241,0.4635058641433716,-0.0283872429281473,0.5601675510406494,0.5061085820198059,-0.0194898042827844,0.5696926712989807,0.5402067303657532,-0.0067902184091508
2023-08-01 15:55:57.625786,27,445,0.6678624153137207,0.6098163723945618,-0.1408673077821731,0.4027903974056244,0.02490234375,0.927734375,0.35888671875,0.5205376744270325,0.7226763367652893,-5.706342562916689e-07,0.4588355422019958,0.6520411968231201,-0.0040622944943606,0.4326139390468597,0.5564254522323608,-0.0050446083769202,0.4611726701259613,0.4951775670051574,-0.0124576753005385,0.51114821434021,0.497252345085144,-0.0174729470163583,0.4884489476680755,0.514961838722229,0.0241841655224561,0.4817064702510834,0.4494216442108154,-0.0028555511962622,0.4667604863643646,0.5032649040222168,-0.018723540008068,0.4752192497253418,0.5381803512573242,-0.0256707426160573,0.5197749137878418,0.5156025290489197,0.0148497289046645,0.516595184803009,0.4390708208084106,-0.0178216360509395,0.4999673962593078,0.5062291026115417,-0.0264712739735841,0.5130367279052734,0.54136061668396,-0.0210669487714767,0.5545168519020081,0.5212515592575073,4.909262497676536e-05,0.5483739376068115,0.4416286647319793,-0.0292528588324785,0.531475305557251,0.5091440677642822,-0.0221506971865892,0.5450078845024109,0.5461706519126892,-0.0063008517026901,0.5941547751426697,0.5371072888374329,-0.0162180941551923,0.5743124485015869,0.4747162759304046,-0.0302797835320234,0.5594294667243958,0.5177614688873291,-0.0215282049030065,0.5720065832138062,0.548033595085144,-0.0092937313020229
2023-08-01 15:55:57.682387,28,446,0.6667088270187378,0.6094455122947693,-0.1411188393831253,0.4051677584648132,0.00830078125,0.94091796875,0.36767578125,0.5225724577903748,0.7202045917510986,-5.358037356018031e-07,0.4597629308700561,0.6521328091621399,-0.0039539295248687,0.4324040114879608,0.5601403117179871,-0.005477444268763,0.4608776271343231,0.5008876919746399,-0.0130232358351349,0.5087300539016724,0.5057408213615417,-0.019007358700037,0.486351877450943,0.5208215713500977,0.021366074681282,0.4767763912677765,0.4600380361080169,-0.0038050024304538,0.4641716778278351,0.5104759335517883,-0.0196795258671045,0.4728260636329651,0.5456648468971252,-0.02742874994874,0.5191318988800049,0.5192914605140686,0.0121396891772747,0.5131258964538574,0.4470449984073639,-0.0168345477432012,0.4990074932575226,0.5092935562133789,-0.0248627290129661,0.5125553607940674,0.5439689755439758,-0.0209071692079305,0.5544866323471069,0.5246814489364624,-0.0021973175462335,0.5466594696044922,0.4471930265426636,-0.0289971940219402,0.5307894945144653,0.5106626152992249,-0.0223106294870376,0.5437595844268799,0.5476275086402893,-0.0083673344925045,0.594291090965271,0.5414645075798035,-0.0179271381348371,0.5725178122520447,0.4815253019332886,-0.031998872756958,0.5578460693359375,0.5224099159240723,-0.024094695225358,0.5697761178016663,0.5520643591880798,-0.0132472896948456
2023-08-01 15:55:57.735065,29,447,0.6658505201339722,0.6092770099639893,-0.1404469907283783,0.4070618152618408,0.01318359375,0.93603515625,0.3525390625,0.5236002206802368,0.7249403595924377,-5.543211614167376e-07,0.4610671997070312,0.6594923734664917,-0.0031285490840673,0.4336863160133362,0.5656139254570007,-0.0027450278867036,0.4593393206596374,0.5077046751976013,-0.0081362593919038,0.5028774738311768,0.5134587287902832,-0.0114767104387283,0.4895984828472137,0.5224621891975403,0.0205057580024003,0.4777145087718963,0.4656083583831787,-0.0051309922710061,0.4661003053188324,0.5190052390098572,-0.0188864264637231,0.4768571257591247,0.550271213054657,-0.0249198954552412,0.520348846912384,0.5219124555587769,0.0110514853149652,0.5111024975776672,0.4556775689125061,-0.0184097439050674,0.4973364770412445,0.5205656290054321,-0.0229143127799034,0.5135440826416016,0.5481299161911011,-0.0161220096051692,0.5535268783569336,0.528769850730896,-0.0037859315052628,0.5407270193099976,0.4615024030208587,-0.0316653922200202,0.5259872674942017,0.5272282958030701,-0.0226909127086401,0.5419729948043823,0.5553728938102722,-0.0070377313531935,0.5909960865974426,0.5455439686775208,-0.019939986988902,0.5656974911689758,0.4916847646236419,-0.0344302654266357,0.5517504215240479,0.5353138446807861,-0.0255168471485376,0.5659081339836121,0.5607895851135254,-0.0138329910114407
2023-08-01 15:55:57.783029,30,448,0.6643266081809998,0.6100726127624512,-0.1392648220062255,0.4087625443935394,0.06005859375,0.94677734375,0.30712890625,0.5216138362884521,0.7230086922645569,-5.255481596577738e-07,0.4605331718921661,0.6596698760986328,-0.0036880266852676,0.4318438172340393,0.5671201348304749,-0.0038222486618906,0.4539891183376312,0.5097198486328125,-0.0093698324635624,0.4973875284194946,0.5187427997589111,-0.0124938720837235,0.4871695637702942,0.5219493508338928,0.0205966979265213,0.4749315679073334,0.4650411009788513,-0.0036005824804306,0.4648711085319519,0.5199809074401855,-0.0173542816191911,0.4758961498737335,0.5490900278091431,-0.0241584815084934,0.5186411142349243,0.5215826034545898,0.0112576410174369,0.5080472230911255,0.4550530910491943,-0.0168904084712266,0.4951280951499939,0.519977331161499,-0.0219200756400823,0.5108052492141724,0.5464082360267639,-0.0160115361213684,0.5522343516349792,0.5288228988647461,-0.0033213139977306,0.5389540791511536,0.4602732956409454,-0.0286714173853397,0.5246482491493225,0.5253276228904724,-0.0193102676421403,0.5399232506752014,0.5524222254753113,-0.0043156188912689,0.5901381373405457,0.5460420250892639,-0.0194470882415771,0.5648806095123291,0.4935558438301086,-0.0322267673909664,0.5507685542106628,0.537615954875946,-0.023025507107377,0.5642477869987488,0.5623230338096619,-0.0116358809173107
2023-08-01 15:55:57.828601,31,449,0.6636239290237427,0.6108130812644958,-0.1398622393608093,0.4085940420627594,-0.0771484375,0.91455078125,0.3779296875,0.5194203853607178,0.7223340272903442,-5.416857220552629e-07,0.4592019915580749,0.6598275899887085,-0.0024585169740021,0.4321700930595398,0.5655477643013,-0.0015605500666424,0.4547408819198608,0.5083412528038025,-0.0063206390477716,0.4964969158172607,0.5172652006149292,-0.0090472353622317,0.4885688722133636,0.5202456712722778,0.0215281005948781,0.4760884344577789,0.4642667770385742,-0.0020371577702462,0.46525639295578,0.5181679725646973,-0.0153060546144843,0.4756811261177063,0.5492631196975708,-0.0216300468891859,0.5194887518882751,0.5196748375892639,0.0118539491668343,0.5087890625,0.4537764191627502,-0.0154075501486659,0.4949789345264435,0.5184085369110107,-0.0200526006519794,0.5101540684700012,0.5467084646224976,-0.013963240198791,0.5526304841041565,0.5276119112968445,-0.0029226220212876,0.5386137962341309,0.4591402411460876,-0.0284144971519708,0.5235750675201416,0.5253049731254578,-0.0193329788744449,0.5387004613876343,0.5546106100082397,-0.0044193328358232,0.5898895263671875,0.545693576335907,-0.0190298408269882,0.5634981989860535,0.494020938873291,-0.0329283736646175,0.5491445064544678,0.5382348299026489,-0.024481801316142,0.5628023147583008,0.5637122392654419,-0.0134364459663629
2023-08-01 15:55:57.913711,32,450,0.6635115742683411,0.6132931709289551,-0.1440427750349044,0.4035785496234894,-0.0146484375,0.89306640625,0.3662109375,0.5190982818603516,0.7219975590705872,-5.41044528290513e-07,0.4590100944042206,0.6577191948890686,-0.0018198918551206,0.4326927661895752,0.564708948135376,-0.0006026403862051,0.4542997479438782,0.5081689953804016,-0.005129569210112,0.4949336647987366,0.518496036529541,-0.0075004962272942,0.4889751076698303,0.5198330879211426,0.0229932460933923,0.476701408624649,0.4634556770324707,8.343012268596794e-06,0.4656248390674591,0.5162460207939148,-0.0132868066430091,0.4759656488895416,0.547520101070404,-0.0198632255196571,0.5193148851394653,0.5196052193641663,0.0131556708365678,0.5088768005371094,0.4528213739395141,-0.0137447630986571,0.494913250207901,0.5160527229309082,-0.0186940692365169,0.5098243951797485,0.5445870161056519,-0.0129862008616328,0.5520912408828735,0.5272228121757507,-0.0017547899624332,0.5383789539337158,0.4594484865665436,-0.0261979941278696,0.5232264995574951,0.5230511426925659,-0.0174395721405744,0.538128137588501,0.551242470741272,-0.0031420218292623,0.5888044834136963,0.5452724099159241,-0.0180444307625293,0.5632473230361938,0.493541806936264,-0.0307546127587556,0.5484678149223328,0.5365064144134521,-0.0223522912710905,0.5617380738258362,0.5617657899856567,-0.0117065105587244
2023-08-01 15:55:57.972924,33,451,0.6651648879051208,0.6148396730422974,-0.1406847983598709,0.3996691107749939,0.04736328125,0.97509765625,0.27587890625,0.5193455219268799,0.7146707773208618,-5.24576933003118e-07,0.4582670927047729,0.6515817642211914,-0.0008869253797456,0.4341434240341186,0.5604599118232727,0.0001124229311244,0.4563329517841339,0.5068447589874268,-0.0048508266918361,0.4967350959777832,0.5097895860671997,-0.0078650843352079,0.4878790974617004,0.5139003992080688,0.0223283693194389,0.4758554399013519,0.4575499892234802,-0.0009473950485698,0.4648948311805725,0.5100547075271606,-0.0148230697959661,0.4759259521961212,0.5419543385505676,-0.0217285249382257,0.517859697341919,0.5135859251022339,0.0117998560890555,0.5083337426185608,0.4468802809715271,-0.0155873401090502,0.4945429563522339,0.5105526447296143,-0.021557142958045,0.5105766654014587,0.5386784076690674,-0.0165545213967561,0.5510931611061096,0.5209938287734985,-0.0034834204707294,0.5381734371185303,0.4517164826393127,-0.0282150264829397,0.5226054191589355,0.5154336094856262,-0.0192640256136655,0.5381388068199158,0.5437968969345093,-0.0048974710516631,0.5881896018981934,0.5381224155426025,-0.0200340636074543,0.5626928806304932,0.4862938523292541,-0.0335530936717987,0.5470142960548401,0.5293678045272827,-0.0248711332678794,0.5600451231002808,0.5551016330718994,-0.0138114374130964
2023-08-01 15:55:58.038920,34,452,0.6666754484176636,0.6145013570785522,-0.1352150738239288,0.3995608389377594,-0.0986328125,0.9462890625,0.3505859375,0.5183248519897461,0.7144141793251038,-5.431506338027248e-07,0.4571735858917236,0.6487702131271362,0.0001616665831534,0.4342565536499023,0.5584656000137329,0.0022333560045808,0.4591202437877655,0.5048477649688721,-0.0018811840564012,0.5024206042289734,0.5033891201019287,-0.0042127463966608,0.4880585968494415,0.5143802165985107,0.0246261022984981,0.4756378829479217,0.4579166769981384,0.0015517412684857,0.4631107151508331,0.5091029405593872,-0.012413308955729,0.4747234880924225,0.5396432876586914,-0.0192732065916061,0.5178225636482239,0.5141241550445557,0.0140947569161653,0.5094186067581177,0.4431518614292145,-0.0138980224728584,0.4934072494506836,0.5081326365470886,-0.020774807780981,0.5092657208442688,0.5385558009147644,-0.0156379118561744,0.5511330962181091,0.5207000970840454,-0.0010218089446425,0.5388284921646118,0.4468008279800415,-0.0267449673265218,0.5211569666862488,0.5136057138442993,-0.0189517922699451,0.5371562242507935,0.5458016395568848,-0.0043911137618124,0.5888723134994507,0.5368552803993225,-0.0171332173049449,0.5627045035362244,0.4833587408065796,-0.0317998975515365,0.5467914342880249,0.527404248714447,-0.0239147040992975,0.561233639717102,0.554608166217804,-0.0126544935628771
2023-08-01 15:55:58.100229,35,453,0.6661057472229004,0.6155033111572266,-0.1350458860397339,0.399025559425354,-0.0087890625,0.90869140625,0.33837890625,0.5169690251350403,0.7028738260269165,-4.2432370150891074e-07,0.4548555016517639,0.6410001516342163,-0.0053675393573939,0.432036280632019,0.5578196048736572,-0.0057643339969217,0.45428466796875,0.4919169247150421,-0.0131009826436638,0.4930213093757629,0.4508958458900451,-0.0179979316890239,0.4897150099277496,0.5135069489479065,0.0404277704656124,0.4931217730045318,0.4448036551475525,0.0222777500748634,0.4746240675449371,0.4845567941665649,0.0057148090563714,0.4751755595207214,0.5269577503204346,-0.002500872593373,0.5192680954933167,0.507327675819397,0.0327536240220069,0.5251389741897583,0.4215030372142792,0.0099108694121241,0.5031790733337402,0.4709832072257995,-0.0041929488070309,0.5051518678665161,0.5233272314071655,-0.0044407215900719,0.5519319176673889,0.5089181065559387,0.0193192493170499,0.5540069341659546,0.4139837622642517,-0.005340970121324,0.5317201018333435,0.466339111328125,-0.0046642590314149,0.533429741859436,0.524411141872406,0.0064684585668146,0.5881280899047852,0.5219407081604004,0.004518502857536,0.5771349668502808,0.4457710683345794,-0.0119945872575044,0.5553529858589172,0.4819391965866089,-0.006221953779459,0.5535066723823547,0.5335019826889038,0.0050331065431237
2023-08-01 15:55:58.156982,36,454,0.6673833131790161,0.6149495244026184,-0.1367303431034088,0.3971665799617767,0.107421875,0.943359375,0.310546875,0.5198060870170593,0.7060012221336365,-3.7349516901485913e-07,0.45369553565979,0.6521492004394531,-0.0095110489055514,0.4265957176685333,0.5713661909103394,-0.0105524640530347,0.4396164119243622,0.4941012561321258,-0.0174955390393733,0.4686598181724548,0.4417650997638702,-0.0212249923497438,0.4960576593875885,0.5070367455482483,0.035973597317934,0.5045385360717773,0.428543746471405,0.018104325979948,0.4829606711864471,0.4431347846984863,0.0016286933096125,0.4767554700374603,0.4829220175743103,-0.0058876387774944,0.5255082249641418,0.5009633898735046,0.0304716061800718,0.5391197204589844,0.4067883789539337,0.0084151066839694,0.5115145444869995,0.4348162114620209,-0.0069392207078635,0.5044295191764832,0.4868214428424835,-0.0086175734177231,0.5567786693572998,0.5035250186920166,0.0190036315470933,0.5684546232223511,0.4059070646762848,-0.0013619182864204,0.5411714911460876,0.4358991384506225,-0.0051811998710036,0.5365121960639954,0.489734947681427,0.0010976054472848,0.5925800204277039,0.5159844160079956,0.0054385219700634,0.593313992023468,0.4358029365539551,-0.0069676972925662,0.5680383443832397,0.451209008693695,-0.004903232678771,0.5588808059692383,0.4963124990463257,0.0023662880994379
2023-08-01 15:55:58.216323,37,455,0.6695530414581299,0.6124427318572998,-0.134048119187355,0.3983011245727539,-0.01806640625,0.93701171875,0.3544921875,0.5194507837295532,0.7151777744293213,-1.9580616594794265e-07,0.4519123435020447,0.6614733338356018,-0.0096365679055452,0.4206920564174652,0.5802040696144104,-0.0070362254045903,0.4292368292808532,0.4986767470836639,-0.0093656666576862,0.4514726996421814,0.4415667653083801,-0.0088280197232961,0.4996652603149414,0.5080834627151489,0.0483179539442062,0.4991820752620697,0.4421687126159668,0.0398126728832721,0.4823605418205261,0.4228696227073669,0.0234508011490106,0.4706602096557617,0.4325351119041443,0.0140214571729302,0.5321434736251831,0.4970229864120483,0.0446927994489669,0.5375852584838867,0.4153099060058594,0.0374277830123901,0.5206873416900635,0.4010234475135803,0.0207075402140617,0.5098330974578857,0.4263536632061004,0.0126497074961662,0.5636261105537415,0.4974138438701629,0.034507293254137,0.5727279186248779,0.4126439392566681,0.0268428213894367,0.5540967583656311,0.3970427215099334,0.0178526230156421,0.5438404679298401,0.4241800010204315,0.0156594607979059,0.5987892150878906,0.5098249912261963,0.0215455163270235,0.6039217710494995,0.4377082288265228,0.0160123258829116,0.5833045840263367,0.4184085428714752,0.0139038786292076,0.56660395860672,0.439159095287323,0.0156620386987924
2023-08-01 15:55:58.281844,38,456,0.6717853546142578,0.610350489616394,-0.1326685547828674,0.3982158601284027,0.0283203125,0.8974609375,0.32275390625,0.5172119140625,0.7097722887992859,-2.060135102510685e-07,0.4533537626266479,0.6623213291168213,-0.0154826138168573,0.419805109500885,0.5809562802314758,-0.0180921982973814,0.4218060076236725,0.5013841986656189,-0.0244254618883132,0.4393357634544372,0.4415318071842193,-0.0268857516348361,0.4983532428741455,0.4977198839187622,0.0287812259048223,0.4977433681488037,0.4170534908771515,0.0089062433689832,0.4868716597557068,0.4034242630004883,-0.0115789882838726,0.4804505407810211,0.4299420714378357,-0.0204984974116086,0.5329471826553345,0.4890759885311126,0.0262961629778146,0.539129376411438,0.3939232230186462,0.0078151710331439,0.5230541825294495,0.3900047838687897,-0.010684217326343,0.5131327509880066,0.4350494146347046,-0.0162580553442239,0.5650890469551086,0.492083728313446,0.017347689718008,0.5756258964538574,0.4013780355453491,0.0021927969064563,0.5557917952537537,0.3945923447608948,-0.0070187835954129,0.5457348823547363,0.4344892799854278,-0.0062874294817447,0.6005594730377197,0.5070387125015259,0.0054248049855232,0.6111012101173401,0.4311990439891815,-0.0041092508472502,0.591225802898407,0.407284677028656,-0.0073965033516287,0.5727201700210571,0.4261894524097442,-0.0044669397175312
2023-08-01 15:55:58.341900,39,457,0.6743552684783936,0.6081980466842651,-0.132715955376625,0.397147923707962,0.12353515625,0.923828125,0.3046875,0.5129858255386353,0.7120664119720459,-1.648348444405201e-07,0.4521550834178924,0.6561784148216248,-0.0107418773695826,0.4170389771461487,0.5782492756843567,-0.0109396083280444,0.4136712551116943,0.5009622573852539,-0.015308161266148,0.427385926246643,0.4405442774295807,-0.0160273741930723,0.5043696761131287,0.4933467507362366,0.0377784967422485,0.5002029538154602,0.416677862405777,0.0234170760959386,0.4839538335800171,0.3848963975906372,0.0025579796638339,0.4659420549869537,0.3855267167091369,-0.0085498625412583,0.5364946126937866,0.4846152365207672,0.0342706516385078,0.5402249693870544,0.3957289457321167,0.0240326281636953,0.5238457322120667,0.3671305179595947,0.0054343482479453,0.5052154660224915,0.3861502408981323,-0.0035477790515869,0.5698314905166626,0.4883482754230499,0.0245085638016462,0.5781866312026978,0.4012473523616791,0.0165182463824749,0.5633204579353333,0.3735783696174621,0.0069591901265084,0.5454290509223938,0.3954336941242218,0.0048887059092521,0.6055936813354492,0.5016061067581177,0.0116390977054834,0.6184008717536926,0.4326775670051574,0.0057784765958786,0.6046454310417175,0.3955746293067932,0.0017413009190931,0.583610475063324,0.399827241897583,0.0029666854534298
2023-08-01 15:55:58.400879,40,458,0.6764040589332581,0.6055711507797241,-0.1301537156105041,0.3985236585140228,-0.08203125,0.9052734375,0.453125,0.5131129622459412,0.7036789059638977,1.521988224340021e-07,0.4513515830039978,0.6572076082229614,-0.0164833050221204,0.4162337779998779,0.5731582045555115,-0.021495021879673,0.4063820540904999,0.5012668967247009,-0.0266826692968606,0.4015269875526428,0.4435543417930603,-0.0311035048216581,0.5009509921073914,0.4718413650989532,0.0010131282033398,0.4943996965885162,0.3878555297851562,-0.0120398513972759,0.4861877858638763,0.3331547975540161,-0.0275052990764379,0.4791326820850372,0.2843976020812988,-0.0399858281016349,0.5414741039276123,0.4619923233985901,-0.0046122786588966,0.5397582054138184,0.3661739230155945,-0.0164893995970487,0.5323562026023865,0.2996722459793091,-0.0313730537891387,0.5246210098266602,0.2427897751331329,-0.0427659787237644,0.5770499110221863,0.4713009893894195,-0.014373118057847,0.5908014178276062,0.3811372816562652,-0.0283034201711416,0.5894367098808289,0.3176493644714355,-0.0409332104027271,0.5847381949424744,0.2604420781135559,-0.0501931682229042,0.6084790229797363,0.496438056230545,-0.0263421833515167,0.6338077783584595,0.4264938235282898,-0.0401661172509193,0.6419485211372375,0.3744195997714996,-0.0476095043122768,0.643561601638794,0.3238673806190491,-0.0526410676538944
2023-08-01 15:55:58.449024,41,459,0.6787055134773254,0.6034685969352722,-0.13030506670475,0.3977499306201935,-0.07421875,0.919921875,0.380859375,0.51157146692276,0.7061057090759277,1.5027580957394093e-07,0.4518442451953888,0.6549517512321472,-0.0152760408818721,0.4157259464263916,0.5700182318687439,-0.0195464994758367,0.4015994966030121,0.5002633333206177,-0.0245521049946546,0.3974035978317261,0.4455671310424804,-0.0287720561027526,0.5026154518127441,0.4660332500934601,0.0032660805154591,0.4935187995433807,0.379848450422287,-0.0093027893453836,0.4860484600067138,0.3242075741291046,-0.024275530129671,0.4811306595802307,0.2747300863265991,-0.0364487506449222,0.5428236126899719,0.4567193388938904,-0.003633385291323,0.5416179299354553,0.3542413115501404,-0.0148220537230372,0.5377844572067261,0.2851091623306274,-0.0295235123485326,0.5336484909057617,0.226255714893341,-0.0410105660557746,0.578512966632843,0.4664292633533478,-0.0148494448512792,0.5938170552253723,0.3721051812171936,-0.0291330274194479,0.595554769039154,0.3070262670516968,-0.0432823896408081,0.5931315422058105,0.2507836520671844,-0.0534233003854751,0.6090823411941528,0.491165280342102,-0.0282902233302593,0.6400241255760193,0.4200240969657898,-0.0425849184393882,0.6551528573036194,0.3668515086174011,-0.0516696013510227,0.6635571718215942,0.3168303966522217,-0.0580043606460094
2023-08-01 15:55:58.494993,42,460,0.6795236468315125,0.603676438331604,-0.1314529478549957,0.3956545889377594,0.0712890625,0.93896484375,0.3818359375,0.5154945254325867,0.714001476764679,1.579331154744068e-07,0.4552541673183441,0.6627523303031921,-0.0143735650926828,0.4165533483028412,0.5756936073303223,-0.0179183613508939,0.399830549955368,0.5062682032585144,-0.0226015429943799,0.39007568359375,0.4522944390773773,-0.026700921356678,0.5015976428985596,0.4627611041069031,0.0054911249317228,0.4920295774936676,0.3752456307411194,-0.005625766236335,0.4846923947334289,0.3191023468971252,-0.0198516715317964,0.4805812537670135,0.2689796686172485,-0.0318134427070617,0.5423488616943359,0.4537266790866852,-0.0020280231256037,0.5433912873268127,0.350211352109909,-0.0121257063001394,0.5408554077148438,0.2797694802284241,-0.0265708453953266,0.538033127784729,0.2197202444076538,-0.038194503635168,0.5778236985206604,0.464110404253006,-0.0138786677271127,0.5945621132850647,0.3683364391326904,-0.0268720462918281,0.5974583625793457,0.303119421005249,-0.0411209128797054,0.5963309407234192,0.2475435137748718,-0.0517475642263889,0.6078844666481018,0.4894588887691498,-0.0280753821134567,0.6396617889404297,0.4193664789199829,-0.0411751344799995,0.6571365594863892,0.3656774461269378,-0.0504403635859489,0.6689634323120117,0.3158391118049621,-0.0572803393006324
2023-08-01 15:55:58.541457,43,461,0.6809689402580261,0.6032373309135437,-0.1314380764961242,0.3938401937484741,-0.0703125,0.93994140625,0.3349609375,0.5150734186172485,0.7181481122970581,2.0423151170234632e-07,0.4543246030807495,0.6660750508308411,-0.0136439753696322,0.415825217962265,0.5798324942588806,-0.0169055815786123,0.3981125354766845,0.5110443830490112,-0.0215159989893436,0.3858406841754913,0.4574075043201446,-0.0256564673036336,0.5004093647003174,0.4585381746292114,0.007919043302536,0.4922948777675628,0.3715314865112304,-0.0020554175134748,0.4867066442966461,0.3162828683853149,-0.016076548025012,0.4847307205200195,0.2670741379261017,-0.0281856842339038,0.5417524576187134,0.4497995972633362,-0.0003232343296986,0.5459681749343872,0.345661997795105,-0.0091434745118021,0.546503484249115,0.2757045030593872,-0.0234536752104759,0.546139121055603,0.2167725563049316,-0.0353392548859119,0.5771068334579468,0.4614665508270263,-0.0130293620750308,0.5978739261627197,0.366287887096405,-0.0252453237771987,0.6050592064857483,0.3010925054550171,-0.040137518197298,0.6075009107589722,0.2447701692581176,-0.0518263839185237,0.6065970063209534,0.4890742003917694,-0.0280250255018472,0.6417372822761536,0.4217197000980377,-0.0406715236604213,0.6610261797904968,0.3694920837879181,-0.0501782484352588,0.6744870543479919,0.3201497793197632,-0.0577103495597839
2023-08-01 15:55:58.589102,44,462,0.681922435760498,0.6043896079063416,-0.1349885165691375,0.3891954720020294,0.0107421875,0.9296875,0.3798828125,0.5144020318984985,0.7223454713821411,2.272325474450554e-07,0.4543289244174957,0.6679580807685852,-0.0135803828015923,0.4157349765300751,0.5818089842796326,-0.0171401221305131,0.3962068259716034,0.5149727463722229,-0.0220956709235906,0.3810034990310669,0.46275794506073,-0.0268831923604011,0.4984953701496124,0.4564308524131775,0.0081411739811301,0.490649402141571,0.3685360550880432,-0.0016017238376662,0.4858342707157135,0.3130276203155517,-0.0156950764358043,0.4848495721817016,0.263788104057312,-0.0278797801584005,0.5405523180961609,0.447763592004776,-0.000374496972654,0.5472155213356018,0.3425086140632629,-0.0083468575030565,0.5498228669166565,0.2732179760932922,-0.0223595555871725,0.5512934327125549,0.2156814336776733,-0.0342378802597522,0.5766391158103943,0.4600669741630554,-0.0133929122239351,0.6015997529029846,0.3644664883613586,-0.0251885503530502,0.6114985346794128,0.2984168529510498,-0.0405567921698093,0.6163305640220642,0.241001695394516,-0.052903089672327,0.6061933040618896,0.4893037974834442,-0.0286220237612724,0.6439721584320068,0.423151433467865,-0.0411709174513816,0.6651158928871155,0.3723815679550171,-0.0505163073539733,0.680635929107666,0.3241955637931824,-0.0581129342317581
2023-08-01 15:55:58.638326,45,463,0.6840097308158875,0.6036881804466248,-0.1368277221918106,0.385965496301651,0.01513671875,0.90380859375,0.42138671875,0.5135883092880249,0.7266198396682739,2.395902356511215e-07,0.4531262516975403,0.6713665127754211,-0.0123979924246668,0.4156269431114197,0.5835005044937134,-0.0152215790003538,0.394827127456665,0.5175071954727173,-0.0195896476507186,0.3738550841808319,0.4689842760562897,-0.0243069529533386,0.4978869557380676,0.4527454376220703,0.0093838199973106,0.491336315870285,0.3650476634502411,0.0008441890240646,0.4882197082042694,0.3100978434085846,-0.012747349217534,0.4888598322868347,0.2613804340362549,-0.0249256286770105,0.5398286581039429,0.444745272397995,0.0001882322394521,0.5484744310379028,0.3390258252620697,-0.0063665322959423,0.5532650947570801,0.2709493935108185,-0.0197827704250812,0.5566822290420532,0.2152547836303711,-0.0315954312682151,0.576117753982544,0.459211528301239,-0.0134518314152956,0.6042412519454956,0.3638947010040283,-0.0250534322112798,0.6176506280899048,0.2983957529067993,-0.0409443005919456,0.6259381771087646,0.2400997281074524,-0.0540363453328609,0.6055240035057068,0.4912988841533661,-0.0290877912193536,0.6456151008605957,0.4261044859886169,-0.0426752790808677,0.6694825291633606,0.3775928318500519,-0.0526966415345668,0.6880557537078857,0.3306872248649597,-0.0609510242938995
2023-08-01 15:55:58.695752,46,464,0.6873086094856262,0.6028692126274109,-0.1438062787055969,0.3787813484668731,-0.025390625,0.900390625,0.37939453125,0.5131114721298218,0.730397641658783,3.8214525943658373e-07,0.4495633244514465,0.6768134832382202,-0.0119123654440045,0.4095177948474884,0.5846052169799805,-0.0122588146477937,0.3825300335884094,0.5222084522247314,-0.0137853566557168,0.3535328507423401,0.4856007397174835,-0.0156248649582266,0.493201345205307,0.4403649568557739,0.0105773257091641,0.4915610551834106,0.3468210101127624,0.0058352234773337,0.4917168617248535,0.2894892692565918,-0.0039229807443916,0.4945327639579773,0.2409563660621643,-0.0133459251374006,0.5373738408088684,0.4349691271781921,0.0022426201030611,0.5560685396194458,0.326346606016159,0.0016883095959201,0.5681670904159546,0.2584732472896576,-0.0052748816087841,0.5768478512763977,0.2062095999717712,-0.01219720300287,0.5757745504379272,0.4544520676136017,-0.0108970357105135,0.6109455823898315,0.3583851456642151,-0.018826201558113,0.6310899257659912,0.299241840839386,-0.0304756052792072,0.6460496187210083,0.2471082806587219,-0.0402330867946147,0.6057652831077576,0.4916187524795532,-0.0263042524456977,0.6519606113433838,0.4304485023021698,-0.0398576222360134,0.6817947030067444,0.3889448642730713,-0.0491686277091503,0.7078542709350586,0.3488369584083557,-0.0559956133365631
2023-08-01 15:55:58.744005,47,465,0.6879717707633972,0.603644847869873,-0.1502457112073898,0.3738099932670593,-0.0576171875,0.91943359375,0.380859375,0.5150421261787415,0.7353499531745911,3.3737183002813254e-07,0.4525226950645447,0.6799332499504089,-0.0134951416403055,0.4109322130680084,0.5882195234298706,-0.0155016668140888,0.3846838474273681,0.5247377157211304,-0.0186777617782354,0.3571175932884216,0.4831534326076507,-0.0222512856125831,0.4942884445190429,0.4416435062885284,0.0091788163408637,0.4916895925998688,0.349134087562561,0.0022274821531027,0.4915004968643188,0.2919408082962036,-0.0098483422771096,0.4938142299652099,0.2424026429653167,-0.0211502853780984,0.5386320948600769,0.4347915351390838,0.0006110261892899,0.5566012263298035,0.3258735537528991,-0.0023388729896396,0.5675681233406067,0.2584905624389648,-0.0120018664747476,0.5757906436920166,0.2041327059268951,-0.0214338153600692,0.5771581530570984,0.4533582031726837,-0.012916880659759,0.6118513941764832,0.3564415276050567,-0.0226691849529743,0.6318920850753784,0.2956477403640747,-0.035903338342905,0.6469631195068359,0.2408368438482284,-0.0473395735025405,0.6071866750717163,0.4909668862819671,-0.0288298316299915,0.65195631980896,0.4293994307518005,-0.0426755808293819,0.6815721988677979,0.3875490427017212,-0.0517820380628109,0.7076663374900818,0.3464285135269165,-0.0591564401984214
2023-08-01 15:55:58.794191,48,466,0.6888155937194824,0.602266788482666,-0.1507353484630584,0.3742813766002655,-0.08642578125,0.9052734375,0.45751953125,0.5126773118972778,0.7353654503822327,3.799968339990301e-07,0.4503714442253113,0.6787114143371582,-0.0158145260065794,0.4083121716976166,0.587630033493042,-0.0195081904530525,0.3809781968593597,0.5254834890365601,-0.0239444002509117,0.351547509431839,0.4853086769580841,-0.02867092192173,0.4914436936378479,0.4393591284751892,0.005855509545654,0.489261120557785,0.3446597456932068,-0.0016932672588154,0.4894091188907623,0.2865065932273865,-0.0135011244565248,0.4919646680355072,0.2365826964378357,-0.0243677422404289,0.5372281670570374,0.4335523247718811,-0.0019658876117318,0.5567610859870911,0.3235645890235901,-0.0050337230786681,0.5683111548423767,0.2560394704341888,-0.0141950938850641,0.5770362019538879,0.2022403478622436,-0.0231774039566516,0.576081395149231,0.4528295695781708,-0.0149016790091991,0.6118918061256409,0.3567307591438293,-0.0245464015752077,0.6314219236373901,0.2962973713874817,-0.0371792279183864,0.6458775997161865,0.2419700026512146,-0.0481538400053978,0.6059576272964478,0.4909162223339081,-0.0304630100727081,0.6512787342071533,0.430153340101242,-0.043749526143074,0.6803801655769348,0.3878660500049591,-0.0523691661655902,0.7057293653488159,0.3461281061172485,-0.0594338253140449
