Timestamp,Index,Frame ID,w,x,y,z,ax,ay,az,x_0,y_0,z_0,x_1,y_1,z_1,x_2,y_2,z_2,x_3,y_3,z_3,x_4,y_4,z_4,x_5,y_5,z_5,x_6,y_6,z_6,x_7,y_7,z_7,x_8,y_8,z_8,x_9,y_9,z_9,x_10,y_10,z_10,x_11,y_11,z_11,x_12,y_12,z_12,x_13,y_13,z_13,x_14,y_14,z_14,x_15,y_15,z_15,x_16,y_16,z_16,x_17,y_17,z_17,x_18,y_18,z_18,x_19,y_19,z_19,x_20,y_20,z_20
2023-08-01 15:55:41.011042,0,140,0.6735215187072754,0.6178349852561951,-0.1292741894721985,0.3846254050731659,-0.0361328125,0.9169921875,0.38623046875,0.5035916566848755,0.753926157951355,3.093918792274053e-07,0.4423959255218506,0.6985064744949341,-0.0134832011535763,0.3956348299980163,0.5996887683868408,-0.0147515125572681,0.3651977181434631,0.5256712436676025,-0.0175386779010295,0.3313626945018768,0.4829813241958618,-0.0205427184700965,0.4568103849887848,0.4544547200202942,0.0104388017207384,0.4374988377094269,0.3586620986461639,0.0025278597604483,0.4279006123542785,0.299656867980957,-0.0091245900839567,0.4242571890354156,0.2486445903778076,-0.0198544450104236,0.5036638975143433,0.443449854850769,0.001390274381265,0.5049759745597839,0.3303364813327789,-0.0024173869751393,0.5058572888374329,0.2599173486232757,-0.0123177338391542,0.5056569576263428,0.2025037407875061,-0.0213485285639762,0.5464632511138916,0.4604649543762207,-0.0127111049368977,0.5671073794364929,0.3580546081066131,-0.0239228941500186,0.5783640742301941,0.2908130884170532,-0.037905815988779,0.5853532552719116,0.2309261858463287,-0.0495035015046596,0.5825039744377136,0.4986626207828522,-0.0290262978523969,0.6210322380065918,0.4334809780120849,-0.0433968007564544,0.6474636793136597,0.3876262903213501,-0.0526021011173725,0.6704103946685791,0.3432224988937378,-0.0598951876163482
2023-08-01 15:55:41.057087,1,141,0.672735869884491,0.6187337040901184,-0.1296318769454956,0.3844355940818786,-0.0224609375,0.90087890625,0.39306640625,0.503913164138794,0.7518864870071411,3.193650570665341e-07,0.4429320394992828,0.6968843340873718,-0.012977534905076,0.3953324258327484,0.5980268120765686,-0.0135805020108819,0.3643364310264587,0.525555431842804,-0.0155293960124254,0.3311567306518554,0.483783483505249,-0.0176541805267334,0.4574829339981079,0.4519959092140198,0.0108020845800638,0.4393142163753509,0.3564134538173675,0.0034498018212616,0.4307104051113128,0.2979204654693603,-0.0080579491332173,0.4277703166007995,0.2475634813308715,-0.0187246557325124,0.5044013857841492,0.4423306882381439,0.0018836101517081,0.5059493184089661,0.3281784057617187,-0.0014962955610826,0.5080097317695618,0.2563841938972473,-0.0115963080897927,0.508768618106842,0.1980525553226471,-0.0209730230271816,0.5473415851593018,0.4600717425346374,-0.012015139684081,0.5677512884140015,0.357881486415863,-0.0223881006240844,0.5791078805923462,0.2902860045433044,-0.0369162745773792,0.5856602787971497,0.2301947772502899,-0.049208328127861,0.5838556289672852,0.4980951249599457,-0.0280423294752836,0.6219176054000854,0.4328691363334656,-0.0413875766098499,0.6474018692970276,0.3866380453109741,-0.05065393820405,0.6694290637969971,0.3417449593544006,-0.0583731904625892
2023-08-01 15:55:41.106825,2,142,0.6716932654380798,0.6196696162223816,-0.1284515261650085,0.3851467967033386,-0.0234375,0.92822265625,0.35888671875,0.503539502620697,0.7499401569366455,3.080977251102013e-07,0.4426921010017395,0.696185290813446,-0.0134488763287663,0.3946287930011749,0.5976961851119995,-0.0141088059172034,0.3639267683029175,0.5248496532440186,-0.0159656107425689,0.3310884833335876,0.482183575630188,-0.0179464258253574,0.4572018384933471,0.4516446888446808,0.0097556347027421,0.4392603635787964,0.3562965393066406,0.0019240255933254,0.4304583668708801,0.2980332374572754,-0.0097246849909424,0.4272009432315826,0.2479764521121978,-0.0203481577336788,0.5040370225906372,0.4413898289203644,0.0013053693110123,0.5056702494621277,0.3275724947452545,-0.0024226957466453,0.5077134966850281,0.2558588087558746,-0.012503944337368,0.5084013342857361,0.1979444622993469,-0.021779928356409,0.5469645857810974,0.4585043489933014,-0.0121286930516362,0.5679008960723877,0.357475608587265,-0.0226703509688377,0.5793907642364502,0.2910558581352234,-0.0370236933231353,0.5858464241027832,0.2323366105556488,-0.049025721848011,0.5833815336227417,0.496059238910675,-0.0277201253920793,0.6217007040977478,0.4315379858016968,-0.041170384734869,0.6472071409225464,0.3854845464229584,-0.0504603683948516,0.6691265106201172,0.3409022390842438,-0.058058887720108
2023-08-01 15:55:41.170854,3,143,0.6723848581314087,0.6187589168548584,-0.1262572258710861,0.3861284554004669,-0.02880859375,0.9140625,0.361328125,0.5055821537971497,0.7453087568283081,3.724776433955413e-07,0.4440740644931793,0.6924005746841431,-0.0206591673195362,0.3950104713439941,0.5996105670928955,-0.026616733521223,0.3598349690437317,0.530418336391449,-0.032559935003519,0.3251667320728302,0.4872907400131225,-0.0382521115243434,0.4613777697086334,0.4518104195594787,0.001482497784309,0.4469955265522003,0.3561323285102844,-0.0100345164537429,0.4398556351661682,0.2962181568145752,-0.023884167894721,0.4375914633274078,0.2445164620876312,-0.0356080345809459,0.5086739659309387,0.4421320557594299,-0.0044745211489498,0.5137866139411926,0.3288732767105102,-0.0105848275125026,0.5171666145324707,0.2578195333480835,-0.0204453021287918,0.5189046263694763,0.2007042169570922,-0.0292246062308549,0.5513752698898315,0.460109531879425,-0.0160831026732921,0.5721234679222107,0.36054527759552,-0.0282836649566888,0.58256995677948,0.2940639853477478,-0.0405859388411045,0.5880462527275085,0.2347750067710876,-0.0506745316088199,0.587579071521759,0.497791975736618,-0.0306440964341163,0.6248809695243835,0.431630402803421,-0.0449113063514232,0.648602306842804,0.3846690654754638,-0.052891619503498,0.6689435243606567,0.3387036323547363,-0.0591270551085472
2023-08-01 15:55:41.228796,4,144,0.6728020310401917,0.6179426312446594,-0.1245383471250534,0.3872652947902679,-0.07763671875,0.92431640625,0.37451171875,0.5054677128791809,0.74396812915802,3.558488117505476e-07,0.4450895488262176,0.6926107406616211,-0.0216701161116361,0.3958078622817993,0.6012097597122192,-0.0296741444617509,0.3603206276893616,0.5308976769447327,-0.0373793616890907,0.3247280418872833,0.486082524061203,-0.0450825504958629,0.4625917375087738,0.4543314576148987,-0.0030058415140956,0.4480614364147186,0.3585014343261719,-0.016569260507822,0.4406367242336273,0.2987367510795593,-0.0321409702301025,0.4377374649047851,0.2465710639953613,-0.0452281460165977,0.5097969770431519,0.4436478018760681,-0.0093518933281302,0.5151894092559814,0.3301650285720825,-0.0182547159492969,0.5179063081741333,0.2586275339126587,-0.0306345466524362,0.5186468958854675,0.2007839381694793,-0.041426982730627,0.5519624948501587,0.4603232443332672,-0.0210231337696313,0.5734047889709473,0.359281837940216,-0.0352857150137424,0.5828847885131836,0.2919637560844421,-0.0490724518895149,0.5872306823730469,0.2316722273826599,-0.0603712312877178,0.5872673392295837,0.4970760345458984,-0.0355239361524581,0.6240056753158569,0.4293704628944397,-0.0511052496731281,0.6470175385475159,0.3811177611351013,-0.0597215555608272,0.6660749912261963,0.3340679407119751,-0.0666178241372108
2023-08-01 15:55:41.275962,5,145,0.6734580993652344,0.6172347664833069,-0.1241717338562011,0.3873717784881592,-0.04248046875,0.9189453125,0.38720703125,0.5071370005607605,0.7480618953704834,3.279928364463558e-07,0.4459308087825775,0.6961454153060913,-0.0202475488185882,0.3962521851062774,0.600016176700592,-0.027218384668231,0.3604304790496826,0.5265052914619446,-0.0342387780547142,0.3235916793346405,0.4824887812137604,-0.0413523241877555,0.4633849561214447,0.4563072919845581,-0.000430348503869,0.4480240941047668,0.3611080944538116,-0.013812649063766,0.4398489892482757,0.3017435669898987,-0.0297970697283744,0.4361823499202728,0.2492192685604095,-0.0434341952204704,0.5099852085113525,0.4448738098144531,-0.0076265237294137,0.5141133666038513,0.3316658735275268,-0.0169531945139169,0.5161710381507874,0.2594075798988342,-0.0302947498857975,0.5164424777030945,0.2000173330307006,-0.0418707393109798,0.5518079400062561,0.4605172574520111,-0.0200492683798074,0.5728921890258789,0.3585302531719208,-0.0344734713435173,0.5820385217666626,0.2905988693237304,-0.0488858930766582,0.5861837863922119,0.22978276014328,-0.0607309266924858,0.5870679616928101,0.4964190721511841,-0.0352042764425277,0.6228984594345093,0.4269508123397827,-0.0506472773849964,0.6454561352729797,0.3771151900291443,-0.059504434466362,0.6639102101325989,0.3287264704704284,-0.0667944326996803
2023-08-01 15:55:41.337224,6,146,0.6730514764785767,0.6172566413879395,-0.1242373511195182,0.3880219757556915,-0.09423828125,0.9111328125,0.4443359375,0.5056897401809692,0.7435181140899658,3.200958360594086e-07,0.4447500705718994,0.691469669342041,-0.0220518093556165,0.3950998485088348,0.5975008010864258,-0.0301129110157489,0.361160933971405,0.5247371196746826,-0.0379852429032325,0.3253676295280456,0.4788513481616974,-0.0460456907749176,0.4631093740463257,0.4576355814933777,-0.0026734916027635,0.448209285736084,0.3630470633506775,-0.0165136270225048,0.440215528011322,0.3040423691272735,-0.0328106954693794,0.4369615316390991,0.2510425448417663,-0.0466641597449779,0.5098444223403931,0.4469207525253296,-0.008996550925076,0.5141460299491882,0.3344643712043762,-0.0192345697432756,0.515937089920044,0.2627074718475342,-0.0337625071406364,0.5165128707885742,0.2023986577987671,-0.0464621670544147,0.550916850566864,0.461709201335907,-0.0205485746264457,0.5710833668708801,0.362939178943634,-0.035448245704174,0.5787362456321716,0.2960439324378967,-0.0507036335766315,0.5810763835906982,0.2357693016529083,-0.0631697624921798,0.5861579179763794,0.4952569007873535,-0.0349423699080944,0.6193625330924988,0.4242525100708008,-0.0499265901744365,0.6392457485198975,0.3731428384780884,-0.0588782019913196,0.6541686058044434,0.3232796788215637,-0.0665818974375724
2023-08-01 15:55:41.386753,7,147,0.6727670431137085,0.6173936128616333,-0.1245002821087837,0.388213038444519,-0.0380859375,0.9365234375,0.36865234375,0.5050172209739685,0.7436873316764832,2.629913637974824e-07,0.4428579211235046,0.6888319849967957,-0.0189548600465059,0.3952425420284271,0.5927737951278687,-0.0252720806747674,0.3639039397239685,0.5183613300323486,-0.0322713106870651,0.3296958804130554,0.4690765142440796,-0.0396077781915664,0.4646286368370056,0.4601225256919861,0.0025992456357926,0.4494724571704864,0.3668071627616882,-0.0107362559065222,0.439771294593811,0.3088369965553283,-0.0273978374898433,0.4338899254798889,0.2552235722541809,-0.0416654385626316,0.5101790428161621,0.4495043158531189,-0.0051776859909296,0.5137411952018738,0.3387719988822937,-0.0149974254891276,0.5135773420333862,0.2664268612861633,-0.0303722117096185,0.511290431022644,0.2044301927089691,-0.0438764207065105,0.5499674081802368,0.4633013606071472,-0.0180785171687603,0.5687852501869202,0.366292804479599,-0.0314883813261985,0.5742162466049194,0.29971843957901,-0.0463632084429264,0.5736578106880188,0.2399699687957763,-0.0588454641401767,0.583916962146759,0.4952079653739929,-0.03375905752182,0.6129862070083618,0.4230037033557892,-0.0466573648154735,0.6286766529083252,0.3700845241546631,-0.0547762252390384,0.6387550830841064,0.3192516565322876,-0.0622500367462635
2023-08-01 15:55:41.450951,8,148,0.6690020561218262,0.620185136795044,-0.1259311586618423,0.3898049890995025,-0.08642578125,0.93212890625,0.427734375,0.5063184499740601,0.7422675490379333,4.82079620667264e-08,0.4423259198665619,0.6774202585220337,-0.0134566882625222,0.3966887593269348,0.581994354724884,-0.0155972084030509,0.3707135319709778,0.5030906796455383,-0.0208057723939418,0.3428415358066559,0.4425235688686371,-0.0255105942487716,0.46991828083992,0.465939849615097,0.0230795741081237,0.4564868509769439,0.3808902502059936,0.0118790809065103,0.4429226219654083,0.3311628401279449,-0.0057593281380832,0.4303014576435089,0.282654345035553,-0.0207779090851545,0.5136400461196899,0.4545238614082336,0.0144683932885527,0.5152595639228821,0.3537958860397339,0.0059498897753655,0.5075532793998718,0.2877659201622009,-0.0107866087928414,0.4963244497776031,0.2299915850162506,-0.0255180094391107,0.5513968467712402,0.465320348739624,-0.0002606784400995,0.5681428909301758,0.3755187690258026,-0.0125436000525951,0.5657593607902527,0.3181700110435486,-0.0271594505757093,0.5536507368087769,0.2686399817466736,-0.0386982858180999,0.5851984024047852,0.4932015836238861,-0.0177815649658441,0.6044745445251465,0.419877141714096,-0.029880691319704,0.6005034446716309,0.3680034875869751,-0.0383997894823551,0.5853888988494873,0.3209729194641113,-0.0456601120531559
2023-08-01 15:55:41.512203,9,149,0.6645429730415344,0.6229386329650879,-0.1277892738580703,0.392428308725357,0.02099609375,0.9404296875,0.40478515625,0.508490264415741,0.7321628928184509,-1.9451427135663838e-08,0.4432305991649627,0.6703472137451172,-0.0103329764679074,0.3962794244289398,0.5765032768249512,-0.009915217757225,0.3704510033130646,0.4983380436897278,-0.0127971153706312,0.3474868535995483,0.4391136765480041,-0.0148644791916012,0.4685070514678955,0.4671338498592376,0.0279556345194578,0.4564756155014038,0.3859489560127258,0.0196697860956192,0.4417773485183716,0.3410152792930603,0.0036696111783385,0.4254600405693054,0.2976501286029815,-0.0105384122580289,0.5101861953735352,0.4561174511909485,0.019828787073493,0.5107118487358093,0.3596439361572265,0.0148970438167452,0.4997184872627258,0.3009315133094787,0.0005746183451265,0.4823035001754761,0.2517624199390411,-0.0129681266844272,0.5473469495773315,0.4651708304882049,0.0057790782302618,0.5592489242553711,0.3743609189987182,-0.0033871245104819,0.5488841533660889,0.3212414979934692,-0.0167864337563514,0.5265855193138123,0.2787104845046997,-0.0281388573348522,0.5824070572853088,0.4903604090213775,-0.0108343912288546,0.5978016257286072,0.4201845824718475,-0.0215650480240583,0.5886801481246948,0.3762080669403076,-0.0300425812602043,0.5664562582969666,0.3400196433067322,-0.0374405719339847
2023-08-01 15:55:41.563205,10,150,0.6626116037368774,0.6237436532974243,-0.1293371766805648,0.3939056396484375,-0.0546875,0.9169921875,0.36328125,0.5071792006492615,0.7277014255523682,-8.39636342675476e-08,0.4416025876998901,0.6647014617919922,-0.0105881514027714,0.396456241607666,0.5723572969436646,-0.0107164159417152,0.3737682700157165,0.4915180504322052,-0.0142891695722937,0.3560490608215332,0.4280364215373993,-0.0159883350133895,0.4690937399864197,0.4688083827495575,0.0323740281164646,0.4609732925891876,0.3914828896522522,0.0201701298356056,0.4439209699630737,0.3554434478282928,0.0007846442749723,0.4221261739730835,0.3282666802406311,-0.0135819483548402,0.5081436038017273,0.4570047259330749,0.0259674321860075,0.5102101564407349,0.3656929731369018,0.0187080595642328,0.4962121248245239,0.3139989674091339,0.0027639060281217,0.4725523889064789,0.2829095721244812,-0.0101167354732751,0.5448615550994873,0.4639193415641784,0.0130728865042328,0.5539170503616333,0.3754947185516357,0.0034947677049785,0.5383490920066833,0.3267638981342315,-0.008865169249475,0.5096622109413147,0.301356166601181,-0.0177391469478607,0.581115186214447,0.4863020181655884,-0.0024946646299213,0.5929870009422302,0.4175829589366913,-0.0119319902732968,0.5800135135650635,0.3765828013420105,-0.0191026851534843,0.5536705255508423,0.3533559441566467,-0.0241333395242691
2023-08-01 15:55:41.622650,11,151,0.6605120897293091,0.6249343752861023,-0.1312069445848465,0.3949247002601623,-0.01806640625,0.8984375,0.40380859375,0.5052938461303711,0.7256243824958801,-1.45654951211327e-07,0.4398173987865448,0.6624758839607239,-0.0095868101343512,0.3952577412128448,0.5690612196922302,-0.0077964509837329,0.3741349577903747,0.4878040850162506,-0.0101817827671766,0.3588914275169372,0.4246750473976135,-0.0098063433542847,0.4671104252338409,0.4663590788841247,0.0393653213977813,0.4610190987586975,0.3898865282535553,0.025256959721446,0.4424304962158203,0.3625509440898895,0.0047692498192191,0.4187713265419006,0.3563482165336609,-0.0074955695308744,0.5042852759361267,0.4544320404529571,0.0340087711811065,0.5071764588356018,0.3658205270767212,0.0267430543899536,0.489966869354248,0.3239528834819793,0.0106987310573458,0.4627655148506164,0.3194206357002258,0.0004284384485799,0.5409571528434753,0.4617086350917816,0.0216155014932155,0.5538419485092163,0.3741075992584228,0.0118076559156179,0.5350241661071777,0.3338491022586822,0.000693084555678,0.5027514100074768,0.3333983719348907,-0.0045772972516715,0.5779551267623901,0.4832344651222229,0.0065858541056513,0.5901775360107422,0.4146828055381775,-0.003788290079683,0.5720295906066895,0.384903222322464,-0.0097657395526766,0.5410940051078796,0.386676013469696,-0.0112003926187753
2023-08-01 15:55:41.681149,12,152,0.658645510673523,0.6257436275482178,-0.1339233964681625,0.3958479762077331,-0.03662109375,0.8955078125,0.3369140625,0.504272997379303,0.7252639532089233,-1.544010643783622e-07,0.4391267001628876,0.6617963910102844,-0.0088446913287043,0.3951097726821899,0.56830233335495,-0.0061522480100393,0.3741978406906128,0.4874163568019867,-0.0078585632145404,0.3587624430656433,0.4245738387107849,-0.0067577064037323,0.4680011868476867,0.4663768708705902,0.0418504923582077,0.461112231016159,0.3908631205558777,0.0289294850081205,0.4420708119869232,0.3638001680374145,0.0088595189154148,0.4180943965911865,0.3561021387577057,-0.0034849855583161,0.5045973658561707,0.4543057978153229,0.0362615920603275,0.5065802335739136,0.3661047220230102,0.0298748686909675,0.4886079132556915,0.3239810466766357,0.0139984795823693,0.4610864222049713,0.3187770247459411,0.003684465540573,0.5409730672836304,0.4615291059017181,0.0236129555851221,0.5539498329162598,0.3728840351104736,0.0144408009946346,0.5353378057479858,0.3331353366374969,0.0037435786798596,0.5035614371299744,0.3333536982536316,-0.0012969438685104,0.5779008865356445,0.4827644228935241,0.0083055682480335,0.590296745300293,0.4133484363555908,-0.0017723526107147,0.5718618631362915,0.383184015750885,-0.0076111224479973,0.5406768321990967,0.3851146697998047,-0.0089846029877662
2023-08-01 15:55:41.744689,13,153,0.6573836207389832,0.6261054277420044,-0.1354602724313736,0.3968492746353149,0.01220703125,0.9365234375,0.3193359375,0.4974315166473388,0.7101953029632568,-3.6704420836031204e-07,0.4327076375484466,0.6518228054046631,-0.0149570601060986,0.3972883820533752,0.5575869679450989,-0.0185725018382072,0.391470730304718,0.471721887588501,-0.0276060402393341,0.3995197117328644,0.4033981561660766,-0.0325867496430873,0.4580262899398803,0.4672485291957855,0.0304019246250391,0.4612669646739959,0.3790314793586731,0.0041447752155363,0.4473085701465606,0.3911734521389007,-0.0187063235789537,0.4418703019618988,0.4377343654632568,-0.0283972341567277,0.4941312372684479,0.4595972001552582,0.024879353120923,0.5017247200012207,0.3506531119346618,-0.0008398726349696,0.4802734851837158,0.3687332570552826,-0.0194288697093725,0.4713423550128937,0.4248095452785492,-0.023637605831027,0.5293558239936829,0.4652944207191467,0.0120431846007704,0.5407423377037048,0.3599766790866852,-0.0084945876151323,0.5167054533958435,0.3756252527236938,-0.0160125456750392,0.5072394609451294,0.4274130463600158,-0.0133452424779534,0.5678530931472778,0.4839982986450195,-0.003934453241527,0.5746942758560181,0.3998816907405853,-0.0154366958886384,0.551906943321228,0.3998481333255768,-0.0167560428380966,0.5366213321685791,0.4376609027385711,-0.0126258861273527
2023-08-01 15:55:41.827093,14,154,0.6563439965248108,0.6269141435623169,-0.1395187675952911,0.3958858251571655,0.03125,0.92626953125,0.384765625,0.4995691478252411,0.7138482928276062,-4.663660035930661e-07,0.4328676462173462,0.6499521136283875,-0.0171636641025543,0.3934603929519653,0.5586134195327759,-0.0232333894819021,0.3892132341861725,0.4687614440917969,-0.0350202322006225,0.4123707413673401,0.4024561643600464,-0.0424612425267696,0.4548335969448089,0.4673427045345306,0.0313378684222698,0.4586113393306732,0.3852731883525848,0.0044115846976637,0.4439924359321594,0.4142846167087555,-0.0196393858641386,0.4416292607784271,0.4656448066234588,-0.0312442481517791,0.4901127517223358,0.4601233005523681,0.0263969581574201,0.499551773071289,0.3567483723163605,-0.0018768983427435,0.4783622324466705,0.3911366462707519,-0.0225187540054321,0.4724482893943786,0.4499529898166656,-0.0282979682087898,0.5257905721664429,0.4662681221961975,0.0138814263045787,0.5389707684516907,0.3653955459594726,-0.0098655615001916,0.5146299600601196,0.3923674523830414,-0.018921872600913,0.5060978531837463,0.4477773904800415,-0.0168129578232765,0.5645922422409058,0.4857456088066101,-0.0017229120712727,0.5726161003112793,0.4014860391616821,-0.0143063617870211,0.5495302081108093,0.4065325260162353,-0.0162485931068658,0.5343311429023743,0.4472677409648895,-0.0128857782110571
2023-08-01 15:55:41.889001,15,155,0.6554393768310547,0.6275513768196106,-0.1426696330308914,0.3952517211437225,0.01025390625,0.91259765625,0.40966796875,0.4983151853084564,0.7214198708534241,-6.431742463064438e-07,0.4293989837169647,0.652401864528656,-0.0102059487253427,0.3897934257984161,0.5620001554489136,-0.0169894509017467,0.3991172909736633,0.4771194756031036,-0.0315777100622653,0.4451355934143066,0.4337934255599975,-0.0426187738776207,0.451130211353302,0.4813122451305389,0.0303766671568155,0.4484510719776153,0.3973569571971893,0.0004963899846188,0.4370328783988952,0.4550387859344482,-0.0223579704761505,0.4387301206588745,0.5130647420883179,-0.0326159261167049,0.4847339987754822,0.4754079580307007,0.0211326740682125,0.4843805134296417,0.3782373070716858,-0.0118356784805655,0.4692824482917785,0.448319673538208,-0.0278784167021513,0.4720882475376129,0.5096352696418762,-0.028011979535222,0.5216017365455627,0.4781638979911804,0.0050804959610104,0.5232648849487305,0.3713943362236023,-0.0245231464505195,0.5056332349777222,0.4356658160686493,-0.0233569983392953,0.5069133043289185,0.5013687014579773,-0.0108968131244182,0.5622470378875732,0.493529200553894,-0.0131835676729679,0.5551146864891052,0.4064623713493347,-0.0275106728076934,0.5373613834381104,0.4378654062747955,-0.0208515468984842,0.5347052812576294,0.4874716401100158,-0.0094289146363735
2023-08-01 15:55:41.946204,16,156,0.6539088487625122,0.6287617683410645,-0.1473713517189026,0.3941363990306854,-0.0908203125,0.923828125,0.33544921875,0.4996369183063507,0.717049241065979,-6.262266083467694e-07,0.4309262931346893,0.6503839492797852,-0.0071700736880302,0.3897543549537658,0.568088173866272,-0.0132459923624992,0.3986682295799255,0.4908769726753235,-0.0277478229254484,0.4442663788795471,0.4535982608795166,-0.0389775708317756,0.4515808820724487,0.4877869784832001,0.0306637790054082,0.4498862326145172,0.3981911838054657,-0.0001544447732158,0.4364015758037567,0.4547463357448578,-0.0236794557422399,0.434879720211029,0.5123656988143921,-0.0339023433625698,0.4845393002033233,0.4854927659034729,0.0205910317599773,0.4837862551212311,0.3853932321071625,-0.0121693694964051,0.4688252508640289,0.4567657113075256,-0.0285599417984485,0.4702851474285126,0.5173913836479187,-0.0291390661150217,0.5214843153953552,0.4879352450370788,0.0041015069000422,0.5213510990142822,0.3774374723434448,-0.0242908168584108,0.5042015910148621,0.4457198083400726,-0.0215646587312221,0.5050317049026489,0.511811375617981,-0.0083846189081668,0.562696099281311,0.5022530555725098,-0.0144023550674319,0.5555480122566223,0.4154167473316192,-0.0276326201856136,0.536454975605011,0.4507489204406738,-0.0194359701126813,0.5321583151817322,0.5001330375671387,-0.0070516592822968
2023-08-01 15:55:42.006067,17,157,0.651861310005188,0.6292798519134521,-0.148995891213417,0.3960858881473541,0.0224609375,0.95361328125,0.3115234375,0.5003121495246887,0.7146700620651245,-6.152048968033341e-07,0.431731104850769,0.6520371437072754,-0.0104073286056518,0.3890429437160492,0.5686554312705994,-0.0174510590732097,0.3972545862197876,0.490646481513977,-0.0318945497274398,0.4446355700492859,0.4550871849060058,-0.0425451844930648,0.4510858356952667,0.4887575507164001,0.0263246521353721,0.448693037033081,0.4001833796501159,-0.0050009028054773,0.4356842041015625,0.4591392576694488,-0.0280803609639406,0.4351202249526977,0.5161657333374023,-0.0379696264863014,0.4848233461380005,0.4855971336364746,0.0179018732160329,0.4835705161094665,0.385681688785553,-0.0159284938126802,0.4690778255462646,0.460007905960083,-0.031193995848298,0.4713629782199859,0.5220621228218079,-0.0303159598261117,0.5219883918762207,0.4871529340744018,0.0029240867588669,0.5213792324066162,0.3765060901641845,-0.0262922085821628,0.5040132403373718,0.446589857339859,-0.0225564166903495,0.5050723552703857,0.513763964176178,-0.0081286700442433,0.5628448128700256,0.5008634328842163,-0.0143854916095733,0.5550187826156616,0.4150718748569488,-0.028818167746067,0.5356758236885071,0.4518408179283142,-0.0210144128650426,0.5317968726158142,0.5019221305847168,-0.0084706814959645
2023-08-01 15:55:42.069980,18,158,0.6493421196937561,0.6301074028015137,-0.1526762098073959,0.3975039422512054,0.09619140625,0.93408203125,0.306640625,0.4992125034332275,0.7174232006072998,-6.6911741214426e-07,0.4313597679138183,0.6573020219802856,-0.0076241185888648,0.3880581557750702,0.5735896825790405,-0.0136550609022378,0.3940960764884949,0.4971072375774383,-0.0269951354712247,0.4439761340618133,0.4680980145931244,-0.0369359888136386,0.4499019086360931,0.4998334050178528,0.0230951942503452,0.4418207705020904,0.4092245697975158,-0.0080299032852053,0.4299792051315307,0.4726793169975281,-0.0293768197298049,0.4344594776630401,0.5271844863891602,-0.0385615453124046,0.4840805232524872,0.4967664182186126,0.0134808225557208,0.4789985120296478,0.3942489922046661,-0.0197512060403823,0.4643315076828003,0.4725276529788971,-0.0323519147932529,0.4704186022281647,0.530330240726471,-0.0300519969314336,0.521812379360199,0.49704110622406,-0.0020344255026429,0.5180420875549316,0.386298805475235,-0.0301468279212713,0.5009087920188904,0.4620856940746307,-0.0229767486453056,0.5057535767555237,0.525363028049469,-0.0070478743873536,0.5638443231582642,0.5093551278114319,-0.0195886325091123,0.5532575845718384,0.4255943298339844,-0.0319981500506401,0.534156084060669,0.4684994518756866,-0.0216316971927881,0.5347678065299988,0.515815794467926,-0.0081229601055383
2023-08-01 15:55:42.130711,19,159,0.6483393907546997,0.6300297379493713,-0.1536886394023895,0.3988713026046753,0.03369140625,0.91015625,0.35009765625,0.5003969669342041,0.7279683947563171,-6.850581257822341e-07,0.4311069846153259,0.6697235703468323,-0.007311500608921,0.384264588356018,0.5811681747436523,-0.0111384838819503,0.3937315344810486,0.5026293396949768,-0.0213520731776952,0.4487316012382507,0.495756447315216,-0.0286179948598146,0.4478519558906555,0.5200514793395996,0.0210026409476995,0.4305043518543243,0.4415425360202789,-0.0076556848362088,0.4217617213726043,0.5055844187736511,-0.0248477850109338,0.4323356747627258,0.5430973768234253,-0.0329170413315296,0.4833678007125854,0.5142137408256531,0.0118845114484429,0.4723733067512512,0.4200775921344757,-0.0219042673707008,0.4617616832256317,0.4982745051383972,-0.0308385770767927,0.4726629555225372,0.5391272306442261,-0.0260054655373096,0.5218269228935242,0.5124741196632385,-0.0028543889056891,0.5116281509399414,0.4108709394931793,-0.0323396027088165,0.4989102482795715,0.4899592995643616,-0.0225461572408676,0.508953332901001,0.5364026427268982,-0.0049820067360997,0.5647677183151245,0.5224059224128723,-0.0194860119372606,0.5459403991699219,0.4474571347236633,-0.0323224104940891,0.5311435461044312,0.4967381060123443,-0.0210203360766172,0.538678765296936,0.5352040529251099,-0.0072152223438024
2023-08-01 15:55:42.177381,20,160,0.6484358906745911,0.629734218120575,-0.1526412367820739,0.3995826840400696,-0.00146484375,0.912109375,0.345703125,0.4989270567893982,0.7216891646385193,-6.601923132620868e-07,0.4283678233623504,0.6669330596923828,-0.0071510393172502,0.3808783292770386,0.5825667381286621,-0.010044252499938,0.3926435708999634,0.507466197013855,-0.0190439242869615,0.4473796486854553,0.5010837912559509,-0.0249377600848674,0.4410620629787445,0.5170561075210571,0.0206725224852561,0.4259379208087921,0.4460103511810303,-0.0098943039774894,0.4182970523834228,0.5109408497810364,-0.027768975123763,0.4274219572544098,0.5438627600669861,-0.036029577255249,0.4781644642353058,0.5128483176231384,0.0114711979404091,0.467867374420166,0.4270036220550537,-0.0219789892435073,0.4583664834499359,0.5077316164970398,-0.0286197010427713,0.4702226519584656,0.5423110127449036,-0.0225138738751411,0.5179943442344666,0.5128737688064575,-0.0038595160003751,0.5077347755432129,0.4199032783508301,-0.0330485887825489,0.4962486326694488,0.5010552406311035,-0.0207113791257143,0.5084026455879211,0.5395739078521729,-0.0019376811105757,0.5636550188064575,0.5230465531349182,-0.021217918023467,0.545006513595581,0.4522141218185425,-0.0334279723465442,0.5306315422058105,0.5042619705200195,-0.0203917808830738,0.5398166179656982,0.5365424752235413,-0.0056810490787029
2023-08-01 15:55:42.224465,21,161,0.6483204960823059,0.629627525806427,-0.1528116315603256,0.3998728990554809,-0.0166015625,0.92626953125,0.3642578125,0.4967058897018432,0.7161038517951965,-6.249435955396621e-07,0.427280843257904,0.6629065275192261,-0.0088295713067054,0.3816112279891968,0.5798522233963013,-0.011559841223061,0.3938228487968445,0.5085839629173279,-0.0197392888367176,0.4468692541122436,0.5045598149299622,-0.0242302548140287,0.4474432468414306,0.5159542560577393,0.0191225185990333,0.4336866438388824,0.4456428289413452,-0.0112947952002286,0.4242677688598633,0.5110682845115662,-0.0277412831783294,0.4331531226634979,0.5416650772094727,-0.0348303578794002,0.4830362796783447,0.5134821534156799,0.0111062424257397,0.4722521007061004,0.4306608140468597,-0.0228360816836357,0.4609387516975403,0.5102829337120056,-0.0283006634563207,0.4748991429805755,0.5390361547470093,-0.0208745133131742,0.520787239074707,0.51514732837677,-0.0033277566544711,0.5101258158683777,0.4281728267669678,-0.033354926854372,0.4964070916175842,0.5066227316856384,-0.0209301710128784,0.5101634860038757,0.5381652116775513,-0.0015530977398157,0.5640677809715271,0.5262407660484314,-0.0199596881866455,0.5469009280204773,0.4581945240497589,-0.0319592468440532,0.5304543375968933,0.508370041847229,-0.0189709551632404,0.5402872562408447,0.5376061201095581,-0.0041294144466519
2023-08-01 15:55:42.273352,22,162,0.6475534439086914,0.6296059489250183,-0.1528940945863723,0.4011164009571075,0.0,0.939453125,0.3486328125,0.4968915283679962,0.7131268978118896,-6.173368660711276e-07,0.4277814328670501,0.6637483835220337,-0.0105395559221506,0.381342202425003,0.5816080570220947,-0.0137794641777873,0.3944887518882751,0.5091112852096558,-0.0219711400568485,0.4472857415676117,0.504607081413269,-0.0261458996683359,0.4484036266803741,0.5142661929130554,0.0181755945086479,0.4336066544055938,0.4457403719425201,-0.011275315657258,0.424715906381607,0.5112300515174866,-0.0270436778664588,0.4350980520248413,0.5411881804466248,-0.0339022539556026,0.4844854474067688,0.5111592411994934,0.0109499348327517,0.4735023081302643,0.4308480322360992,-0.0223478954285383,0.461891233921051,0.5103231072425842,-0.0272862408310174,0.4758403599262237,0.5400698184967041,-0.0194429792463779,0.5221172571182251,0.5130520462989807,-0.0028362381272017,0.5112366676330566,0.4281919598579407,-0.0324863865971565,0.4968516826629638,0.5061216354370117,-0.0202838461846113,0.5104020237922668,0.5385631918907166,-0.0011325752129778,0.5651339292526245,0.5253486037254333,-0.0189806520938873,0.5469515919685364,0.4598054885864258,-0.0317281484603881,0.5302437543869019,0.5094648599624634,-0.0197294279932975,0.5399735569953918,0.538735568523407,-0.0054005817510187
2023-08-01 15:55:42.331415,23,163,0.6460994482040405,0.6298419237136841,-0.1531105786561966,0.4030035138130188,0.048828125,0.9384765625,0.3447265625,0.501062273979187,0.72232985496521,-6.314569418464089e-07,0.4323000013828277,0.6776670813560486,-0.0108197713270783,0.3850330412387848,0.5899587273597717,-0.0140196131542325,0.3992712497711181,0.5158534049987793,-0.0214999783784151,0.4517119526863098,0.518225908279419,-0.0243864152580499,0.4488894641399383,0.5195622444152832,0.0145704858005046,0.4354622364044189,0.4524657428264618,-0.0143891237676143,0.4277355074882507,0.5190165638923645,-0.0290104392915964,0.4368769228458404,0.5456886291503906,-0.0356251932680606,0.4851201772689819,0.5163516998291016,0.007795906625688,0.4728321135044098,0.4400548934936523,-0.0249464605003595,0.4633102416992187,0.5187093019485474,-0.0279437266290187,0.4761565923690796,0.5450679063796997,-0.0192303098738193,0.5217302441596985,0.5191985964775085,-0.0053235129453241,0.5089671015739441,0.4414029121398926,-0.0328430794179439,0.4974647760391235,0.5175917744636536,-0.0190580543130636,0.5111714005470276,0.5458875894546509,-1.1471613106550649e-05,0.564420223236084,0.5321447849273682,-0.0210316516458988,0.5446036458015442,0.4733642339706421,-0.0323051586747169,0.5315220355987549,0.5209225416183472,-0.0204898621886968,0.5433803796768188,0.5461751818656921,-0.0070448298938572
2023-08-01 15:55:42.388773,24,164,0.6454458832740784,0.6299996972084045,-0.1535868495702743,0.4036225080490112,0.06494140625,0.9326171875,0.353515625,0.4980013370513916,0.7225237488746643,-6.124947731223074e-07,0.4302661716938019,0.674493134021759,-0.0091624651104211,0.3846798539161682,0.5893781781196594,-0.0123054757714271,0.3983252942562103,0.5170115828514099,-0.0201265942305326,0.4484560787677765,0.5220646858215332,-0.0240209214389324,0.4485652148723602,0.5227687954902649,0.0157478954643011,0.4341310858726501,0.4563111662864685,-0.0134970620274543,0.4281698763370514,0.5220507383346558,-0.0289770234376192,0.4382402598857879,0.5494715571403503,-0.0360261164605617,0.4844122231006622,0.5196859240531921,0.0082865925505757,0.4714870154857635,0.4443318247795105,-0.0244484357535839,0.4625426828861236,0.5223572254180908,-0.0285820271819829,0.4754707515239715,0.5482229590415955,-0.0207343194633722,0.5211725831031799,0.5219081044197083,-0.0053673861548304,0.507402777671814,0.4436805248260498,-0.0332067646086216,0.4960241615772247,0.520609974861145,-0.020745163783431,0.5096191167831421,0.5489699840545654,-0.0024369938764721,0.5637012720108032,0.5336368680000305,-0.0212778393179178,0.5416905879974365,0.4765926897525787,-0.0326774194836616,0.5287607312202454,0.5251995325088501,-0.0213004667311906,0.5410202741622925,0.5497130751609802,-0.0081215444952249
2023-08-01 15:55:42.440860,25,165,0.6452980041503906,0.6301541328430176,-0.1538316905498504,0.40352463722229,0.04248046875,0.93310546875,0.2998046875,0.4953202307224273,0.7195393443107605,-6.185972551975283e-07,0.4281965792179107,0.6734273433685303,-0.0090326322242617,0.3837524950504303,0.5903492569923401,-0.0119790220633149,0.3965457677841186,0.5187349915504456,-0.0196588393300771,0.4458274841308594,0.5211221575737,-0.0232474599033594,0.4508203864097595,0.5255318284034729,0.0154866864904761,0.4361991584300995,0.4573245048522949,-0.0138077065348625,0.4269727170467376,0.5222450494766235,-0.0289242845028638,0.4366658329963684,0.5519571304321289,-0.0354175008833408,0.4852718710899353,0.5227909684181213,0.0082212463021278,0.4726608991622925,0.4475191533565521,-0.023738969117403,0.4611982405185699,0.5242258906364441,-0.0273145698010921,0.4747390747070312,0.5501922965049744,-0.0193835608661174,0.5212961435317993,0.524709165096283,-0.0052567822858691,0.5080963373184204,0.4452018737792969,-0.0327358804643154,0.4944602847099304,0.521202564239502,-0.0196603052318096,0.5082718133926392,0.5495943427085876,-0.001172283780761,0.5629274249076843,0.5362776517868042,-0.0210163351148366,0.5419862270355225,0.4776938855648041,-0.0325205214321613,0.5272232890129089,0.526014506816864,-0.0208825729787349,0.5388334393501282,0.551352858543396,-0.0075108036398887
2023-08-01 15:55:42.488895,26,166,0.6454600691795349,0.6298975944519043,-0.1530603468418121,0.4039590358734131,0.0185546875,0.91845703125,0.3701171875,0.4946337938308716,0.7168217301368713,-6.070522431400605e-07,0.4287926256656647,0.6709457635879517,-0.0080257235094904,0.3847498595714569,0.5878279209136963,-0.0099810864776372,0.3995366990566253,0.518572211265564,-0.016572929918766,0.4498135447502136,0.517443060874939,-0.0192017238587141,0.4489095509052276,0.525307834148407,0.0158886667340993,0.4340842962265014,0.4594101905822754,-0.0124321188777685,0.42603200674057,0.5220264196395874,-0.0266159977763891,0.437392383813858,0.5494566559791565,-0.0325537696480751,0.4836039543151855,0.5215690732002258,0.0084797563031315,0.4710790812969208,0.4475505352020263,-0.0232392009347677,0.4598715305328369,0.5218390226364136,-0.0266697127372026,0.4743649959564209,0.5478600263595581,-0.0183555372059345,0.5194244980812073,0.5228245854377747,-0.0049223178066313,0.5059027671813965,0.4470694959163666,-0.0322182141244411,0.4928926527500152,0.5205581784248352,-0.019884081557393,0.5076299905776978,0.5477045774459839,-0.0017825240502133,0.5611129403114319,0.5337015390396118,-0.0204171352088451,0.5384559035301208,0.4764147102832794,-0.0323818698525428,0.5250409841537476,0.5240342020988464,-0.0214053820818662,0.5381256341934204,0.5488827228546143,-0.0083108637481927
2023-08-01 15:55:42.549992,27,167,0.6458218097686768,0.6299489736557007,-0.1523052752017974,0.4035861492156982,0.02294921875,0.93212890625,0.34130859375,0.4973516762256622,0.7193657755851746,-6.108782599767437e-07,0.4296126663684845,0.6738044023513794,-0.0073806177824735,0.3855461776256561,0.5886661410331726,-0.00860829744488,0.3996991813182831,0.5191317200660706,-0.014455109834671,0.4484741985797882,0.5197325944900513,-0.016259690746665,0.4502903819084167,0.5255549550056458,0.0165899619460105,0.4345776438713074,0.4598484337329864,-0.011265498585999,0.4263812899589538,0.5225255489349365,-0.0256392713636159,0.4380181133747101,0.5501915216445923,-0.031886026263237,0.4848958253860473,0.5219693183898926,0.0091033782809972,0.4715600907802582,0.4471481740474701,-0.0219340231269598,0.4602304697036743,0.5218027234077454,-0.0254429653286933,0.4752449691295624,0.5477260947227478,-0.0173696484416723,0.5202752947807312,0.5236803889274597,-0.0042452160269021,0.5056272149085999,0.4472323060035705,-0.0307000819593668,0.4923349618911743,0.5213700532913208,-0.0182601958513259,0.5078822374343872,0.5491610765457153,-0.0003281989775132,0.5617742538452148,0.5350000858306885,-0.0196924470365047,0.5383999347686768,0.476996511220932,-0.0313613936305046,0.5243257284164429,0.5245087742805481,-0.0204610601067543,0.5376967787742615,0.5499223470687866,-0.0075181974098086
2023-08-01 15:55:42.614100,28,168,0.6466786861419678,0.6314152479171753,-0.1557381749153137,0.3985813558101654,0.18994140625,0.9638671875,0.1630859375,0.4961816966533661,0.7186892628669739,-6.111141033215972e-07,0.428894430398941,0.6718770265579224,-0.0070655294694006,0.3861035704612732,0.5885628461837769,-0.008700898848474,0.400915265083313,0.519992470741272,-0.0151694295927882,0.4494637250900268,0.5201612710952759,-0.0176546871662139,0.451924055814743,0.5245071649551392,0.0164059530943632,0.4375279247760772,0.456997275352478,-0.0123462351039052,0.4279290735721588,0.5203077793121338,-0.0271096937358379,0.4385788142681122,0.5495348572731018,-0.0333703868091106,0.4857836663722992,0.5220125317573547,0.0086404765024781,0.472525805234909,0.4467476606369018,-0.0229841079562902,0.4607000350952148,0.5213080048561096,-0.0266025811433792,0.475995659828186,0.5467139482498169,-0.0186966639012098,0.5207926630973816,0.524212658405304,-0.0050483015365898,0.5061359405517578,0.4471204876899719,-0.0319401770830154,0.4925612211227417,0.5209450721740723,-0.0191654525697231,0.5081373453140259,0.5481587648391724,-0.0010448937537148,0.56183260679245,0.535820484161377,-0.0208330452442169,0.5387539863586426,0.4771875143051147,-0.032435480505228,0.5244429707527161,0.5247528553009033,-0.0210528504103422,0.5376916527748108,0.5500457286834717,-0.0078397849574685
2023-08-01 15:55:42.673502,29,169,0.647867739200592,0.6320106983184814,-0.1557867377996444,0.3956771790981293,0.04833984375,0.9375,0.3935546875,0.4957980215549469,0.7147989273071289,-6.435386126213416e-07,0.4316478371620178,0.6734715104103088,-0.0079822447150945,0.3876373171806335,0.5848263502120972,-0.00929422583431,0.4032947123050689,0.5127218961715698,-0.0147062204778194,0.4520607590675354,0.5133806467056274,-0.0158054158091545,0.4532096982002258,0.5223407745361328,0.0132424952462315,0.4402554929256439,0.4533687233924866,-0.0161214806139469,0.4306134283542633,0.5173105597496033,-0.031216187402606,0.4406145513057709,0.5474068522453308,-0.0378323420882225,0.4877807199954986,0.5205563902854919,0.0064290734007954,0.4748500883579254,0.4437637329101562,-0.0253147054463624,0.4625322222709656,0.5205265879631042,-0.0281668584793806,0.4762798249721527,0.5467828512191772,-0.0199693068861961,0.5221365094184875,0.5230401754379272,-0.0062848241068422,0.5080390572547913,0.444641500711441,-0.0335438661277294,0.4936051964759826,0.5208818912506104,-0.0197195447981357,0.5081181526184082,0.5500379204750061,-0.001106537762098,0.5630322694778442,0.5333060622215271,-0.0211039688438177,0.5384241938591003,0.4751426577568054,-0.0337787233293056,0.5245897173881531,0.5247662663459778,-0.0227209441363811,0.538004994392395,0.5499950051307678,-0.0097761675715446
2023-08-01 15:55:42.733645,30,170,0.650010883808136,0.6312258839607239,-0.1501103043556213,0.3956091403961181,0.08251953125,0.92236328125,0.34765625,0.4900694489479065,0.7146522998809814,-5.96800418861676e-07,0.4274408519268036,0.6711217164993286,-0.0113447150215506,0.3861883878707886,0.5831298232078552,-0.0149299167096614,0.404009610414505,0.5129852294921875,-0.0225127562880516,0.4543979465961456,0.5097200870513916,-0.0259362291544675,0.4515613317489624,0.5193663835525513,0.0114614944905042,0.4420087337493896,0.4468969106674194,-0.019163841381669,0.4306031763553619,0.5098441243171692,-0.0345808416604995,0.439454436302185,0.5443628430366516,-0.0403681062161922,0.4852935373783111,0.51690274477005,0.0054212785325944,0.4774702191352844,0.4351661205291748,-0.0276507996022701,0.4625077843666076,0.5115359425544739,-0.0313999503850936,0.4753798246383667,0.5448175668716431,-0.0225310251116752,0.5196675062179565,0.5191751718521118,-0.0069014187902212,0.5098696351051331,0.4343467652797699,-0.0359302312135696,0.4931767284870147,0.5098456740379333,-0.0237772967666387,0.5054354667663574,0.5453534722328186,-0.0047319065779447,0.5591993927955627,0.5303931832313538,-0.0214794259518384,0.5383651852607727,0.464956521987915,-0.0355952903628349,0.5229314565658569,0.5130823254585266,-0.0251013860106468,0.5339654088020325,0.5434233546257019,-0.0114371767267584
2023-08-01 15:55:42.791825,31,171,0.6510938405990601,0.6311821341514587,-0.1472879350185394,0.3949582278728485,0.005859375,0.9384765625,0.3525390625,0.4917261898517608,0.7149059772491455,-5.669611482517212e-07,0.4274646639823913,0.669134795665741,-0.0115803591907024,0.3851424157619476,0.5877348780632019,-0.0172717627137899,0.3981776833534241,0.5152590870857239,-0.0277256034314632,0.4475924968719482,0.4919773638248443,-0.0347904004156589,0.4513117671012878,0.5263679027557373,0.0146553451195359,0.4410904943943023,0.4481117129325866,-0.0144760580733418,0.4296175539493561,0.5005640983581543,-0.0325148776173591,0.4376481473445892,0.5435482263565063,-0.0397472530603408,0.482723981142044,0.5202065110206604,0.0088654467836022,0.4771326184272766,0.4246662557125091,-0.023187031969428,0.4627425670623779,0.4938908219337463,-0.0321696586906909,0.4731795191764831,0.5442527532577515,-0.0267505478113889,0.5166239738464355,0.5176447629928589,-0.0025948260445147,0.5100643634796143,0.4180873930454254,-0.0321828871965408,0.492778480052948,0.4882137477397918,-0.0250716973096132,0.5017879009246826,0.5426501631736755,-0.0081853186711668,0.5555391311645508,0.5260055661201477,-0.0159836262464523,0.5404981374740601,0.445919930934906,-0.0322608426213264,0.5227054953575134,0.4888685941696167,-0.0238139815628528,0.5274062156677246,0.5338666439056396,-0.0104859806597232
2023-08-01 15:55:42.838168,32,172,0.652510404586792,0.6298075318336487,-0.1429086029529571,0.3964211344718933,-0.0048828125,0.9384765625,0.36181640625,0.4920300543308258,0.721287727355957,-6.13426436757436e-07,0.425653338432312,0.6742256283760071,-0.0083989333361387,0.3831506669521332,0.5900581479072571,-0.0122143775224685,0.3954082131385803,0.5161112546920776,-0.02176552452147,0.4438537955284118,0.4929332435131073,-0.0286989118903875,0.449459969997406,0.5292155742645264,0.0188212450593709,0.4391332566738128,0.4510096311569214,-0.0081266118213534,0.4262581169605255,0.503246009349823,-0.0263121891766786,0.4330003261566162,0.5486206412315369,-0.0344982556998729,0.4805892705917358,0.5220517516136169,0.0114638470113277,0.474826842546463,0.4265056550502777,-0.019174350425601,0.4599404335021972,0.4950345754623413,-0.0296490024775266,0.4698780179023742,0.5478343367576599,-0.0260946750640869,0.515240490436554,0.51834636926651,-0.0011610310757532,0.5080372095108032,0.4152353703975677,-0.0287225097417831,0.4920355081558227,0.484525978565216,-0.0229874569922685,0.5020816326141357,0.540956437587738,-0.0081195309758186,0.554945707321167,0.5261499881744385,-0.0155339194461703,0.538882851600647,0.4461214244365692,-0.0307270158082246,0.5220121741294861,0.4888549447059631,-0.0230019968003034,0.5284116864204407,0.534647524356842,-0.0110207563266158
2023-08-01 15:55:42.887351,33,173,0.652842104434967,0.629488468170166,-0.1423642933368683,0.396577924489975,-0.01513671875,0.91455078125,0.37939453125,0.4887256920337677,0.7134852409362793,-2.506883163277962e-07,0.4197952449321747,0.6694592237472534,-0.0165820177644491,0.3819781243801117,0.588564395904541,-0.0187866631895303,0.3850011527538299,0.5089601874351501,-0.0250933729112148,0.4035276174545288,0.4486671984195709,-0.0278449617326259,0.4620832800865173,0.4994482398033142,0.0319279395043849,0.4604335427284241,0.4284278750419616,0.014778783544898,0.4408648312091827,0.4205257594585418,-0.0040563070215284,0.4306682646274566,0.4423423111438751,-0.0135101405903697,0.4946407377719879,0.4893165826797485,0.0292492732405662,0.4966036379337311,0.395921915769577,0.0104550123214721,0.4733611047267914,0.4014033079147339,-0.006981486454606,0.4640689790248871,0.4457855522632599,-0.0118094496428966,0.5270997881889343,0.4895052313804626,0.0197412725538015,0.5339638590812683,0.3949456810951233,0.0025671455077826,0.5103627443313599,0.399680882692337,-0.0062929624691605,0.5027841925621033,0.4429087042808532,-0.0049071521498262,0.5645531415939331,0.5005490183830261,0.0070868809707462,0.5706307888031006,0.4201064109802246,-0.0050203711725771,0.5466951131820679,0.4101327061653137,-0.008663167245686,0.5294559597969055,0.4401009678840637,-0.0060521708801388
2023-08-01 15:55:42.934190,34,174,0.6532713174819946,0.6281771063804626,-0.139522984623909,0.3989529907703399,-0.02099609375,0.94482421875,0.31591796875,0.4905882179737091,0.7168858647346497,-2.616498591123673e-07,0.4230976402759552,0.6729079484939575,-0.0206581652164459,0.3847800195217132,0.5883853435516357,-0.0268141850829124,0.3826596140861511,0.506469190120697,-0.0356998592615127,0.3952687382698059,0.4401966333389282,-0.0400998406112194,0.4593513011932373,0.4911039173603058,0.0200782045722007,0.4534939229488373,0.4070478081703186,-0.0056806523352861,0.4373950660228729,0.3917660117149353,-0.0294999554753303,0.425854742527008,0.4182707071304321,-0.0401580370962619,0.495596170425415,0.479960948228836,0.0182571206241846,0.4984280467033386,0.3824124336242676,-0.0068248817697167,0.4770683646202087,0.3784816265106201,-0.0270843133330345,0.4621232450008392,0.4270616769790649,-0.0328820198774337,0.530277669429779,0.4830768704414367,0.0092385374009609,0.5405951142311096,0.387684166431427,-0.011169365607202,0.5174403786659241,0.3786887526512146,-0.0227724965661764,0.5025550723075867,0.4184034466743469,-0.023033944889903,0.5684661269187927,0.4991981983184814,-0.0031663961708545,0.5786489248275757,0.422977089881897,-0.0172378551214933,0.5558614134788513,0.3966166377067566,-0.0241803620010614,0.5320972800254822,0.4133613705635071,-0.0236113518476486
2023-08-01 15:55:42.980513,35,175,0.6538269519805908,0.6271466612815857,-0.1387177407741546,0.3999435901641845,-0.0029296875,0.92822265625,0.349609375,0.4916778802871704,0.7217153310775757,-1.4433484807341301e-07,0.423748642206192,0.672620415687561,-0.0163822248578071,0.3860469460487366,0.5859782099723816,-0.0177934430539608,0.3856655955314636,0.5021496415138245,-0.021581569686532,0.3916711509227752,0.4351512193679809,-0.0218986757099628,0.4621879458427429,0.4864541888236999,0.0268761571496725,0.4528122842311859,0.4069423377513885,0.0108886919915676,0.4370647370815277,0.3722769916057586,-0.0094422819092869,0.4184108078479767,0.3658298850059509,-0.0205619744956493,0.4998598098754883,0.4758884012699127,0.0248332191258668,0.5002451539039612,0.3845357000827789,0.0114132808521389,0.4845355153083801,0.3524227738380432,-0.0066981883719563,0.4638021886348724,0.3677519261837005,-0.0149490609765052,0.5353847742080688,0.4799470901489258,0.0164261627942323,0.5416345596313477,0.393118679523468,0.0045627444051206,0.5276398062705994,0.3618388473987579,-0.0057507059536874,0.5081484913825989,0.3771141469478607,-0.0079728821292519,0.5723099708557129,0.4944458603858948,0.0046840300783514,0.5827674269676208,0.4240944981575012,-0.0054975599050521,0.5706427097320557,0.3833820223808288,-0.0117720868438482,0.5505385994911194,0.3787965476512909,-0.0118924621492624
2023-08-01 15:55:43.026840,36,176,0.6543643474578857,0.6260212063789368,-0.138032853603363,0.4010632038116455,0.0068359375,0.912109375,0.33203125,0.4866385757923126,0.7170736193656921,-1.0718032683598723e-07,0.4226991534233093,0.6643818616867065,-0.0126134352758526,0.3862231075763702,0.5762976408004761,-0.0123115759342908,0.3801007866859436,0.4973833560943603,-0.0141015881672501,0.3777556121349334,0.4357158541679382,-0.013971141539514,0.4626916944980621,0.4751185476779938,0.0242345370352268,0.4539273679256439,0.3985890448093414,0.0154967010021209,0.4389461874961853,0.3578371703624725,-0.0002887790615204,0.4197573959827423,0.324793666601181,-0.0128149446099996,0.5012676119804382,0.4659384489059448,0.0198383014649152,0.4982096254825592,0.3796054422855377,0.0124800754711031,0.4817734658718109,0.3319129943847656,-0.0032685210462659,0.4575947225093841,0.3041841983795166,-0.0151367941871285,0.5366523861885071,0.4712244272232055,0.0102342423051595,0.5430405735969543,0.3867857158184051,0.000525249983184,0.5304522514343262,0.3470395803451538,-0.010842059738934,0.507175624370575,0.3301753997802734,-0.0180098246783018,0.5718115568161011,0.4880830943584442,-0.0020082630217075,0.5822620987892151,0.4166457653045654,-0.0124106565490365,0.5729342103004456,0.376027762889862,-0.0192382410168647,0.5523591041564941,0.3542827069759369,-0.0229247957468032
2023-08-01 15:55:43.073425,37,177,0.6550381779670715,0.6247182488441467,-0.136889562010765,0.4023846983909607,0.02880859375,0.9462890625,0.3173828125,0.487941026687622,0.7157155275344849,-1.280718038287887e-07,0.4234898388385772,0.66414874792099,-0.0144717963412404,0.3867524862289428,0.5787326693534851,-0.0161229316145181,0.3797517120838165,0.4994010925292969,-0.0195767991244792,0.3775321245193481,0.4349325001239776,-0.0208141729235649,0.4634778201580047,0.4745071530342102,0.0223237909376621,0.454776406288147,0.3971108198165893,0.0125520890578627,0.4402567744255066,0.3569555282592773,-0.0042115747928619,0.421520471572876,0.324802815914154,-0.0173161495476961,0.5019506216049194,0.4654826521873474,0.0184731818735599,0.4987573623657226,0.3790552616119385,0.0104146106168627,0.4823864996433258,0.3317914605140686,-0.0063972962088882,0.4574522972106933,0.3054268360137939,-0.0191970337182283,0.5376984477043152,0.4711028933525085,0.0092615047469735,0.5445502400398254,0.3867761492729187,-0.0007940731011331,0.5321798920631409,0.3472306430339813,-0.0130596384406089,0.5083287954330444,0.331368625164032,-0.0210557412356138,0.5732078552246094,0.4883292317390442,-0.002710732165724,0.5832180380821228,0.4182159006595611,-0.0135168610140681,0.5744989514350891,0.3780480921268463,-0.0212121438235044,0.5541223883628845,0.3567816913127899,-0.025663461536169
2023-08-01 15:55:43.119958,38,178,0.6563708186149597,0.6234439611434937,-0.1363230496644973,0.4023819267749786,-0.00341796875,0.92919921875,0.3896484375,0.4851472675800323,0.7114531397819519,-4.165936218214483e-08,0.4237681329250335,0.6626669764518738,-0.0143380127847194,0.3874402344226837,0.5765081644058228,-0.0168865099549293,0.3776413798332214,0.5002395510673523,-0.0209473874419927,0.3745139837265014,0.43806853890419,-0.0235827956348657,0.4640243351459503,0.4719928503036499,0.0139987170696258,0.4530047178268432,0.3904057145118713,0.002389472676441,0.4386354088783264,0.3441737294197082,-0.0136890225112438,0.4234522879123688,0.3027558326721191,-0.0265263766050338,0.5028150677680969,0.4614297747611999,0.0087980683892965,0.4986957013607025,0.3701431155204773,-0.0001848904939834,0.4856880903244018,0.3123116493225097,-0.0150816887617111,0.46747687458992,0.2649575173854828,-0.0272909924387931,0.538097620010376,0.4664205908775329,-0.0014325371012091,0.5454702973365784,0.3803402483463287,-0.0126488404348492,0.5347586274147034,0.3297813534736633,-0.0242936592549085,0.514519453048706,0.2901664078235626,-0.0326851084828376,0.5724769830703735,0.4838773012161255,-0.0142893018200993,0.5847375988960266,0.4104404747486114,-0.0260477270931005,0.5780842900276184,0.3628367185592651,-0.0335966385900974,0.560073971748352,0.3233512341976166,-0.0386426076292991
2023-08-01 15:55:43.167142,39,179,0.6580598950386047,0.6222435832023621,-0.1355506032705307,0.4017413556575775,-0.017578125,0.91796875,0.30712890625,0.4841427505016327,0.7084774374961853,6.490428461347619e-08,0.4233395159244537,0.6577355861663818,-0.0140949944034218,0.3874126076698303,0.57173091173172,-0.0169334597885608,0.3757310211658478,0.4973841607570648,-0.0211322121322155,0.3667001724243164,0.4373202621936798,-0.0246734376996755,0.4628844857215881,0.4640249907970428,0.0098392367362976,0.4506385922431946,0.3804902732372284,-0.0024404493160545,0.4381694495677948,0.3297669887542724,-0.018591821193695,0.4261783361434936,0.2818850874900818,-0.0314557366073131,0.5037133097648621,0.4535640478134155,0.0030942212324589,0.5014045834541321,0.3569401502609253,-0.0065468312241137,0.4909237623214721,0.2911868095397949,-0.0216961316764354,0.4768487513065338,0.2344942986965179,-0.0339040793478488,0.5394691824913025,0.4614937007427215,-0.0082701025530695,0.5495002269744873,0.3743215501308441,-0.0197885893285274,0.5414263606071472,0.3163647949695587,-0.0318925455212593,0.526674211025238,0.2660219073295593,-0.0408166199922561,0.5713904500007629,0.4834459125995636,-0.0221831332892179,0.5881366729736328,0.4098501205444336,-0.0339561514556407,0.5895041823387146,0.3570071458816528,-0.0411020740866661,0.5825372934341431,0.3079222440719604,-0.0460770055651664
2023-08-01 15:55:43.226939,40,180,0.6600216627120972,0.6216071844100952,-0.1356864273548126,0.3994561731815338,-0.04833984375,0.91748046875,0.3115234375,0.4848753809928894,0.7076200842857361,2.989928873375902e-07,0.4237111210823059,0.6604169011116028,-0.0145640131086111,0.3841601014137268,0.5702815651893616,-0.0168979987502098,0.3679448366165161,0.4958059787750244,-0.0197342112660408,0.3527845740318298,0.4422062039375305,-0.0220039337873458,0.4595704674720764,0.4463957548141479,0.0073036788962781,0.450588583946228,0.3577079772949219,-0.0004050271236337,0.4455233216285705,0.3016365170478821,-0.0129033280536532,0.4437536001205444,0.2521675229072571,-0.0238884408026933,0.5025879740715027,0.4376538693904876,0.0004301489389035,0.507125735282898,0.3318677544593811,-0.0045426054857671,0.5084694027900696,0.2609173655509949,-0.0161168053746223,0.5077983140945435,0.2050314247608184,-0.0261394418776035,0.5397255420684814,0.4502646028995514,-0.0108452765271067,0.5589557886123657,0.3559170365333557,-0.0192897766828537,0.5648329257965088,0.2921049892902374,-0.0318379327654838,0.5661067962646484,0.2384178638458252,-0.0422892980277538,0.5718351602554321,0.4789248704910278,-0.0245861914008855,0.6031635403633118,0.4097152650356293,-0.0344708897173404,0.6205037832260132,0.359939694404602,-0.0418919920921325,0.6324090361595154,0.3140000700950622,-0.047981534153223
2023-08-01 15:55:43.274081,41,181,0.6621301770210266,0.6207530498504639,-0.1364683359861374,0.3970209658145904,0.01025390625,0.904296875,0.40576171875,0.4862970411777496,0.7159382104873657,2.668948582140729e-07,0.4271916151046753,0.6668317317962646,-0.0153808696195483,0.3863330483436584,0.5715289115905762,-0.017283771187067,0.3666362762451172,0.496885746717453,-0.01984503865242,0.3477519154548645,0.4465485513210296,-0.0220926813781261,0.4580195546150207,0.4441629350185394,0.006467280909419,0.4509800672531128,0.3545101583003998,-0.002711626002565,0.4474732875823974,0.2987265586853027,-0.0158349890261888,0.4471280574798584,0.2494460344314575,-0.0271209105849266,0.5021730661392212,0.4356041848659515,-0.0003129806136712,0.5100031495094299,0.3297773003578186,-0.0058231214061379,0.5148904919624329,0.2608692646026611,-0.017209755256772,0.5179260969161987,0.2046199142932891,-0.027349280193448,0.5403456687927246,0.4484965801239013,-0.0118183679878711,0.5606153011322021,0.3567761182785034,-0.0211526602506637,0.5692850947380066,0.2943053245544433,-0.0339304059743881,0.5730754733085632,0.2399438917636871,-0.0446996353566646,0.5722594261169434,0.477679044008255,-0.0259433109313249,0.6050915718078613,0.4109919667243957,-0.0366013348102569,0.6250531673431396,0.3634725213050842,-0.0442404896020889,0.6400343179702759,0.3190257549285888,-0.0507242456078529
2023-08-01 15:55:43.321080,42,182,0.6638574004173279,0.6197019219398499,-0.1365397125482559,0.3957521021366119,-0.0322265625,0.9404296875,0.279296875,0.4874554276466369,0.723615288734436,2.930084121999244e-07,0.4269419610500335,0.6728895306587219,-0.0145017765462398,0.3846257030963897,0.5739980340003967,-0.0145890554413199,0.3641825020313263,0.4983168244361877,-0.0153395067900419,0.3440488278865814,0.4495105445384979,-0.0156958810985088,0.4575410485267639,0.4422048330307007,0.0093220705166459,0.4520911574363708,0.35057133436203,0.0017544018337503,0.4505018889904022,0.293971300125122,-0.0101754693314433,0.4518424868583679,0.2447012811899185,-0.0206636954098939,0.5026547312736511,0.4343525469303131,0.0026392904110252,0.5145288705825806,0.3281458616256714,-0.0004796664870809,0.5213683843612671,0.25966277718544,-0.0096727153286337,0.5255001187324524,0.2054162919521331,-0.018380157649517,0.5411562323570251,0.4487570822238922,-0.0089974226430058,0.5643001198768616,0.3565660119056701,-0.0163096077740192,0.5737441182136536,0.2956097722053528,-0.0272071454674005,0.5782411694526672,0.2429937720298767,-0.036996517330408,0.5725373029708862,0.479777842760086,-0.0233845300972461,0.6060461401939392,0.4146273732185364,-0.0331099778413772,0.6264309883117676,0.3685986995697021,-0.0399930439889431,0.6424510478973389,0.3254883885383606,-0.0460111983120441
2023-08-01 15:55:43.383964,43,183,0.6656180620193481,0.618495762348175,-0.1372838765382766,0.3944220244884491,-0.05322265625,0.93359375,0.41357421875,0.4872413873672485,0.726463258266449,2.913209584676224e-07,0.4274320304393768,0.6744368076324463,-0.0132595067843794,0.3848423659801483,0.5757972598075867,-0.0129376966506242,0.3633592426776886,0.5007138252258301,-0.0134908137843012,0.3403427302837372,0.4548979997634887,-0.0137313287705183,0.4573166370391845,0.4392222166061401,0.0117248855531215,0.451548159122467,0.3480042815208435,0.0048735630698502,0.4499766528606415,0.2921203970909118,-0.0068389978259801,0.4515843391418457,0.2431346476078033,-0.0172905232757329,0.5030452013015747,0.431951105594635,0.0045744641683995,0.5153131484985352,0.32545006275177,0.0027885446324944,0.5228483080863953,0.2574917674064636,-0.0053644455038011,0.5277734398841858,0.2034887075424194,-0.0135673880577087,0.54193115234375,0.447519451379776,-0.0076591339893639,0.565443754196167,0.3553044199943542,-0.0138932606205344,0.5759913921356201,0.2955016195774078,-0.0236643068492412,0.5817186832427979,0.2431712448596954,-0.0329285636544227,0.5737607479095459,0.4795331954956054,-0.0226543638855218,0.6071919798851013,0.4148066341876983,-0.0315613262355327,0.627659797668457,0.3701526522636413,-0.0377346277236938,0.6441389322280884,0.3273709714412689,-0.0434517972171306
2023-08-01 15:55:43.441863,44,184,0.6665500402450562,0.6176727414131165,-0.137843370437622,0.3939425349235534,0.02294921875,0.8994140625,0.4560546875,0.4876490533351898,0.733545184135437,3.597253055431793e-07,0.4272120594978332,0.6813815832138062,-0.0138660641387104,0.3833777010440826,0.5849900245666504,-0.0148603906854987,0.3594533205032348,0.5154604911804199,-0.0165239553898572,0.3312218189239502,0.4752618074417114,-0.0179090034216642,0.4552062451839447,0.4375831186771393,0.0101970192044973,0.4512655735015869,0.3433883786201477,0.004495536442846,0.4508056342601776,0.2858685255050659,-0.0063938843086361,0.4529514908790588,0.2364990413188934,-0.0165820866823196,0.5013242959976196,0.4319630265235901,0.003000256139785,0.5172572731971741,0.3238385021686554,0.0023498474620282,0.5274580121040344,0.2573109269142151,-0.0052869641222059,0.534692108631134,0.2049285173416137,-0.0131988609209656,0.5410017967224121,0.4502233862876892,-0.0091637093573808,0.5686489939689636,0.356561005115509,-0.0149493981152772,0.5827264189720154,0.2982065677642822,-0.0247017405927181,0.5919925570487976,0.2470434606075287,-0.0340212062001228,0.5731136798858643,0.4855944514274597,-0.0240473505109548,0.6100735664367676,0.4215941131114959,-0.0326447002589702,0.6337841749191284,0.3792653679847717,-0.0383749268949031,0.6542350649833679,0.3384517431259155,-0.0437521077692508
2023-08-01 15:55:43.490552,45,185,0.6660997867584229,0.6176050305366516,-0.1381359100341797,0.3947069942951202,-0.0517578125,0.9404296875,0.31787109375,0.4870156347751617,0.7372205257415771,3.501432956909412e-07,0.4273309111595154,0.6841942071914673,-0.0126821603626012,0.3835685551166534,0.5889221429824829,-0.0126575492322444,0.3597100079059601,0.5218406915664673,-0.0134474169462919,0.3316532969474792,0.4821474850177765,-0.0139262899756431,0.4537598490715027,0.4364857077598572,0.0118963038548827,0.4500904679298401,0.3428820967674255,0.0070504094474017,0.4494378864765167,0.2861294150352478,-0.0028903149068355,0.4509592950344085,0.2372780591249466,-0.0122314412146806,0.4999791383743286,0.4305679500102997,0.0044726124033331,0.5161227583885193,0.3226293921470642,0.0051364232785999,0.5263462066650391,0.2566703259944916,-0.0009160010959021,0.533216655254364,0.2050938904285431,-0.0075527597218751,0.5398340821266174,0.4492904543876648,-0.008003388531506,0.5683503746986389,0.3566108345985412,-0.0128866787999868,0.5819156169891357,0.2990444898605346,-0.0214751083403825,0.590236485004425,0.2479895502328872,-0.0298674162477254,0.572172224521637,0.4853775799274444,-0.0231843218207359,0.6103854775428772,0.4222959876060486,-0.0316290855407714,0.6343482136726379,0.380394846200943,-0.0371440760791301,0.6549041271209717,0.3393357396125793,-0.0421148277819156
2023-08-01 15:55:43.538160,46,186,0.6653955578804016,0.6178656816482544,-0.1380098313093185,0.395530104637146,-0.0400390625,0.92529296875,0.390625,0.4872339069843292,0.7395901679992676,3.6383551105245726e-07,0.4269153475761413,0.6858118772506714,-0.012263398617506,0.3832904696464538,0.5895404815673828,-0.0112399579957127,0.3580385744571686,0.5237040519714355,-0.011238076724112,0.3289034366607666,0.486437439918518,-0.0110229635611176,0.4531510472297668,0.437815248966217,0.0132571421563625,0.4497738778591156,0.3428979516029358,0.0088922530412673,0.4488162398338318,0.2852053642272949,-0.000309743307298,0.4499684870243072,0.2358982264995575,-0.0090394280850887,0.4991258084774017,0.4313357770442962,0.0058425739407539,0.5165287852287292,0.3224555253982544,0.006960307713598,0.5270074605941772,0.2557897269725799,0.0014296387089416,0.5338113307952881,0.2038818299770355,-0.0046062814071774,0.5389183163642883,0.4496432542800903,-0.0066905179992318,0.5681899189949036,0.3574694395065307,-0.011661603115499,0.5827390551567078,0.2992363572120666,-0.0205290783196687,0.5919545292854309,0.2478015273809433,-0.0287971403449773,0.5708151459693909,0.4853023290634155,-0.0218937825411558,0.6107816100120544,0.4233610033988952,-0.0308304037898778,0.636173665523529,0.3817948698997497,-0.0368275381624698,0.6581425070762634,0.3419212102890014,-0.0418795347213745
2023-08-01 15:55:43.602845,47,187,0.6650369167327881,0.6183891296386719,-0.1385012418031692,0.395143449306488,0.01220703125,0.9072265625,0.3486328125,0.4865790605545044,0.7398144006729126,3.637559018443426e-07,0.427436500787735,0.6853815913200378,-0.0112594151869416,0.3839348554611206,0.5900407433509827,-0.0099259624257683,0.3586339950561523,0.5257108807563782,-0.0098810587078332,0.3292986154556274,0.4918274581432342,-0.009811857715249,0.4525441527366638,0.437485933303833,0.0136738251894712,0.4492131769657135,0.3429538607597351,0.0093798674643039,0.4484837353229522,0.2855852842330932,0.0003197421028744,0.4497540891170501,0.2366134524345398,-0.0083876391872763,0.4985821843147278,0.4310795664787292,0.0055713085457682,0.5165281295776367,0.322101891040802,0.005968939512968,0.5273563861846924,0.2556197047233581,-0.000293487595627,0.5345354080200195,0.2036277949810028,-0.0067977327853441,0.538299560546875,0.449352502822876,-0.0074905296787619,0.5685485601425171,0.3566518425941467,-0.0138673614710569,0.5839545726776123,0.2980003356933594,-0.0240339636802673,0.594083309173584,0.2462418526411056,-0.0329481810331344,0.5701286196708679,0.4851075410842895,-0.0229749269783496,0.6118404865264893,0.4230522811412811,-0.0336113907396793,0.6388901472091675,0.381337821483612,-0.0407349281013011,0.6622968912124634,0.3415472507476806,-0.046390913426876
2023-08-01 15:55:43.664944,48,188,0.6652476787567139,0.6184585690498352,-0.138285607099533,0.3947552740573883,-0.06884765625,0.91845703125,0.353515625,0.4890181124210357,0.737824022769928,3.6925902691109513e-07,0.4297889471054077,0.6833651661872864,-0.0111569408327341,0.3858180940151214,0.5893951058387756,-0.0096566509455442,0.3602359592914581,0.5273654460906982,-0.0096186269074678,0.3305727541446686,0.4972287714481354,-0.0096147432923316,0.4527997374534607,0.4371975660324096,0.0138872005045413,0.4477943778038025,0.3431158661842346,0.0100016305223107,0.4462508857250213,0.2856022715568542,0.0014097958337515,0.4469555616378784,0.236313134431839,-0.0069765327498316,0.4991116523742676,0.4302698671817779,0.0057916557416319,0.5158913135528564,0.3218818306922912,0.0068749077618122,0.526389479637146,0.2556330263614654,0.0014532330678775,0.5335848331451416,0.2041103541851043,-0.0044383155182003,0.5391709804534912,0.4483924508094787,-0.0073379888199269,0.5684348344802856,0.3564464747905731,-0.0131041584536433,0.5835516452789307,0.2986071705818176,-0.0227774791419506,0.593651294708252,0.2476010471582412,-0.0312558598816394,0.5715017914772034,0.4837172329425812,-0.0229746047407388,0.6129152178764343,0.4218566715717315,-0.0330148600041866,0.6398000121116638,0.3805334568023681,-0.0398795194923877,0.6630507707595825,0.3411259055137634,-0.045326005667448
2023-08-01 15:55:43.723457,49,189,0.6663498282432556,0.6177173852920532,-0.1370590925216674,0.3944844603538513,-0.02587890625,0.92333984375,0.3857421875,0.4883186519145965,0.7387021780014038,3.763214238006185e-07,0.4298046231269836,0.6848260760307312,-0.0106840170919895,0.3866173326969147,0.5903840661048889,-0.0091184247285127,0.3617737591266632,0.5284414887428284,-0.0089672841131687,0.3316348791122436,0.4992302358150482,-0.0089526334777474,0.4528813362121582,0.436789870262146,0.0136155812069773,0.448211669921875,0.3429373204708099,0.0095150014385581,0.4470018744468689,0.2854290604591369,0.0006844963645562,0.4479355216026306,0.2365080416202545,-0.0078560933470726,0.4990052878856659,0.4301440119743347,0.0053283092565834,0.5168626308441162,0.3215604722499847,0.0061451755464077,0.5275612473487854,0.2549377977848053,0.0002380039950367,0.5345838069915771,0.2031799852848053,-0.0060448297299444,0.5387656688690186,0.4482412338256836,-0.0078324321657419,0.5689616203308105,0.3564267158508301,-0.0136217074468731,0.5838480591773987,0.2980827987194061,-0.0237798783928155,0.5935036540031433,0.2469538450241089,-0.0327607542276382,0.5705238580703735,0.4837002754211426,-0.0233954284340143,0.6126896142959595,0.4226036071777344,-0.0333305820822715,0.6394561529159546,0.3811749815940857,-0.0404059141874313,0.6625295877456665,0.3417009711265564,-0.0461506657302379
2023-08-01 15:55:43.785901,50,190,0.6672148108482361,0.6168797612190247,-0.1362823694944381,0.3946021795272827,-0.05419921875,0.9326171875,0.37548828125,0.4881395697593689,0.7385576963424683,3.765717053738626e-07,0.4296610951423645,0.6847025156021118,-0.011841514147818,0.386624664068222,0.5903027653694153,-0.0109099438413977,0.3619399070739746,0.5275107026100159,-0.011287004686892,0.3315567076206207,0.4976106286048889,-0.0116650015115737,0.4528476893901825,0.4380316138267517,0.0126115372404456,0.4482938051223755,0.3434056937694549,0.0079834787175059,0.4468598961830139,0.2855905890464782,-0.0011196420527994,0.4477265477180481,0.2359391152858734,-0.0097813354805111,0.4989872872829437,0.4310519695281982,0.0048529007472097,0.5156857967376709,0.3224090933799743,0.0053445189259946,0.5262726545333862,0.255629301071167,-0.0004703507001977,0.5337241888046265,0.2038787305355072,-0.0065742647275328,0.5392236113548279,0.4488950371742248,-0.0078795654699206,0.5682160258293152,0.3570226430892944,-0.0135807981714606,0.5832986831665039,0.2994195818901062,-0.0229409206658601,0.5935767889022827,0.2490152865648269,-0.0312591753900051,0.5719619989395142,0.4840180575847626,-0.0232070554047822,0.6130385398864746,0.4226489067077636,-0.0326026976108551,0.6395148038864136,0.3813749253749847,-0.038939855992794,0.6625192165374756,0.3422193527221679,-0.0440883561968803
