Timestamp,Index,Frame ID,w,x,y,z,ax,ay,az,x_0,y_0,z_0,x_1,y_1,z_1,x_2,y_2,z_2,x_3,y_3,z_3,x_4,y_4,z_4,x_5,y_5,z_5,x_6,y_6,z_6,x_7,y_7,z_7,x_8,y_8,z_8,x_9,y_9,z_9,x_10,y_10,z_10,x_11,y_11,z_11,x_12,y_12,z_12,x_13,y_13,z_13,x_14,y_14,z_14,x_15,y_15,z_15,x_16,y_16,z_16,x_17,y_17,z_17,x_18,y_18,z_18,x_19,y_19,z_19,x_20,y_20,z_20
2023-08-01 15:55:54.055969,0,377,0.689835250377655,0.6017375588417053,-0.1407682001590728,0.3771255910396576,-0.05517578125,0.904296875,0.419921875,0.504539430141449,0.7483267784118652,4.772185207002622e-07,0.4416713714599609,0.6864198446273804,-0.0215150602161884,0.3976151347160339,0.5915231704711914,-0.0308550521731376,0.3693063259124756,0.5239803194999695,-0.0401887856423854,0.337019145488739,0.4767138063907623,-0.0499578118324279,0.482194185256958,0.43653604388237,-0.00560058420524,0.48381307721138,0.3345518112182617,-0.0191211458295583,0.4853745102882385,0.2705658674240112,-0.0354725755751132,0.4894596338272095,0.2148595750331878,-0.0495748072862625,0.5303670167922974,0.4336493611335754,-0.0136372512206435,0.5520924925804138,0.3160873651504516,-0.0233098678290843,0.5651571154594421,0.2402476519346237,-0.0383887216448783,0.5759187340736389,0.1782332956790924,-0.051668893545866,0.570881724357605,0.4577528834342956,-0.0266680847853422,0.61024010181427,0.3572272062301636,-0.0424074456095695,0.631778359413147,0.29136723279953,-0.060217697173357,0.6475870609283447,0.2319177389144897,-0.074757695198059,0.6018588542938232,0.5031386613845825,-0.0423848442733287,0.6531121134757996,0.4430266916751861,-0.0602910816669464,0.6865063309669495,0.400018572807312,-0.0715382024645805,0.7157413959503174,0.357260137796402,-0.0804349109530448
2023-08-01 15:55:54.116029,1,378,0.6887469291687012,0.6023266911506653,-0.139276385307312,0.378724604845047,-0.0302734375,0.884765625,0.40966796875,0.5060650706291199,0.7462332248687744,4.468477925456682e-07,0.4425799250602722,0.684323251247406,-0.0197037905454635,0.3980891704559326,0.5883901119232178,-0.027338134124875,0.3692274689674377,0.5201375484466553,-0.0353292860090732,0.3362309634685516,0.4772855043411255,-0.0441062040627002,0.4843091666698456,0.4368387460708618,-0.0022471419069916,0.4858867824077606,0.3376625180244446,-0.0146375698968768,0.4873879849910736,0.2742400169372558,-0.0305499397218227,0.4909611046314239,0.2190280854701995,-0.0445870608091354,0.5323920845985413,0.4328532218933105,-0.0108231622725725,0.554253339767456,0.3161395788192749,-0.019639391452074,0.5669068098068237,0.2404528111219406,-0.034217432141304,0.5770165324211121,0.1784020960330963,-0.0473271980881691,0.5727065205574036,0.4558440148830414,-0.0243885703384876,0.6114500164985657,0.3554657399654388,-0.0393693037331104,0.6320332884788513,0.2890024781227112,-0.0568032599985599,0.6470534801483154,0.2295863330364227,-0.0712539702653884,0.603617250919342,0.500027596950531,-0.0405659303069114,0.6530547142028809,0.4383322894573211,-0.0580245964229106,0.6855748891830444,0.3945527970790863,-0.0690723061561584,0.7142022252082825,0.351771205663681,-0.0780251175165176
2023-08-01 15:55:54.162934,2,379,0.6871061325073242,0.6032702922821045,-0.1384859681129455,0.3804887235164642,-0.111328125,0.94384765625,0.4013671875,0.5076916813850403,0.7469117641448975,4.165230791386421e-07,0.4438052773475647,0.6851481199264526,-0.0200290288776159,0.3998011946678161,0.5885968208312988,-0.0278675202280282,0.3715465664863586,0.5184210538864136,-0.0360111184418201,0.3390868306159973,0.4739613831043243,-0.0448231324553489,0.4861539602279663,0.4389618039131164,-0.0020702315960079,0.4865737855434418,0.3398094773292541,-0.0151079557836055,0.4873370230197906,0.2764030396938324,-0.0316873714327812,0.4903078079223633,0.220753788948059,-0.0461696982383728,0.5341326594352722,0.4342221915721893,-0.0105686727911233,0.5545133948326111,0.3175871074199676,-0.0196206290274858,0.5655326843261719,0.2421562075614929,-0.0342699065804481,0.5737185478210449,0.1794759929180145,-0.0473956391215324,0.5743435621261597,0.4563911855220794,-0.024112394079566,0.6119996309280396,0.3552694320678711,-0.0386554189026355,0.6313220858573914,0.2878605723381042,-0.0551579520106315,0.6448758840560913,0.2272118926048278,-0.0690483748912811,0.6050021052360535,0.4999768733978271,-0.0404244884848594,0.6526604294776917,0.4375007152557373,-0.0569625049829483,0.6836851835250854,0.3926289975643158,-0.0669701993465423,0.7108086347579956,0.3485565185546875,-0.0752697512507438
2023-08-01 15:55:54.214193,3,380,0.6833993792533875,0.6065235137939453,-0.1386976987123489,0.3819129467010498,0.05224609375,0.916015625,0.3642578125,0.5089700222015381,0.7446584701538086,3.825339263130445e-07,0.4461076259613037,0.6817023158073425,-0.0188914407044649,0.4024276733398437,0.5857240557670593,-0.0264489762485027,0.374301552772522,0.5160270929336548,-0.0346553064882755,0.3434440791606903,0.4696319699287414,-0.0434192642569541,0.4888630509376526,0.4428334236145019,-0.0004931088769808,0.487127423286438,0.3422932624816894,-0.0136452484875917,0.4863775372505188,0.2787405848503113,-0.0301879607141017,0.4885652661323547,0.2228612601757049,-0.0444142818450927,0.5354040265083313,0.4374102354049682,-0.0092483470216393,0.552970290184021,0.3195588588714599,-0.0182582195848226,0.5626527667045593,0.2437677234411239,-0.032489713281393,0.5700621604919434,0.1807889640331268,-0.0451715514063835,0.5748986005783081,0.4577687978744507,-0.0230362322181463,0.6093536615371704,0.3541603088378906,-0.0365132465958595,0.6272166967391968,0.2857974171638489,-0.0514012426137924,0.6397578716278076,0.2244261503219604,-0.0641939491033554,0.6058568954467773,0.4982448220252991,-0.0396411381661891,0.6505361795425415,0.4338902831077575,-0.0543156899511814,0.6790214776992798,0.3864506781101227,-0.0627412647008895,0.7037369012832642,0.3398146629333496,-0.0700425803661346
2023-08-01 15:55:54.272231,4,381,0.6769228577613831,0.6137320399284363,-0.1420573890209198,0.3806943297386169,-0.103515625,0.90771484375,0.46728515625,0.510093629360199,0.7452532649040222,3.911560213509802e-07,0.4464958608150482,0.6820930242538452,-0.0188465733081102,0.4024273455142975,0.5860631465911865,-0.0264019835740327,0.3737073838710785,0.5160529017448425,-0.0345254428684711,0.3422484397888183,0.469720721244812,-0.0431422926485538,0.488951027393341,0.4429579079151153,-0.0004525503900367,0.48718923330307,0.3423703908920288,-0.0135766239836812,0.4866399466991424,0.2788245677947998,-0.0300982967019081,0.489095389842987,0.2229496538639068,-0.0443074628710746,0.5353538990020752,0.4375686943531036,-0.0092317489907145,0.5524841547012329,0.3197247684001922,-0.0182410851120948,0.562384307384491,0.2438901364803314,-0.0324110053479671,0.5700550079345703,0.180742472410202,-0.0449700430035591,0.5748992562294006,0.4581974744796753,-0.0230279322713613,0.6088778972625732,0.3543993234634399,-0.0366321839392185,0.6267293095588684,0.2864621877670288,-0.0515482276678085,0.6392707228660583,0.2255114018917083,-0.0642515122890472,0.6060837507247925,0.4989782273769378,-0.0396266803145408,0.6506272554397583,0.4339978396892547,-0.0545870587229728,0.6790947914123535,0.3863803744316101,-0.0632091015577316,0.7038666605949402,0.3394523859024048,-0.0705445632338523
2023-08-01 15:55:54.318374,5,382,0.6730206608772278,0.616680383682251,-0.141398623585701,0.3830861151218414,-0.11328125,0.9208984375,0.30078125,0.5113394856452942,0.7445774078369141,2.9358210440477706e-07,0.4508838057518005,0.6814319491386414,-0.0181102473288774,0.4074887335300445,0.586781919002533,-0.0252981856465339,0.3800300061702728,0.516730546951294,-0.0336116440594196,0.3509940207004547,0.4661594331264496,-0.0422172918915748,0.4909789264202118,0.4493591785430908,0.0034802891314029,0.4871462881565094,0.353068470954895,-0.0099912099540233,0.4837730824947357,0.2918936610221863,-0.0271289013326168,0.4828861057758331,0.2371157109737396,-0.0415823645889759,0.5358415246009827,0.4422369301319122,-0.0054608909413218,0.5493589639663696,0.3269801139831543,-0.0152992811053991,0.5556623339653015,0.2527509033679962,-0.0303615182638168,0.5595645308494568,0.1905757486820221,-0.0434052348136901,0.573906660079956,0.4597340822219848,-0.0196111686527729,0.6037766933441162,0.3593538701534271,-0.0328012704849243,0.6177384853363037,0.2907385230064392,-0.0472405850887298,0.6256245374679565,0.2291662395000457,-0.0594560913741588,0.6048705577850342,0.4961944818496704,-0.0366239845752716,0.6445685029029846,0.4282427728176117,-0.0491424016654491,0.6674501895904541,0.3762711584568023,-0.0563714578747749,0.6848807334899902,0.3254826068878174,-0.0630701035261154
2023-08-01 15:55:54.376843,6,383,0.6687548160552979,0.6198506951332092,-0.1441564708948135,0.3844100832939148,0.02490234375,0.90625,0.3544921875,0.5118778944015503,0.7416169047355652,1.6837495309118824e-07,0.4526330530643463,0.6764640808105469,-0.0154357524588704,0.4117088615894317,0.5809460878372192,-0.0214202776551246,0.386239230632782,0.5082544684410095,-0.0291337557137012,0.3614044189453125,0.4541332423686981,-0.0371175929903984,0.4936788082122803,0.4537761509418487,0.0071614538319408,0.4906403124332428,0.3621453642845154,-0.0074054887518286,0.484253853559494,0.3049274682998657,-0.0264345556497573,0.4780995547771454,0.2519079446792602,-0.0424445047974586,0.5369735956192017,0.4480508267879486,-0.002485571661964,0.5499805808067322,0.3407466411590576,-0.0126380920410156,0.5510550141334534,0.2706102728843689,-0.0299402549862861,0.5478411912918091,0.2094452381134033,-0.0450232289731502,0.5729526281356812,0.4657938778400421,-0.0169982928782701,0.6005422472953796,0.3700182437896728,-0.0286525748670101,0.61086106300354,0.3062643110752105,-0.0418965257704257,0.6128777265548706,0.2492979764938354,-0.0540465004742145,0.601010799407959,0.5042599439620972,-0.0342839583754539,0.6312615871429443,0.4450267851352691,-0.0447814390063285,0.6442819237709045,0.4005055427551269,-0.0499702654778957,0.6501376628875732,0.3595618009567261,-0.0555356219410896
2023-08-01 15:55:54.424417,7,384,0.668083906173706,0.6197088956832886,-0.1428894400596618,0.3862737119197845,-0.04833984375,0.92138671875,0.35546875,0.5111779570579529,0.7421342730522156,-7.366467968950019e-08,0.4516390562057495,0.6734374761581421,-0.0078201405704021,0.4136444926261902,0.5762137174606323,-0.0091060698032379,0.392447292804718,0.5017234683036804,-0.014421971514821,0.3684121966361999,0.4454327225685119,-0.0196202713996171,0.4963261485099792,0.4677878320217132,0.0260626878589391,0.4968380928039551,0.388455182313919,0.0145285744220018,0.4878214299678802,0.3433408737182617,-0.00439322181046,0.4746232032775879,0.3009316325187683,-0.0200249515473842,0.5366731882095337,0.4616296291351318,0.0151131208986043,0.5439658164978027,0.3643797636032104,0.0078313387930393,0.5386486053466797,0.3030301928520202,-0.0087384497746825,0.5277259945869446,0.2487860023975372,-0.0235928744077682,0.571222186088562,0.4741231501102447,-0.0012524946359917,0.5880917906761169,0.384636789560318,-0.0099083334207534,0.5847868323326111,0.3240916132926941,-0.0224834866821765,0.5718756914138794,0.2701653242111206,-0.0339787043631076,0.6031135320663452,0.5041223168373108,-0.0202043317258358,0.6221575736999512,0.4378997683525085,-0.0281696580350399,0.6170830130577087,0.3911816775798797,-0.0334836244583129,0.6003701686859131,0.3507707715034485,-0.0391852296888828
2023-08-01 15:55:54.476860,8,385,0.6683163046836853,0.6198443174362183,-0.1438529789447784,0.3852956891059875,0.01171875,0.91064453125,0.30419921875,0.5091294050216675,0.734983503818512,-3.146367077988544e-07,0.4514613151550293,0.6650577187538147,-0.0019779249560087,0.4142326116561889,0.5694959163665771,0.0035318993031978,0.3960225880146026,0.4927273094654083,0.003049380145967,0.3829182684421539,0.4312564432621002,0.0055378004908561,0.4957492053508758,0.4882391691207886,0.0518986508250236,0.4946406483650207,0.4119496047496795,0.0418631210923194,0.4787090122699737,0.3921451866626739,0.0233353469520807,0.4607598781585693,0.3985929191112518,0.0135209839791059,0.5288640260696411,0.4792037904262543,0.0450405590236187,0.5315043926239014,0.3883117437362671,0.0410351529717445,0.5143659114837646,0.360645055770874,0.0251831263303756,0.4910702407360077,0.3742130994796753,0.0163707975298166,0.5621047019958496,0.4835520982742309,0.031830083578825,0.5731916427612305,0.3987936377525329,0.0305703338235616,0.5562157034873962,0.3608841598033905,0.0225571244955062,0.5311906337738037,0.3615728616714477,0.0190150812268257,0.5974153280258179,0.5018413662910461,0.0161009524017572,0.6115500330924988,0.4341956973075866,0.0171209201216697,0.5954189300537109,0.3980030417442322,0.0161789078265428,0.5674980878829956,0.3941501975059509,0.0173941440880298
2023-08-01 15:55:54.533846,9,386,0.6689746379852295,0.6189374923706055,-0.1446536183357238,0.3853110074996948,-0.05810546875,0.94189453125,0.39013671875,0.5078148245811462,0.7240930795669556,-2.3509552704581443e-07,0.4490664899349212,0.658343493938446,-0.0050682700239121,0.4132488965988159,0.5659329891204834,-0.0018849654588848,0.3962609469890594,0.4915876388549804,-0.0041262656450271,0.3840752243995666,0.4326648414134979,-0.0034250011667609,0.4962941706180572,0.4865202605724334,0.0453615598380565,0.4958868324756622,0.4121286869049072,0.0338428989052772,0.4818070828914642,0.387229859828949,0.0147157944738864,0.4655382931232452,0.3901386857032776,0.0039506871253252,0.529315710067749,0.480068951845169,0.0386438518762588,0.5328878164291382,0.3901042938232422,0.0309277717024087,0.5165418982505798,0.3624942600727081,0.0135601954534649,0.4954690635204315,0.3795223236083984,0.0040804212912917,0.562657356262207,0.486007958650589,0.0256751403212547,0.5767812132835388,0.3976509571075439,0.0200836360454559,0.5596615672111511,0.3596000671386719,0.0101307909935712,0.5360792279243469,0.3656162023544311,0.0059260898269712,0.5985215902328491,0.5056554079055786,0.0101596405729651,0.6145780682563782,0.4347855150699615,0.0058778058737516,0.5962000489234924,0.3980267643928528,0.002238156273961,0.567112147808075,0.3989564776420593,0.0020831834990531
2023-08-01 15:55:54.583002,10,387,0.6695379614830017,0.6186043620109558,-0.145641952753067,0.3844944536685943,-0.01318359375,0.94091796875,0.3515625,0.5060833096504211,0.7150511145591736,-2.044408802248654e-07,0.4474697709083557,0.654664158821106,-0.0105739869177341,0.4121798276901245,0.567197859287262,-0.0098136458545923,0.3953635096549988,0.4922970235347748,-0.0138168074190616,0.3839526176452636,0.4312425851821899,-0.0145332077518105,0.4951140284538269,0.4892007112503052,0.0402321182191371,0.4938176870346069,0.4153134524822235,0.0256440974771976,0.479652851819992,0.3967619240283966,0.0050284070894122,0.4652487337589264,0.4088601768016815,-0.0058216876350343,0.5276126861572266,0.4810051620006561,0.0361340753734111,0.5331916213035583,0.3901878893375397,0.0253604408353567,0.5171056985855103,0.3646420836448669,0.0067025669850409,0.4975101053714752,0.3877020478248596,-0.0027048282790929,0.5606613159179688,0.4866445064544678,0.0252191573381423,0.572226881980896,0.3977927565574646,0.0169774536043405,0.5551795363426208,0.3662842214107513,0.0061129396781325,0.5333849191665649,0.3826028704643249,0.0024999221786856,0.5965831279754639,0.504692018032074,0.011274448595941,0.6114151477813721,0.4331551790237427,0.0052630533464252,0.593932032585144,0.3979375958442688,0.0005453269695863,0.5663292407989502,0.4040277004241943,0.0003513469127938
2023-08-01 15:55:54.644038,11,388,0.6711664795875549,0.6170802116394043,-0.1453317254781723,0.3842217028141022,0.04443359375,0.900390625,0.34130859375,0.5104652643203735,0.7131221890449524,-2.1813075079535338e-07,0.4484100937843323,0.6567515134811401,-0.0124164661392569,0.4137142598628998,0.5671212673187256,-0.0105539159849286,0.3992619514465332,0.4866406619548797,-0.0136657459661364,0.3883536458015442,0.4242524206638336,-0.013357151299715,0.4933021664619446,0.4927032887935638,0.0453482940793037,0.4909453690052032,0.4203242659568786,0.0309694800525903,0.4768357574939728,0.4062334895133972,0.0098100155591964,0.4641493260860443,0.4256902635097503,-0.001284739235416,0.5259513854980469,0.4824371337890625,0.0420503541827201,0.5321614742279053,0.3882549405097961,0.0290955211967229,0.5141749382019043,0.3685741126537323,0.0077219130471348,0.4950219392776489,0.402804434299469,-0.0024057447444647,0.5592405200004578,0.4866033494472503,0.031343039125204,0.5713077783584595,0.3957463204860687,0.0213256031274795,0.5521416664123535,0.3687177300453186,0.0067061074078083,0.5306667685508728,0.3948073387145996,0.001379721914418,0.5964705348014832,0.5024892091751099,0.0174775850027799,0.6114076375961304,0.4300034940242767,0.0110996887087821,0.5912507176399231,0.396754652261734,0.0042132218368351,0.5629636645317078,0.4091106355190277,0.0023639700375497
2023-08-01 15:55:54.692481,12,389,0.6723417639732361,0.6159588098526001,-0.1462817639112472,0.3836052119731903,-0.00390625,0.9345703125,0.3818359375,0.5115328431129456,0.7133004665374756,-2.7533738489182724e-07,0.4475343227386474,0.6619502305984497,-0.0116834677755832,0.4133267104625702,0.5669644474983215,-0.008441069163382,0.4012974798679352,0.4841897189617157,-0.010539811104536,0.3946926593780517,0.4202634394168854,-0.0089545575901865,0.4928796589374542,0.4922265112400055,0.0450705252587795,0.4917128384113312,0.4190999269485473,0.0292063392698764,0.4769966304302215,0.4097445011138916,0.0093997325748205,0.4672986567020416,0.4361551403999328,5.277588206809014e-05,0.5265647768974304,0.4818041920661926,0.0411152280867099,0.5331830978393555,0.3855494856834411,0.025990929454565,0.513268768787384,0.3747093081474304,0.0074895303696393,0.4978530406951904,0.4155257642269134,0.0009708537254482,0.5595424771308899,0.4846226274967193,0.0296116471290588,0.5722217559814453,0.3898035287857055,0.0163119565695524,0.5479147434234619,0.378329873085022,0.0049117361195385,0.5300027132034302,0.4157543778419494,0.0036234215367585,0.5961920619010925,0.4989080429077148,0.0151255447417497,0.6082603931427002,0.4224644303321838,0.0064506423659622,0.5839958786964417,0.4000716209411621,0.0013122977688908,0.5586639642715454,0.4224467277526855,0.0019939769990742
2023-08-01 15:55:54.755616,13,390,0.6743800044059753,0.6147615909576416,-0.1454091072082519,0.3822774291038513,-0.0107421875,0.921875,0.41455078125,0.518650472164154,0.7089943885803223,-4.661161483454634e-07,0.4542481601238251,0.6483949422836304,-0.0174370389431715,0.4190932512283325,0.5570104718208313,-0.0224904716014862,0.4200714230537414,0.4694079458713531,-0.0326490029692649,0.4525019526481628,0.4114249646663666,-0.0388195626437664,0.4785727858543396,0.4943610429763794,0.0283833388239145,0.4784465432167053,0.4227400124073028,0.0048437868244946,0.4614497423171997,0.4510749578475952,-0.0154126165434718,0.4602411687374115,0.4950331449508667,-0.0250652898102998,0.5133000612258911,0.4843265116214752,0.0252950340509414,0.5275127291679382,0.385538637638092,-0.002435197122395,0.5022506713867188,0.4235819876194,-0.0193697679787874,0.495148241519928,0.4818291366100311,-0.0213191658258438,0.5488549470901489,0.4863125681877136,0.0154162067919969,0.5642783641815186,0.3877748847007751,-0.0096486071124672,0.5379430055618286,0.4214676022529602,-0.015273624099791,0.5306271314620972,0.4795414209365845,-0.0092051513493061,0.5859115719795227,0.5002202391624451,0.0028047624509781,0.5944305658340454,0.4199972152709961,-0.0112470788881182,0.5689855813980103,0.4293369352817535,-0.0114046055823564,0.5540807247161865,0.4714705646038055,-0.0056907017715275
2023-08-01 15:55:54.814705,14,391,0.6733585000038147,0.6157181859016418,-0.1480207294225692,0.3815355002880096,0.08984375,0.927734375,0.37939453125,0.5206024646759033,0.7119137048721313,-5.15144563451031e-07,0.4550125300884247,0.6527534127235413,-0.01123365201056,0.4214675724506378,0.5539025068283081,-0.0138302417472004,0.4324531257152557,0.4667287468910217,-0.022889444604516,0.4741371273994446,0.4204558730125427,-0.028730571269989,0.479338139295578,0.500723123550415,0.0312022436410188,0.4800737798213959,0.4262540340423584,0.0102903069928288,0.464631974697113,0.4665301144123077,-0.0071323313750326,0.4658533930778503,0.5105904936790466,-0.0155233982950448,0.5131297707557678,0.4903002083301544,0.0251935012638568,0.5216708183288574,0.3934283256530761,-0.0008424765546806,0.5003214478492737,0.4468499422073364,-0.0148663725703954,0.4992513656616211,0.5040023326873779,-0.0146818719804286,0.5485283136367798,0.48930224776268,0.0132591594010591,0.5587695837020874,0.3862962126731872,-0.010448221117258,0.5361777544021606,0.4339765310287475,-0.0114539554342627,0.5338320136070251,0.4945386946201324,-0.0019842977635562,0.5852466821670532,0.4989404380321502,-0.0008402575622312,0.5872141122817993,0.4164878726005554,-0.0121573777869343,0.5656293630599976,0.4361547529697418,-0.0076949442736804,0.5580310225486755,0.482094943523407,0.0011532221687957
2023-08-01 15:55:54.864243,15,392,0.6721044182777405,0.6158663630485535,-0.1496189683675766,0.3828817307949066,-0.10498046875,0.9541015625,0.3603515625,0.5204929113388062,0.7126214504241943,-5.06969968228077e-07,0.4556883871555328,0.65324467420578,-0.0110847121104598,0.4212678670883178,0.554305911064148,-0.013787000440061,0.4317282140254974,0.4673643112182617,-0.022976441308856,0.4748159050941467,0.423527717590332,-0.0290427114814519,0.4795055985450744,0.5017210841178894,0.0300431065261364,0.4819013774394989,0.4270504713058471,0.0082407817244529,0.46662038564682,0.4660757482051849,-0.0098890615627169,0.4667267203330993,0.5116586685180664,-0.0183788947761058,0.5133505463600159,0.4912861585617065,0.0240009278059005,0.5235962867736816,0.3936259746551513,-0.0024806233122944,0.5018262267112732,0.4456585645675659,-0.016667628660798,0.4996316134929657,0.503999650478363,-0.0163745079189538,0.5486171245574951,0.4900343716144562,0.0120904790237545,0.5601326823234558,0.3881304264068603,-0.0114530138671398,0.5372006297111511,0.4347520470619201,-0.0127084907144308,0.5342952013015747,0.4955291152000427,-0.0033180941827595,0.585179328918457,0.4997444152832031,-0.0020225048065185,0.5885142087936401,0.4178340137004852,-0.0127036105841398,0.566364586353302,0.4363110065460205,-0.0082792080938816,0.5579267740249634,0.4815760850906372,0.000462408614112
2023-08-01 15:55:54.926907,16,393,0.6696754693984985,0.6170444488525391,-0.1541404128074646,0.3834470212459564,0.00244140625,0.927734375,0.38525390625,0.5239237546920776,0.7298261523246765,-6.062171564735763e-07,0.4615150392055511,0.6648139953613281,-0.0032875055912882,0.4248857796192169,0.5654053688049316,-0.0045569399371743,0.4450253844261169,0.4877529740333557,-0.0128099275752902,0.5002108812332153,0.4742745459079742,-0.0191912483423948,0.4723229706287384,0.5140088200569153,0.0252139195799827,0.4658648371696472,0.4402529597282409,0.0013401205651462,0.4545192718505859,0.4925650358200073,-0.0144945923238992,0.46237912774086,0.5349804759025574,-0.021876323968172,0.5086627006530762,0.5082249641418457,0.0148053150624036,0.508730947971344,0.4209211468696594,-0.0135188475251197,0.4951606690883636,0.4832451939582824,-0.0233606807887554,0.5036300420761108,0.5292976498603821,-0.0202253051102161,0.5472148656845093,0.5101162195205688,-0.0004726627666968,0.5458683967590332,0.4175808727741241,-0.027052916586399,0.5309489965438843,0.4812262058258056,-0.0221073925495147,0.5381264686584473,0.5306466817855835,-0.0087519865483045,0.5885491371154785,0.5245823860168457,-0.0169878527522087,0.5719687938690186,0.4512619972229004,-0.0302059836685657,0.5570449233055115,0.4939472675323486,-0.0216158777475357,0.5630977153778076,0.5361194610595703,-0.0101044019684195
2023-08-01 15:55:54.987040,17,394,0.6678220629692078,0.6168562769889832,-0.1560626029968261,0.3861948549747467,0.0048828125,0.92431640625,0.39599609375,0.522327721118927,0.7259019017219543,-5.58866702249361e-07,0.4576914012432098,0.6601775884628296,-0.0047396174632012,0.4213458895683288,0.5642609596252441,-0.006909305229783,0.4427540600299835,0.4898909628391266,-0.0158114898949861,0.4966498017311096,0.4847095310688019,-0.0226964484900236,0.4735899269580841,0.5246092081069946,0.0234656035900115,0.465306669473648,0.4503099918365478,-0.0028277516830712,0.4536311030387878,0.5069001317024231,-0.0188476219773292,0.4615772068500519,0.5425881743431091,-0.0261728353798389,0.5095039010047913,0.519460916519165,0.0135178985074162,0.5072356462478638,0.4338118731975555,-0.0172325298190116,0.4929876327514648,0.502644956111908,-0.0257450118660926,0.5031218528747559,0.5391422510147095,-0.0210572350770235,0.5476014018058777,0.5203809142112732,-0.0017388027627021,0.5447415709495544,0.4265306293964386,-0.0297192856669425,0.5281329154968262,0.4966993331909179,-0.0216135531663894,0.5365642309188843,0.5386514663696289,-0.0054967016912996,0.5898833274841309,0.5316336154937744,-0.0185370817780494,0.5722751021385193,0.4618403613567352,-0.0313554666936397,0.5562566518783569,0.507860541343689,-0.0209223162382841,0.5637019276618958,0.5431028604507446,-0.0078784963116049
2023-08-01 15:55:55.045992,18,395,0.6662105917930603,0.6158236265182495,-0.1572950333356857,0.3901063203811645,0.0205078125,0.9287109375,0.35595703125,0.5220947265625,0.7250657081604004,-5.699186544916302e-07,0.4577293395996094,0.6659511923789978,-0.0061767003498971,0.42072394490242,0.5684877634048462,-0.007766124792397,0.4439275562763214,0.4962188601493835,-0.0151808289811015,0.4964975118637085,0.4921962916851043,-0.0203953720629215,0.4741612672805786,0.5274379849433899,0.0185383763164281,0.4648857116699219,0.4569145739078522,-0.0078379921615123,0.4532948434352875,0.5133281946182251,-0.0225137528032064,0.4615712761878967,0.5453911423683167,-0.0290819481015205,0.51015704870224,0.5232424139976501,0.0097686676308512,0.5063232779502869,0.4423342645168304,-0.0209060627967119,0.4920981526374817,0.5113219022750854,-0.0271943137049675,0.503339946269989,0.5434975624084473,-0.0212347079068422,0.5476894378662109,0.525693416595459,-0.0043427795171737,0.5431660413742065,0.4367860853672027,-0.0327997393906116,0.5268821120262146,0.5078657865524292,-0.0233247708529233,0.5369518995285034,0.5462557673454285,-0.0065926820971071,0.5897841453552246,0.5377270579338074,-0.0200491100549697,0.5707486867904663,0.4710438251495361,-0.0342933125793933,0.5552741885185242,0.5168775916099548,-0.0243893433362245,0.5645878314971924,0.5493724942207336,-0.0117239383980631
2023-08-01 15:55:55.102748,19,396,0.6658493876457214,0.614210844039917,-0.1557683646678924,0.3938600718975067,0.0771484375,0.9130859375,0.35400390625,0.5228846073150635,0.7254025340080261,-5.628424446513236e-07,0.4574769139289856,0.6669864654541016,-0.006763694807887,0.4211122095584869,0.5696098208427429,-0.0080325752496719,0.4439079463481903,0.5000125169754028,-0.0144890816882252,0.4945738017559051,0.4996996521949768,-0.018256552517414,0.4773397743701935,0.5286875367164612,0.0164866913110017,0.4674608707427978,0.4610406160354614,-0.009716959670186,0.4561294913291931,0.5195501446723938,-0.0235536750406026,0.465311735868454,0.5483927130699158,-0.0299728196114301,0.512588620185852,0.5250599980354309,0.0084119979292154,0.5062446594238281,0.4483430683612823,-0.0215059127658605,0.492077887058258,0.5188596844673157,-0.0260013304650783,0.50565105676651,0.5453993678092957,-0.0193297620862722,0.5492181777954102,0.5289111137390137,-0.0050864601507782,0.5415815711021423,0.4450827836990356,-0.03213382512331,0.5256498456001282,0.5165758728981018,-0.0207610055804252,0.53865647315979,0.5483300685882568,-0.0036994703114032,0.5904523730278015,0.5420443415641785,-0.0203943140804767,0.5689430236816406,0.4822466969490051,-0.0336270406842231,0.553810715675354,0.528313398361206,-0.0232958775013685,0.565689742565155,0.5555419921875,-0.0108553627505898
2023-08-01 15:55:55.160552,20,397,0.6656116247177124,0.6138202548027039,-0.1552663892507553,0.3950673639774322,0.013671875,0.916015625,0.3759765625,0.5223294496536255,0.7278310656547546,-5.452252480608877e-07,0.4562544822692871,0.671606719493866,-0.0079569052904844,0.4166935980319977,0.58004230260849,-0.0106607908383011,0.4364334344863891,0.5100163221359253,-0.0180542077869176,0.4867612719535827,0.5070674419403076,-0.0226765051484107,0.4749195873737335,0.5319172739982605,0.013293445110321,0.4615178406238556,0.4703453183174133,-0.0126963574439287,0.4519574344158172,0.5282034277915955,-0.0258493721485137,0.4630545079708099,0.5540661811828613,-0.0322585180401802,0.5094693899154663,0.5289114117622375,0.0055209305137395,0.4985831379890442,0.4616937041282654,-0.0239395406097173,0.4860294461250305,0.5304326415061951,-0.0269211363047361,0.5011405348777771,0.5524497628211975,-0.0200198739767074,0.5444483160972595,0.5336255431175232,-0.0077482922933995,0.5331370234489441,0.4599246382713318,-0.036074087023735,0.518406331539154,0.5301794409751892,-0.0240724384784698,0.5326206684112549,0.5579812526702881,-0.0068287807516753,0.5843042135238647,0.5478883981704712,-0.0227835178375244,0.5604897141456604,0.4909051656723022,-0.0372066982090473,0.5461362600326538,0.5372471213340759,-0.0264518875628709,0.5584322214126587,0.5635486841201782,-0.0137042617425322
2023-08-01 15:55:55.216172,21,398,0.6642650365829468,0.6137836575508118,-0.1519538015127182,0.3986623585224151,0.03173828125,0.935546875,0.37255859375,0.5216505527496338,0.7210726141929626,-4.958562271895062e-07,0.4551576375961303,0.6683843731880188,-0.0087014818564057,0.4173005819320678,0.5752467513084412,-0.0111810145899653,0.4381966590881347,0.5105447173118591,-0.0176192764192819,0.4884921610355377,0.51641845703125,-0.0209811776876449,0.4744027554988861,0.5269639492034912,0.0112869190052151,0.4644335806369781,0.467843234539032,-0.0143078193068504,0.4534948468208313,0.5255059003829956,-0.027259798720479,0.4626177251338959,0.5489208102226257,-0.0339113660156726,0.5090422630310059,0.5256087779998779,0.0042542009614408,0.4995171427726745,0.4595863223075866,-0.0251030065119266,0.4858235120773315,0.5277374386787415,-0.028217202052474,0.501008152961731,0.5466073751449585,-0.0214360989630222,0.5437442660331726,0.5323404669761658,-0.008169219829142,0.5332508087158203,0.4623973369598388,-0.0350679270923137,0.5174776315689087,0.5314005613327026,-0.0228265598416328,0.5318765044212341,0.5544071197509766,-0.0057873385958373,0.5826561450958252,0.5479242205619812,-0.022480821236968,0.5588784217834473,0.4963999092578888,-0.0360446311533451,0.5442705154418945,0.5426123142242432,-0.0257019363343715,0.5572207570075989,0.5661783814430237,-0.0134575068950653
2023-08-01 15:55:55.265170,22,399,0.6632963418960571,0.6148591041564941,-0.1528366655111313,0.3982801139354706,0.01220703125,0.9228515625,0.31103515625,0.519786536693573,0.7230466604232788,-5.268677796266275e-07,0.4548342227935791,0.6715162992477417,-0.0089860251173377,0.4177989065647125,0.5768420696258545,-0.0112939057871699,0.4370098710060119,0.5102393627166748,-0.0174059141427278,0.4855598509311676,0.5155775547027588,-0.0201609507203102,0.4793078601360321,0.5259171724319458,0.0113779883831739,0.4657917022705078,0.4699483513832092,-0.0137642733752727,0.4543527364730835,0.5296180248260498,-0.0258927159011364,0.464717298746109,0.5537217259407043,-0.0319017730653286,0.5129731297492981,0.5249056220054626,0.0046064341440796,0.4999745786190033,0.4622222781181335,-0.0243432782590389,0.4854643940925598,0.5315383672714233,-0.0265162531286478,0.5017469525337219,0.5501861572265625,-0.0190402269363403,0.5467989444732666,0.5325967669487,-0.0075971367768943,0.5327703952789307,0.4671220183372497,-0.0342634096741676,0.5166306495666504,0.53729248046875,-0.0217035505920648,0.532279908657074,0.5596175789833069,-0.0045269606634974,0.5852321982383728,0.5486257076263428,-0.0217148102819919,0.5587831735610962,0.4993287324905395,-0.0347152240574359,0.5443639159202576,0.5453751683235168,-0.0242864582687616,0.5588294267654419,0.5671773552894592,-0.0120898447930812
2023-08-01 15:55:55.311304,23,400,0.6626249551773071,0.6168733239173889,-0.1576303988695144,0.3943958282470703,0.02734375,0.91259765625,0.36767578125,0.5190481543540955,0.7242628931999207,-5.29791577719152e-07,0.4546921253204345,0.6716862916946411,-0.0078291874378919,0.4179853796958923,0.579386830329895,-0.0096934912726283,0.436670571565628,0.5126863121986389,-0.0155937764793634,0.4844383001327514,0.5147746205329895,-0.0180504079908132,0.4791699051856994,0.5258869528770447,0.0133603168651461,0.4650552272796631,0.4703824520111084,-0.0114623103290796,0.4539569318294525,0.5291759967803955,-0.0239498782902956,0.4646607339382171,0.5528663396835327,-0.0303436443209648,0.5124883055686951,0.5255991816520691,0.0060121496208012,0.4997648298740387,0.4623570144176483,-0.0230422560125589,0.4854205250740051,0.5306779742240906,-0.0258330665528774,0.501402735710144,0.5504076480865479,-0.0188211649656295,0.5459916591644287,0.5329059362411499,-0.0067028603516519,0.5318551063537598,0.4646454751491546,-0.0337789431214332,0.515998363494873,0.53441321849823,-0.0215662270784378,0.5318679809570312,0.5580719113349915,-0.0045830425806343,0.5839088559150696,0.5484678149223328,-0.0212353654205799,0.5575644969940186,0.4968743920326233,-0.0354786664247512,0.5428507924079895,0.5442686676979065,-0.0256127379834651,0.556884765625,0.5678932070732117,-0.013556539081037
2023-08-01 15:55:55.357189,24,401,0.6633586287498474,0.6186016201972961,-0.1591179072856903,0.3898317813873291,0.19091796875,0.92626953125,0.296875,0.5186352133750916,0.7225229740142822,-5.249547712082858e-07,0.454542875289917,0.6672530770301819,-0.0065336702391505,0.4190840721130371,0.576816976070404,-0.0084351068362593,0.4381384551525116,0.5125543475151062,-0.0147492261603474,0.4861208200454712,0.5151711702346802,-0.0179646853357553,0.4808358252048492,0.5246519446372986,0.0151506848633289,0.4668031632900238,0.470119833946228,-0.0091366609558463,0.4550492465496063,0.5279937386512756,-0.0219428222626447,0.4652027785778045,0.5516024231910706,-0.0287846513092517,0.5138347148895264,0.5249258279800415,0.0071549792774021,0.500608503818512,0.4615862667560577,-0.0216519571840763,0.4855788052082062,0.5286599397659302,-0.0255076959729194,0.5011827945709229,0.5487522482872009,-0.0194733496755361,0.5468931198120117,0.5323966145515442,-0.0060286242514848,0.5316756367683411,0.4653638005256653,-0.0326891355216503,0.5156112313270569,0.5343509912490845,-0.0212959423661232,0.5317102074623108,0.5573991537094116,-0.0050433930009603,0.5844597220420837,0.5481223464012146,-0.0208588130772113,0.5559331774711609,0.4977178573608398,-0.0347465835511684,0.5415728092193604,0.5451838970184326,-0.0250275861471891,0.5564574599266052,0.5686763525009155,-0.0131913274526596
2023-08-01 15:55:55.402954,25,402,0.6652145385742188,0.6187512278556824,-0.1542989611625671,0.3883661329746246,-0.076171875,0.92431640625,0.38427734375,0.519542396068573,0.7217239141464233,-5.187862939237675e-07,0.455278068780899,0.6673652529716492,-0.0064347609877586,0.4197998344898224,0.5761681795120239,-0.0079592689871788,0.4382903575897217,0.5111211538314819,-0.0140556786209344,0.4853971898555755,0.513098955154419,-0.0171495098620653,0.4806429445743561,0.5252105593681335,0.0161181930452585,0.468475192785263,0.4694920182228088,-0.0083271246403455,0.4561910033226013,0.5255831480026245,-0.0212323386222124,0.4658360481262207,0.5514594316482544,-0.0277902614325284,0.5134080052375793,0.5249881744384766,0.0082308836281299,0.5017121434211731,0.4613130092620849,-0.0209193117916584,0.4869790375232696,0.5277211666107178,-0.0249092318117618,0.5028926134109497,0.5495309829711914,-0.0185310039669275,0.5464223027229309,0.5320653319358826,-0.0049454029649496,0.5324139595031738,0.4637131690979004,-0.0324376560747623,0.5166369080543518,0.5319292545318604,-0.0214442610740661,0.5328078269958496,0.5568320751190186,-0.0049250428564846,0.5837281346321106,0.547789990901947,-0.0197325870394706,0.5566161870956421,0.4953951239585876,-0.0346856862306594,0.5422419905662537,0.542044460773468,-0.0255066603422164,0.5566909909248352,0.5669598579406738,-0.013671557419002
2023-08-01 15:55:55.450913,26,403,0.6668910980224609,0.6179571747779846,-0.1505339741706848,0.3882328867912292,0.0009765625,0.890625,0.392578125,0.5183265209197998,0.7143713235855103,-4.88770865558763e-07,0.4551973044872284,0.6652559041976929,-0.0043572825379669,0.4227675795555115,0.5700036287307739,-0.0035347393713891,0.4420582056045532,0.5030590891838074,-0.0074810548685491,0.4880687594413757,0.4946663975715637,-0.008994173258543,0.4745335280895233,0.522357165813446,0.0206344854086637,0.4686238169670105,0.4618210196495056,-0.0007931093568913,0.4560179412364959,0.5128363370895386,-0.0127924587577581,0.4655126631259918,0.5421287417411804,-0.0185308791697025,0.5082966089248657,0.5202030539512634,0.0126128559932112,0.5052905082702637,0.4473438262939453,-0.0120690008625388,0.4882774651050567,0.5109161734580994,-0.0163338799029588,0.5017219185829163,0.5383985638618469,-0.0106668611988425,0.5430142283439636,0.5261287093162537,-0.000361978309229,0.5369677543640137,0.4453356266021728,-0.0253120511770248,0.518221914768219,0.5097286105155945,-0.0162768065929412,0.5304815769195557,0.5417004823684692,-0.0014242000179365,0.5805104970932007,0.5405948758125305,-0.0145376808941364,0.5560464859008789,0.4820381700992584,-0.0290545262396335,0.5390647053718567,0.527024507522583,-0.0206796284765005,0.550408124923706,0.5565809011459351,-0.0095417872071266
2023-08-01 15:55:55.496506,27,404,0.6695252656936646,0.6169223189353943,-0.1428824663162231,0.3882362842559814,-0.0166015625,0.91943359375,0.3955078125,0.5195978283882141,0.7128350138664246,-4.954475798513158e-07,0.4556672275066376,0.6659639477729797,-0.0087633477523922,0.420064240694046,0.5710166096687317,-0.010624292306602,0.4407864511013031,0.4961828589439392,-0.0174879301339387,0.4895122945308685,0.4716511964797973,-0.0221543963998556,0.473981648683548,0.5267246961593628,0.0201646890491247,0.4688446223735809,0.4563726186752319,-0.0019011348485946,0.45667764544487,0.5049735903739929,-0.0157850123941898,0.4663120806217193,0.5430179238319397,-0.022015368565917,0.5076005458831787,0.5208202600479126,0.0136038782075047,0.5063100457191467,0.4380337595939636,-0.0133902449160814,0.4904990792274475,0.500468373298645,-0.0219851024448871,0.5023239254951477,0.5433490872383118,-0.0177401769906282,0.542297899723053,0.5215561389923096,0.0018708428833633,0.5375752449035645,0.4297909736633301,-0.0261873621493577,0.519655704498291,0.4924281537532806,-0.0214159432798624,0.529110848903656,0.5400499701499939,-0.0073524951003491,0.5797097086906433,0.5322099328041077,-0.0112153952941298,0.5559349060058594,0.4629922807216644,-0.0300540328025817,0.539246141910553,0.5065561532974243,-0.0242558345198631,0.5474589467048645,0.5488783121109009,-0.0132246380671858
2023-08-01 15:55:55.543008,28,405,0.6706395149230957,0.6164467334747314,-0.1440996378660202,0.3866153955459595,0.0517578125,0.94287109375,0.38232421875,0.5206642746925354,0.7150455117225647,-4.291575237402867e-07,0.4530789256095886,0.6642909049987793,-0.0105945747345685,0.4182708263397217,0.5735148787498474,-0.0130709009245038,0.4353094100952148,0.4964895248413086,-0.0206563379615545,0.4788855910301208,0.4588927626609802,-0.0254514329135417,0.4821782410144806,0.5221540331840515,0.0274556018412113,0.4853223264217376,0.4437249302864074,0.007767523638904,0.4658151566982269,0.4815499186515808,-0.0075931171886622,0.467731773853302,0.5248119831085205,-0.0150078507140278,0.5128889679908752,0.5159850120544434,0.0217825770378112,0.5194835662841797,0.4211196899414062,-0.0022447824012488,0.4949196875095367,0.4673138260841369,-0.014785086736083,0.4967195391654968,0.5197510123252869,-0.0140376267954707,0.5451067090034485,0.5161690711975098,0.0104687009006738,0.5490761399269104,0.4135428071022033,-0.0155311170965433,0.5229281187057495,0.4619951844215393,-0.0163472332060337,0.5235981345176697,0.5194733738899231,-0.0064096190035343,0.5798055529594421,0.5271527767181396,-0.0024667037650942,0.5625211000442505,0.451049655675888,-0.0216986499726772,0.5395148396492004,0.4885426759719848,-0.019067445769906,0.5391854643821716,0.5414288640022278,-0.0102220205590128
2023-08-01 15:55:55.591887,29,406,0.6728096008300781,0.6130926609039307,-0.1385505497455597,0.3901901841163635,-0.0556640625,0.93994140625,0.32177734375,0.5145683288574219,0.7157465815544128,-3.0051020871724177e-07,0.4492028355598449,0.6681704521179199,-0.0093543007969856,0.4183414578437805,0.5791835188865662,-0.0103390058502554,0.4283267557621002,0.4987337589263916,-0.0165708344429731,0.4574392139911651,0.4481570422649383,-0.020161747932434,0.4901710152626037,0.5061190724372864,0.0303319711238145,0.5054975152015686,0.426558256149292,0.0140588376671075,0.484718382358551,0.4297764599323272,0.0002602170861791,0.4759180843830108,0.4608768224716186,-0.0059579750522971,0.5210258960723877,0.5033896565437317,0.0237749237567186,0.5376107692718506,0.4069482982158661,0.004501698538661,0.509497344493866,0.421839952468872,-0.0076526338234543,0.4976037442684173,0.465011715888977,-0.008504114113748,0.5521279573440552,0.5076662302017212,0.0116010932251811,0.563174843788147,0.4090740084648132,-0.0094490190967917,0.5334264636039734,0.4347249865531921,-0.0131376041099429,0.5226013660430908,0.4843454360961914,-0.0075786150991916,0.58531653881073,0.521559476852417,-0.0023905518464744,0.5777633786201477,0.444896787405014,-0.0184473916888237,0.5522774457931519,0.4674639999866485,-0.0175145771354436,0.5414068102836609,0.5156492590904236,-0.011131489649415
2023-08-01 15:55:55.638180,30,407,0.6735220551490784,0.6125850677490234,-0.1388768851757049,0.3896418213844299,0.02880859375,0.92919921875,0.34326171875,0.5159040689468384,0.719391942024231,-2.892706447710225e-07,0.4486216008663177,0.6692922115325928,-0.0112308338284492,0.4155956506729126,0.580612063407898,-0.0098116556182503,0.4206355214118957,0.4973596632480621,-0.0131286876276135,0.4388049840927124,0.438734769821167,-0.0134703069925308,0.4938234090805053,0.5010161995887756,0.0382132418453693,0.4966098964214325,0.4279626309871673,0.0252136066555976,0.477403312921524,0.4163705706596374,0.0091692274436354,0.4663920402526855,0.4352024793624878,0.0008382340893149,0.5271394848823547,0.4950125217437744,0.0336158312857151,0.5351306200027466,0.4035267233848572,0.0198733042925596,0.5127248764038086,0.4029378294944763,0.0039732074365019,0.5016693472862244,0.4392332732677459,-0.00148165167775,0.5595153570175171,0.4996240735054016,0.022782452404499,0.5698367953300476,0.4048591256141662,0.0088256541639566,0.5457584857940674,0.4088943302631378,0.0006262271781452,0.5361639261245728,0.4494745433330536,0.0006331002223305,0.5941780209541321,0.5156269669532776,0.0093999402597546,0.594909131526947,0.4383977055549621,-0.0012548821978271,0.5709221959114075,0.436273992061615,-0.0035654322709888,0.5573007464408875,0.470900297164917,-0.0010578908259049
2023-08-01 15:55:55.686416,31,408,0.6751073002815247,0.6100207567214966,-0.1347216814756393,0.3923708796501159,-0.0126953125,0.90673828125,0.31884765625,0.5107859969139099,0.7192942500114441,-1.6440438344034194e-07,0.4489980936050415,0.6694300174713135,-0.0149343525990843,0.416313499212265,0.5805494785308838,-0.0171664897352457,0.4140060245990753,0.5001363754272461,-0.0230699237436056,0.4278960824012756,0.4369647204875946,-0.0254743490368127,0.4938165247440338,0.49368816614151,0.0293330531567335,0.4923021197319031,0.4208294451236725,0.0127427354454994,0.47889244556427,0.3906121253967285,-0.0062804613262414,0.4667024612426758,0.3931649327278137,-0.0159775931388139,0.5289893746376038,0.4868263304233551,0.0258255079388618,0.5340852737426758,0.3951268196105957,0.0096319271251559,0.5163202881813049,0.3789904117584228,-0.0068583656102418,0.5012091398239136,0.4123448133468628,-0.0121052619069814,0.5624321103096008,0.4921614825725555,0.0159471724182367,0.5758880376815796,0.398346483707428,0.0017419737996533,0.5537267923355103,0.3835774660110473,-0.0055280607193708,0.5372148156166077,0.4160422682762146,-0.0040793679654598,0.597852885723114,0.5102770924568176,0.0029530832543969,0.6094487905502319,0.4351228475570678,-0.0076288850978016,0.5869499444961548,0.4080322980880737,-0.0111657492816448,0.5634810328483582,0.4232637584209442,-0.0085778385400772
2023-08-01 15:55:55.745455,32,409,0.6772809028625488,0.6070757508277893,-0.1278112083673477,0.3954920470714569,-0.0224609375,0.916015625,0.36669921875,0.5089471936225891,0.7215589880943298,-1.43045284062282e-07,0.4484544396400451,0.6642714738845825,-0.0092101898044347,0.4146498739719391,0.577008843421936,-0.0080041782930493,0.4116486608982086,0.4977232813835144,-0.0103581631556153,0.4185710549354553,0.4363879561424255,-0.0096527505666017,0.4993400275707245,0.4856555759906769,0.0334058664739131,0.4974624514579773,0.4116518497467041,0.0232309903949499,0.4832824766635895,0.3741650581359863,0.006469908170402,0.464809238910675,0.3571111261844635,-0.0041804281063377,0.5341649651527405,0.4799314141273498,0.0283760298043489,0.5403323769569397,0.3928174376487732,0.0205076355487108,0.5251954197883606,0.3549981713294983,0.006435954477638,0.5033635497093201,0.3576071262359619,-0.0008863631519488,0.5669122934341431,0.4881013333797455,0.0176478549838066,0.5780228972434998,0.4015551209449768,0.0106593705713748,0.5639384388923645,0.3672823011875152,0.0043076993897557,0.5429186224937439,0.3753637969493866,0.003003827529028,0.6012032628059387,0.5077840685844421,0.0039070146158337,0.615226149559021,0.4392594993114471,-0.0029462540987879,0.6024578809738159,0.3997003138065338,-0.006591694895178,0.5802607536315918,0.3942256569862366,-0.0059490911662578
2023-08-01 15:55:55.791625,33,410,0.6776941418647766,0.6064155697822571,-0.1265789419412613,0.3961926400661468,-0.07177734375,0.939453125,0.3388671875,0.5117626786231995,0.7104490399360657,1.7799911233851162e-07,0.4485860168933868,0.6555410623550415,-0.0124844806268811,0.4142297506332397,0.5686509609222412,-0.0146995093673467,0.4048907160758972,0.4970931708812713,-0.018487449735403,0.4013358056545257,0.4381473362445831,-0.0216918233782053,0.5000205636024475,0.467851459980011,0.0104985069483518,0.493724375963211,0.3850239515304565,-0.0006884935428388,0.4858072698116302,0.3310607671737671,-0.0158911868929862,0.4787696301937103,0.2816576659679413,-0.0285937134176492,0.5407170653343201,0.4606967866420746,0.0028564753010869,0.5397568345069885,0.3650567829608917,-0.0071368589997291,0.5333523750305176,0.2978326082229614,-0.0225834120064973,0.525606095790863,0.2393892705440521,-0.034789815545082,0.5765655636787415,0.4727626144886017,-0.0091944504529237,0.5905672311782837,0.38302743434906,-0.0223382301628589,0.5894947052001953,0.320097267627716,-0.0361177586019039,0.5838895440101624,0.2630946040153503,-0.0465358272194862,0.6088809370994568,0.50136798620224,-0.0233063641935586,0.6407033205032349,0.4368787109851837,-0.0367653928697109,0.6530479192733765,0.3862656652927398,-0.0453999303281307,0.6576098203659058,0.3359164893627167,-0.0517472177743911
2023-08-01 15:55:55.842193,34,411,0.679222583770752,0.6049602031707764,-0.1251793801784515,0.3962446451187134,-0.04736328125,0.912109375,0.376953125,0.5132203698158264,0.7127520442008972,1.846122614779233e-07,0.451812595129013,0.6563290953636169,-0.0157849546521902,0.4163576066493988,0.5673599243164062,-0.0189694855362176,0.4079276323318481,0.4914719462394714,-0.0229734014719724,0.4029732942581177,0.4320420026779175,-0.026115670800209,0.5018328428268433,0.4656417965888977,0.0061463974416255,0.4945464432239532,0.3794869184494018,-0.0055577303282916,0.4881686568260193,0.3244398236274719,-0.0203217007219791,0.4836516976356506,0.2738216817378998,-0.0327734872698783,0.5430945754051208,0.4584004878997803,-0.0004767744103446,0.5452573895454407,0.3556039929389953,-0.010931733995676,0.5423137545585632,0.284977912902832,-0.0261647533625364,0.5378668904304504,0.2240144312381744,-0.0385568961501121,0.5787621140480042,0.4702553153038025,-0.0117982570081949,0.5954744219779968,0.3778370916843414,-0.0262601468712091,0.5965216755867004,0.311978280544281,-0.0420792140066623,0.5926294326782227,0.2551565766334533,-0.0538201443850994,0.6110638380050659,0.4972091317176819,-0.0254479013383388,0.6460838317871094,0.4314996600151062,-0.0403211712837219,0.6635233759880066,0.3802249729633331,-0.0513349659740924,0.6732814908027649,0.3315981030464172,-0.0595362298190593
2023-08-01 15:55:55.902002,35,412,0.6809242367744446,0.6037260293960571,-0.1268088221549987,0.3946855664253235,-0.029296875,0.94091796875,0.322265625,0.511644184589386,0.7172952890396118,1.9890931923782773e-07,0.4519789218902588,0.6586767435073853,-0.0125832399353384,0.4181909561157226,0.5646315813064575,-0.0130472928285598,0.4092854857444763,0.4893200099468231,-0.0148071553558111,0.4018657207489013,0.4339776337146759,-0.0160567983984947,0.5019344687461853,0.4595055282115936,0.0107111148536205,0.4961631000041961,0.3722081184387207,0.0018658118788152,0.4908438920974731,0.316187709569931,-0.0113122854381799,0.4880105257034302,0.2652838826179504,-0.0230690836906433,0.5440903902053833,0.4534672498703003,0.0030221901834011,0.5495709180831909,0.3489196300506592,-0.0043758680112659,0.5493236780166626,0.2776716947555542,-0.0182637702673673,0.547324538230896,0.2165333032608032,-0.0301452688872814,0.5799939036369324,0.4670754373073578,-0.0090817902237176,0.5994054675102234,0.3741813004016876,-0.0204486437141895,0.6040617823600769,0.3089224398136139,-0.0353092439472675,0.603593111038208,0.252927154302597,-0.0472064018249511,0.6115802526473999,0.4958219528198242,-0.0234444513916969,0.6473073959350586,0.4321989417076111,-0.0359742082655429,0.6671234965324402,0.3821923732757568,-0.0459945201873779,0.6805421113967896,0.3350585699081421,-0.0540284179151058
2023-08-01 15:55:55.960533,36,413,0.6821643114089966,0.6026941537857056,-0.1281455606222152,0.3936881721019745,-0.13037109375,0.92724609375,0.34619140625,0.511139452457428,0.7213852405548096,1.9244211557634122e-07,0.4534757733345032,0.6640508770942688,-0.0121064148843288,0.4194324910640716,0.5677757263183594,-0.0126884067431092,0.408493161201477,0.4913646876811981,-0.0147530008107423,0.3994353115558624,0.4365422129631042,-0.0164177659898996,0.5016183257102966,0.4557465016841888,0.0106521528214216,0.4970191121101379,0.3676714897155761,0.0020068027079105,0.4924625158309936,0.311320424079895,-0.0110609401017427,0.4909437298774719,0.2604405879974365,-0.022862933576107,0.5443239808082581,0.4510470628738403,0.0024735359475016,0.5518372654914856,0.346301794052124,-0.0042060855776071,0.55369633436203,0.2760152220726013,-0.0172255784273147,0.553966224193573,0.2157253324985504,-0.0286984890699386,0.580692708492279,0.4665439426898956,-0.0100930267944931,0.6014937162399292,0.3734400868415832,-0.0203079506754875,0.6090133786201477,0.3090856075286865,-0.0336218476295471,0.6115605235099792,0.2528967559337616,-0.0448757261037826,0.6121695041656494,0.4978383481502533,-0.0250267144292593,0.6483640074729919,0.4349612891674042,-0.0363242551684379,0.6691533923149109,0.38543701171875,-0.0450197979807853,0.684080958366394,0.3380428552627563,-0.0523676574230194
2023-08-01 15:55:56.006621,37,414,0.6833568811416626,0.6028228998184204,-0.131419837474823,0.3903290629386902,0.1044921875,0.90283203125,0.38623046875,0.5105272531509399,0.7262520790100098,3.389719154256454e-07,0.4503549635410309,0.6703534722328186,-0.0122095048427581,0.4123587608337402,0.573521614074707,-0.0138709535822272,0.3927102088928222,0.5020607113838196,-0.0162056293338537,0.3670555055141449,0.4564313888549804,-0.0185834374278783,0.4938084185123443,0.4406534731388092,0.0078658433631062,0.4906697273254394,0.3460197746753692,0.0017957199597731,0.4894396960735321,0.2886603772640228,-0.0091840969398617,0.4916674494743347,0.2391936779022216,-0.0195245817303657,0.5395184755325317,0.4384897947311401,-0.0002354837342863,0.5533793568611145,0.3300659358501434,-0.0027880037669092,0.5625377893447876,0.260998785495758,-0.0128545053303241,0.5700309872627258,0.2053195536136627,-0.0225278213620185,0.5783199071884155,0.4595414996147156,-0.0125308027490973,0.6053432822227478,0.3671781420707702,-0.0194928795099258,0.6196032166481018,0.3045007884502411,-0.0323559269309043,0.6298531293869019,0.2498029470443725,-0.0440849512815475,0.609693706035614,0.4973944425582886,-0.027007520198822,0.6485656499862671,0.4361696541309356,-0.0364280939102172,0.6734674572944641,0.3919232785701751,-0.0442437455058097,0.6948027610778809,0.3489815592765808,-0.0513407029211521
2023-08-01 15:55:56.063031,38,415,0.6866832971572876,0.6000808477401733,-0.1292972117662429,0.3894242942333221,-0.11328125,0.91943359375,0.35205078125,0.5092256665229797,0.7321047782897949,4.223426230964833e-07,0.4467955529689789,0.6727315187454224,-0.0149262025952339,0.4052507281303406,0.5783405303955078,-0.0186939481645822,0.3782937526702881,0.5133197903633118,-0.0230666697025299,0.3483899235725403,0.4732125699520111,-0.0276141390204429,0.4924114346504211,0.4345627427101135,0.0052367416210472,0.4944016933441162,0.3383134007453918,-0.0019993388559669,0.4960119128227234,0.2796202898025512,-0.0141066350042819,0.4994645416736603,0.2285311818122863,-0.0253832042217254,0.5386112332344055,0.4335070848464966,-0.0031821627635508,0.558692216873169,0.3232347965240478,-0.00594969606027,0.5704654455184937,0.2528913617134094,-0.0161272175610065,0.5788100957870483,0.1959249079227447,-0.0261696483939886,0.5771678686141968,0.4563080668449402,-0.0163116473704576,0.609980583190918,0.3631801903247833,-0.0241824928671121,0.6272085309028625,0.3037568032741546,-0.0366142876446247,0.6389226317405701,0.2504335939884186,-0.0480585880577564,0.6065716743469238,0.4960522651672363,-0.0320625491440296,0.6481122970581055,0.4368860721588135,-0.0428425595164299,0.6740670800209045,0.3957547545433044,-0.0505252815783023,0.6966456770896912,0.355151355266571,-0.0574903786182403
2023-08-01 15:55:56.116216,39,416,0.6887922883033752,0.598724365234375,-0.1279385983943939,0.3882344663143158,-0.05029296875,0.890625,0.4208984375,0.5112462043762207,0.7370890974998474,4.333518575094786e-07,0.4497832953929901,0.6759781241416931,-0.0178197156637907,0.4073343873023987,0.5847031474113464,-0.024643762037158,0.3797428607940674,0.5207785367965698,-0.0322226211428642,0.3497167527675628,0.4782182574272156,-0.0398047789931297,0.4928464293479919,0.4339341819286346,0.004023740068078,0.4962473809719085,0.3395746946334839,-0.0064196386374533,0.5002771019935608,0.280606210231781,-0.0213149264454841,0.5058304667472839,0.2298510372638702,-0.0341874174773693,0.5389070510864258,0.431477427482605,-0.004083517473191,0.5592460632324219,0.3210217356681824,-0.0094346441328525,0.5716540217399597,0.2516292333602905,-0.02131231687963,0.5812670588493347,0.1955274641513824,-0.0323154255747795,0.5782626867294312,0.4536654949188232,-0.0173924583941698,0.6112052798271179,0.3596671223640442,-0.0269584581255912,0.628318190574646,0.2985995411872864,-0.039679329842329,0.6400957703590393,0.2443618178367614,-0.0510674081742763,0.609293520450592,0.4954598248004913,-0.0337071344256401,0.6520429253578186,0.4353182315826416,-0.0441804826259613,0.6791629791259766,0.3941923081874847,-0.0504888221621513,0.7026154398918152,0.3540880084037781,-0.0563462264835834
2023-08-01 15:55:56.161899,40,417,0.6897225379943848,0.5976054668426514,-0.1253503561019897,0.3891501128673553,-0.16455078125,0.9140625,0.40673828125,0.511254608631134,0.7385785579681396,4.260193975369475e-07,0.450270414352417,0.6766415238380432,-0.0174342039972543,0.4080946147441864,0.583253026008606,-0.023174749687314,0.3803862929344177,0.5189946889877319,-0.0296629145741462,0.3502808809280395,0.4775048494338989,-0.0361242368817329,0.4931412637233734,0.4336739480495453,0.0055352351628243,0.4964166581630707,0.3400009870529175,-0.0040657580830156,0.5001935958862305,0.2812589108943939,-0.0181797891855239,0.5059171319007874,0.2307002544403076,-0.0304647330194711,0.5389264822006226,0.4315403699874878,-0.002346574794501,0.5590714812278748,0.3210027813911438,-0.0064558247104287,0.5714125037193298,0.251714289188385,-0.0169974230229854,0.5810452103614807,0.1957799792289734,-0.0270603168755769,0.5780869126319885,0.4542090892791748,-0.0155432997271418,0.6112143993377686,0.3610170483589172,-0.0241277236491441,0.628322958946228,0.3010906875133514,-0.0356058478355407,0.6400434374809265,0.2478580623865127,-0.0461018159985542,0.6087270379066467,0.4961538910865783,-0.0318177938461303,0.6511154174804688,0.4357288479804992,-0.0414968617260456,0.6780526041984558,0.3940478265285492,-0.0471552088856697,0.7016987800598145,0.3531959652900696,-0.0526004470884799
