Timestamp,Index,Frame ID,w,x,y,z,ax,ay,az,x_0,y_0,z_0,x_1,y_1,z_1,x_2,y_2,z_2,x_3,y_3,z_3,x_4,y_4,z_4,x_5,y_5,z_5,x_6,y_6,z_6,x_7,y_7,z_7,x_8,y_8,z_8,x_9,y_9,z_9,x_10,y_10,z_10,x_11,y_11,z_11,x_12,y_12,z_12,x_13,y_13,z_13,x_14,y_14,z_14,x_15,y_15,z_15,x_16,y_16,z_16,x_17,y_17,z_17,x_18,y_18,z_18,x_19,y_19,z_19,x_20,y_20,z_20
2023-08-01 15:55:43.850689,0,191,0.6675629615783691,0.6157776713371277,-0.133229449391365,0.3967714607715606,-0.05322265625,0.94775390625,0.41259765625,0.489156037569046,0.7380425930023193,3.8238840716076083e-07,0.4304311275482178,0.6835420727729797,-0.0119708459824323,0.3874937295913696,0.5908151865005493,-0.0117809111252427,0.361997127532959,0.5292469263076782,-0.01284044329077,0.3315606117248535,0.4972799718379974,-0.0139872282743453,0.4536537528038025,0.4382874667644501,0.0114131001755595,0.4491991102695465,0.343323290348053,0.0062240893021225,0.4476913213729858,0.285128653049469,-0.0031225306447595,0.4481123089790344,0.2353167831897735,-0.0119299171492457,0.4999869763851166,0.4318109154701233,0.0033805316779762,0.5178606510162354,0.3224795460700989,0.003339827992022,0.5281802415847778,0.2556230127811432,-0.0028381568845361,0.5346308350563049,0.2031596302986145,-0.0092747528105974,0.5400850176811218,0.450120061635971,-0.0095906211063265,0.5695796608924866,0.3580895662307739,-0.0158503055572509,0.5844305753707886,0.2993718981742859,-0.0256867967545986,0.5940653681755066,0.2474876642227172,-0.0344456620514392,0.572219967842102,0.4859358966350555,-0.0250801611691713,0.6134589910507202,0.4241620600223541,-0.0349943786859512,0.6398929357528687,0.3822315633296966,-0.0415812022984027,0.6626572608947754,0.3421103954315185,-0.0470198802649974
2023-08-01 15:55:43.905137,1,192,0.667239248752594,0.6155503392219543,-0.1308368295431137,0.3984611928462982,0.04833984375,0.92919921875,0.3671875,0.4888768494129181,0.7404413223266602,3.750865289475769e-07,0.4294070303440094,0.6847882270812988,-0.0111919660121202,0.3857131600379944,0.5901867151260376,-0.0096585815772414,0.3602586984634399,0.5279003977775574,-0.00927877984941,0.3310428261756897,0.4965327680110931,-0.0089285122230649,0.4538759887218475,0.4382964372634887,0.0121788159012794,0.4496287703514099,0.3427348732948303,0.0073345368728041,0.44833505153656,0.2842963337898254,-0.0017594880191609,0.4493475258350372,0.2343495190143585,-0.0102923931553959,0.4999327361583709,0.431569755077362,0.004244698677212,0.5175154209136963,0.3218257427215576,0.0047306800261139,0.5277132391929626,0.254073828458786,-0.0009779343381524,0.5342539548873901,0.2011527419090271,-0.0069472696632146,0.5398883819580078,0.4497849941253662,-0.0085764192044734,0.5700549483299255,0.3567317128181457,-0.0142750926315784,0.5849015712738037,0.2977112531661987,-0.0237588826566934,0.5945639610290527,0.2459364533424377,-0.0321672558784484,0.5718105435371399,0.4855193495750427,-0.0238864608108997,0.6135045289993286,0.4235705137252807,-0.0339336991310119,0.6398211717605591,0.3812419176101684,-0.0407177358865737,0.6625446081161499,0.3409152030944824,-0.046051051467657
2023-08-01 15:55:43.957238,2,193,0.6663605570793152,0.615010142326355,-0.1302089691162109,0.4009635150432586,-0.12890625,0.92333984375,0.44140625,0.488446295261383,0.7401323914527893,3.613406818203657e-07,0.4289045333862304,0.6851190328598022,-0.0122000612318515,0.3859469294548034,0.5906973481178284,-0.0121729299426078,0.3615398705005646,0.5266737341880798,-0.0134352631866931,0.3317999243736267,0.4941888749599457,-0.0148126855492591,0.4553717374801636,0.4374564588069916,0.0118324942886829,0.4515379965305328,0.3442748785018921,0.0059787961654365,0.4498672783374786,0.2866135835647583,-0.0045065018348395,0.4503843188285827,0.23687544465065,-0.0142019754275679,0.501449465751648,0.4302816390991211,0.0035374525468796,0.5187525749206543,0.321370005607605,0.0025914134457707,0.5286001563072205,0.2538860142230987,-0.0045041600242257,0.5349931120872498,0.2003534734249115,-0.0115942303091287,0.5411019325256348,0.4481548070907593,-0.0097619211301207,0.5720234513282776,0.3556698560714721,-0.0166432857513427,0.5866684913635254,0.2965058088302612,-0.02676597610116,0.5959860682487488,0.244147390127182,-0.0356762968003749,0.5723878145217896,0.4841483235359192,-0.02566341124475,0.6140375733375549,0.4215336740016937,-0.0358991771936416,0.639879047870636,0.378746896982193,-0.0424306243658065,0.6619698405265808,0.3376530408859253,-0.0478089042007923
2023-08-01 15:55:44.018152,3,194,0.6627231240272522,0.6177560091018677,-0.1295466870069503,0.4029803872108459,-0.06689453125,0.92041015625,0.32763671875,0.4908184707164764,0.7396072745323181,3.562110748589476e-07,0.4302655756473541,0.6835647821426392,-0.0144584560766816,0.3868511021137237,0.5885571837425232,-0.0165270827710628,0.361390471458435,0.521772027015686,-0.0195291936397552,0.3315428495407104,0.4838708639144897,-0.0225102435797452,0.4582828283309936,0.4387980103492737,0.0087670609354972,0.4543187916278839,0.3440824747085571,0.0007365788333117,0.4525334537029266,0.2860355675220489,-0.0116018131375312,0.4534483850002289,0.2352662682533264,-0.0224866326898336,0.5036230683326721,0.430920660495758,0.0013578421203419,0.5205826163291931,0.3214633464813232,-0.0013409989187493,0.5301094651222229,0.2532149255275726,-0.0096478918567299,0.5366033911705017,0.1986821591854095,-0.0177284944802522,0.5424038767814636,0.4476348459720611,-0.0111954240128397,0.5732776522636414,0.3534086346626282,-0.0184323899447917,0.5882472395896912,0.2931369543075561,-0.0283948183059692,0.5980930328369141,0.2402272373437881,-0.0374348573386669,0.5731895565986633,0.4821590185165405,-0.0266092903912067,0.6139426827430725,0.4180006682872772,-0.0363929085433483,0.6388120055198669,0.3731739819049835,-0.0425924882292747,0.6602300405502319,0.3302263021469116,-0.0479596219956874
2023-08-01 15:55:44.078317,4,195,0.6596305966377258,0.6213744878768921,-0.1317391544580459,0.4017785787582397,0.13232421875,0.91357421875,0.41650390625,0.4913100898265838,0.7391787767410278,3.360588038958668e-07,0.4313273727893829,0.6838452816009521,-0.014765708707273,0.3872167468070984,0.5873490571975708,-0.0175446923822164,0.3626617193222046,0.5196511149406433,-0.0213519912213087,0.3339249491691589,0.477943867444992,-0.0255559124052524,0.4586295783519745,0.4401918649673462,0.0073422500863671,0.4525490999221802,0.3467870354652405,-0.0021382886916399,0.4494409561157226,0.2879962027072906,-0.0161571484059095,0.448901355266571,0.2361139357089996,-0.0285300239920616,0.5041083097457886,0.4321554005146026,-0.0009825638262555,0.5188063383102417,0.3217434287071228,-0.0067960959859192,0.52671217918396,0.2507473826408386,-0.0189523827284574,0.5316959619522095,0.1922175884246826,-0.0300805438309907,0.5426242351531982,0.4483019411563873,-0.0142284324392676,0.570663332939148,0.3538668155670166,-0.0241174679249525,0.5824640393257141,0.2905810475349426,-0.0378296598792076,0.5887138843536377,0.2343166470527649,-0.0497164465487003,0.5733399987220764,0.4822225570678711,-0.0300794951617717,0.6117276549339294,0.4155257940292358,-0.0410570241510868,0.6342538595199585,0.3670945167541504,-0.0488667674362659,0.6521626114845276,0.3200002014636993,-0.0560357384383678
2023-08-01 15:55:44.123962,5,196,0.656924843788147,0.622885525226593,-0.1315429061651229,0.4039303660392761,0.013671875,0.91650390625,0.2841796875,0.4901766180992126,0.7327483892440796,2.630701487760234e-07,0.4316187798976898,0.6778723001480103,-0.0143285980448126,0.3882713317871094,0.5801457762718201,-0.0167604126036167,0.3639555871486664,0.5090810060501099,-0.0205056611448526,0.3363498151302337,0.463676244020462,-0.0247921030968427,0.4622154831886291,0.4420287609100342,0.0084689641371369,0.4550285339355469,0.3506965339183807,-0.0016954701859503,0.4501098692417145,0.2930808663368225,-0.0163314342498779,0.4476986825466156,0.2413131892681121,-0.0291397217661142,0.5063731670379639,0.4345827102661133,-1.3028712601226289e-05,0.517985999584198,0.3244526386260986,-0.0067514865659177,0.5233317017555237,0.2538407146930694,-0.0198010969907045,0.5261355638504028,0.1940686404705047,-0.0317828133702278,0.5434232354164124,0.4495260715484619,-0.0134226353839039,0.5685858726501465,0.3545324802398681,-0.0238725133240222,0.5773541331291199,0.2907989025115967,-0.037613533437252,0.5801063179969788,0.233704924583435,-0.049605019390583,0.573741614818573,0.4812650084495544,-0.0294003151357173,0.608674943447113,0.4128959476947784,-0.0402210019528865,0.6278512477874756,0.362345814704895,-0.048037115484476,0.6411577463150024,0.313073992729187,-0.0555142983794212
2023-08-01 15:55:44.169633,6,197,0.6557803153991699,0.6249396204948425,-0.132547914981842,0.4022856056690216,0.11181640625,0.88232421875,0.39697265625,0.4894218444824219,0.7251687049865723,1.952292478790696e-07,0.4302148818969726,0.6692137718200684,-0.0140008460730314,0.3887117803096771,0.5721979141235352,-0.016803678125143,0.3655055165290832,0.4975737035274505,-0.0212188456207513,0.3390464782714844,0.4468069076538086,-0.0262953769415617,0.4642254114151001,0.4426154792308807,0.0096270106732845,0.4586422145366668,0.3533352613449096,-0.0016395041020587,0.4524260759353637,0.2974011301994324,-0.0175123885273933,0.4470816850662231,0.245585635304451,-0.0311862416565418,0.5085145831108093,0.4358974397182464,0.0009021644364111,0.5211483836174011,0.329658180475235,-0.0069855656474828,0.5231850147247314,0.2596938610076904,-0.0215149354189634,0.5204886198043823,0.1998678743839264,-0.034711692482233,0.5450077056884766,0.4501053690910339,-0.0127600487321615,0.5706847906112671,0.3584212064743042,-0.0235949903726577,0.5761629343032837,0.2957103848457336,-0.0372665785253047,0.5733718276023865,0.240075796842575,-0.0492377541959285,0.5741961598396301,0.4802111983299255,-0.0290054008364677,0.6059252619743347,0.4130806922912597,-0.0399204157292842,0.6197856664657593,0.3631113171577453,-0.0474745370447635,0.6259052753448486,0.3156942725181579,-0.0547506511211395
2023-08-01 15:55:44.220910,7,198,0.6543815732002258,0.6253523230552673,-0.1306350529193878,0.4045413136482239,-0.05615234375,0.912109375,0.2255859375,0.4867551922798157,0.716962456703186,8.329152478836478e-08,0.4298185110092163,0.657006025314331,-0.0138107296079397,0.3904572427272796,0.5640179514884949,-0.0173584353178739,0.3689543008804321,0.4910289943218231,-0.0229629557579755,0.3453582525253296,0.4361693561077118,-0.028643362224102,0.4697240889072418,0.4415763020515442,0.0131610305979847,0.463954895734787,0.3575895428657532,0.0012588230893015,0.4550626277923584,0.3066199421882629,-0.0157614927738904,0.4462378323078155,0.2583790421485901,-0.0298909191042184,0.5117696523666382,0.4355418682098388,0.0050803385674953,0.5214490294456482,0.3357145190238952,-0.0028578478377312,0.5175673365592957,0.2698797583580017,-0.0173435676842927,0.5088165402412415,0.2126880586147308,-0.0304260458797216,0.546507716178894,0.4496791362762451,-0.0083231506869196,0.5691848397254944,0.3611656427383423,-0.0190834160894155,0.5709132552146912,0.3013008236885071,-0.0320108793675899,0.5628119707107544,0.2488950490951538,-0.0428412109613418,0.574845552444458,0.4796355664730072,-0.0244492068886756,0.6002421379089355,0.4083190858364105,-0.0355972535908222,0.6033318638801575,0.3560794591903686,-0.0433011092245578,0.5955855846405029,0.3070722818374634,-0.0501522496342659
2023-08-01 15:55:44.277865,8,199,0.6543244123458862,0.6260277628898621,-0.1332781910896301,0.4027229845523834,0.05712890625,0.9052734375,0.3525390625,0.4888717532157898,0.7086939811706543,-1.4167264339448593e-07,0.4279955327510834,0.6411010026931763,-0.0060121887363493,0.3896169662475586,0.5441235303878784,-0.0035073081962764,0.3741757869720459,0.4652073979377746,-0.0055862981826066,0.3640427887439728,0.4024211764335632,-0.00577760534361,0.4725630283355713,0.4453615248203277,0.0390411280095577,0.4737840890884399,0.3682216107845306,0.0277206487953662,0.458722174167633,0.331609159708023,0.0087167872115969,0.4368489682674408,0.3091905117034912,-0.0037504041101783,0.5107671022415161,0.4393985271453857,0.0313405804336071,0.5221245884895325,0.3488155305385589,0.0255341101437807,0.5104346871376038,0.2975785434246063,0.0103814750909805,0.4870596826076507,0.274577647447586,-0.0005854430492036,0.5449728965759277,0.4497084319591522,0.0173141602426767,0.5646001100540161,0.3656517267227173,0.0108535001054406,0.5527783632278442,0.3173619210720062,0.0008053086348809,0.5266526937484741,0.2973572611808777,-0.0056112431921064,0.5776546597480774,0.4736831188201904,0.0006750778411515,0.5985974073410034,0.4056949019432068,-0.0057681468315422,0.5912371277809143,0.3601517677307129,-0.0110587812960147,0.5687789916992188,0.3348416686058044,-0.0139317139983177
2023-08-01 15:55:44.324273,9,200,0.6544069051742554,0.6257239580154419,-0.1332000494003296,0.4030866026878357,-0.0478515625,0.92138671875,0.35595703125,0.4885921478271484,0.6996966600418091,-1.3160453704585964e-07,0.4285311996936798,0.6345630288124084,-0.0063492357730865,0.3903061151504516,0.5394161939620972,-0.0027181641198694,0.3757584393024444,0.4600825011730194,-0.0034486593212932,0.3677462935447693,0.3994395136833191,-0.0015040333382785,0.4742846488952636,0.4464340806007385,0.04213223233819,0.4741697907447815,0.370266854763031,0.0306541249155998,0.4587616324424743,0.3371662497520447,0.0117088994011282,0.4373624920845032,0.3245903849601745,0.0004047492111567,0.5109614133834839,0.4390961527824402,0.0363973751664161,0.5216128826141357,0.3518310487270355,0.0312972515821456,0.5098721981048584,0.3058458566665649,0.0170996636152267,0.4862552881240845,0.2948971390724182,0.008027059957385,0.5448153614997864,0.448079913854599,0.0239585377275943,0.5616772770881653,0.3660587072372436,0.0178382415324449,0.5499752759933472,0.3203476667404175,0.0087475655600428,0.5239478945732117,0.3099525570869446,0.0042770537547767,0.5781451463699341,0.470179945230484,0.0088903633877635,0.5986546874046326,0.4052352607250213,0.002771653002128,0.5903142690658569,0.3627540171146393,-0.0020973186474293,0.566611111164093,0.3455308675765991,-0.003542503574863
2023-08-01 15:55:44.373107,10,201,0.6547361612319946,0.6260595917701721,-0.1340295970439911,0.4017537534236908,0.0283203125,0.931640625,0.30859375,0.4878319501876831,0.6930668354034424,-1.828586562169221e-07,0.4278873801231384,0.6297507286071777,-0.0049563911743462,0.3919404149055481,0.5377134084701538,-0.000258340354776,0.3768303990364074,0.4581984877586365,-0.0003747310256585,0.3674419522285461,0.3970426917076111,0.0023855555336922,0.473590612411499,0.4482246041297912,0.0481918565928936,0.4721045196056366,0.3734557926654815,0.0382909588515758,0.4548951089382171,0.3441105484962463,0.0199141111224889,0.4327470362186432,0.3373540639877319,0.0091037340462207,0.5088276863098145,0.4397133886814117,0.0424147583544254,0.5142541527748108,0.3535570502281189,0.038164135068655,0.4990798234939575,0.3110168576240539,0.022147100418806,0.4730157554149627,0.3051600456237793,0.0118458112701773,0.5427440404891968,0.4471017718315124,0.0298964492976665,0.5561657547950745,0.3672452569007873,0.0246024318039417,0.5423629879951477,0.3199501037597656,0.0129144191741943,0.5148013830184937,0.3106570839881897,0.0065980213694274,0.5775277614593506,0.4667197167873382,0.0149497119709849,0.5950912833213806,0.4025347232818603,0.0096609592437744,0.584595799446106,0.3606568276882171,0.0036966453772038,0.5591604113578796,0.3471176326274872,0.0013056581374257
2023-08-01 15:55:44.432238,11,202,0.6544545292854309,0.6269733309745789,-0.1339164823293686,0.4008244276046753,0.06982421875,0.9208984375,0.400390625,0.4860360026359558,0.6866125464439392,-2.168340955677195e-07,0.426874041557312,0.6253811120986938,-0.0083398846909403,0.3910044729709625,0.5336360335350037,-0.0054470133036375,0.3769663274288177,0.4549172520637512,-0.0071971276775002,0.3715269267559051,0.391498327255249,-0.0055935848504304,0.4716153442859649,0.4475664496421814,0.0428567826747894,0.4689437747001648,0.3720152676105499,0.0282724071294069,0.4489606022834778,0.3509587943553924,0.0077657336369156,0.4252150356769562,0.3565901517868042,-0.0028316159732639,0.5066679120063782,0.4391570091247558,0.0384517796337604,0.5144243240356445,0.3519680500030517,0.0314153395593166,0.4961821138858795,0.3142207264900207,0.0156445670872926,0.4684083759784698,0.3164887726306915,0.0067216427996754,0.541398823261261,0.4479224681854248,0.0268819853663444,0.5581470131874084,0.3648595511913299,0.0199135821312665,0.5414870977401733,0.3234429359436035,0.0101950708776712,0.5124198198318481,0.3228616714477539,0.0064025679603219,0.576085090637207,0.4680133461952209,0.0124582983553409,0.5956615209579468,0.4014477133750915,0.0061079999431967,0.5802503228187561,0.3646990656852722,0.0016413532430306,0.5505061149597168,0.361298531293869,0.0013578570215031
2023-08-01 15:55:44.478216,12,203,0.6554000377655029,0.6265407800674438,-0.133406177163124,0.4001250267028808,-0.015625,0.935546875,0.29443359375,0.4863179624080658,0.6876898407936096,-2.823034037646721e-07,0.4264585375785827,0.6283775568008423,-0.007986344397068,0.3921495676040649,0.5377181172370911,-0.0053003896027803,0.3791535496711731,0.458093523979187,-0.0076683294028043,0.3740848004817962,0.3926162123680115,-0.0064558293670415,0.4690497815608978,0.4536027312278747,0.043430421501398,0.464207261800766,0.3777599930763244,0.0291010495275259,0.4448559582233429,0.3625789582729339,0.0089764855802059,0.4252874255180359,0.3742346167564392,-0.0015091946115717,0.503020703792572,0.4436983466148376,0.0385661572217941,0.5067391395568848,0.3532170951366424,0.0301837008446455,0.4869701266288757,0.3258286416530609,0.0133999520912766,0.4627073407173157,0.3416092991828918,0.0046805175952613,0.5379064679145813,0.4493997395038605,0.0268519558012485,0.5501678586006165,0.361300528049469,0.0194459538906812,0.5319394469261169,0.3269171416759491,0.0097074368968606,0.5065954327583313,0.3364330530166626,0.0064422679133713,0.5749170780181885,0.4664351642131805,0.0122908782213926,0.5901281833648682,0.397195041179657,0.0060107777826488,0.5721057653427124,0.3631886541843414,0.0015809526666998,0.5426760911941528,0.3656860291957855,0.0016007403610274
2023-08-01 15:55:44.524233,13,204,0.656158983707428,0.6257449984550476,-0.134750485420227,0.3996757864952087,-0.00634765625,0.892578125,0.35400390625,0.4861795306205749,0.6840008497238159,-2.53090917112786e-07,0.4245706498622894,0.6262362003326416,-0.0114644272252917,0.3922278583049774,0.5354090332984924,-0.0086627295240759,0.3815551698207855,0.4543023705482483,-0.0107918949797749,0.3757188618183136,0.389176070690155,-0.0088543016463518,0.4678786993026733,0.457913875579834,0.0436799600720405,0.4622866511344909,0.3797473311424255,0.0267247892916202,0.4450075328350067,0.3714573681354522,0.005590854678303,0.4316461682319641,0.3964316844940185,-0.0041044666431844,0.5019258856773376,0.4463543593883514,0.0406231172382831,0.5072872042655945,0.3514851927757263,0.0291711334139108,0.4889177083969116,0.3286510407924652,0.0118535282090306,0.4703143239021301,0.3560467362403869,0.0046535311266779,0.5359798073768616,0.4514559805393219,0.0299211926758289,0.5494046211242676,0.3615410327911377,0.0207580160349607,0.5298687219619751,0.3349474668502807,0.0117239709943532,0.5085797905921936,0.3577240109443664,0.0105792321264743,0.5726749300956726,0.4676596522331238,0.0158604308962821,0.5883772969245911,0.3975022137165069,0.009677730500698,0.568805456161499,0.367283284664154,0.0059855417348444,0.5413717031478882,0.3784360289573669,0.0074539468623697
2023-08-01 15:55:44.583880,14,205,0.6563842296600342,0.626120388507843,-0.1390084773302078,0.3972525298595428,0.04248046875,0.90625,0.40673828125,0.4909430146217346,0.6820163130760193,-4.860501690018282e-07,0.4279758036136627,0.61625736951828,-0.0125280478969216,0.4004822373390198,0.5266810059547424,-0.0141026768833398,0.406951755285263,0.4411561191082001,-0.0221729855984449,0.4307246208190918,0.379288762807846,-0.0266715418547391,0.4585255086421966,0.4638423919677734,0.0378562174737453,0.458665668964386,0.3905633985996246,0.0161759424954652,0.4427438974380493,0.4239034950733185,-0.0041777347214519,0.4420584440231323,0.4724502861499786,-0.0137907518073916,0.49130380153656,0.4543984234333038,0.0329634584486484,0.5035037994384766,0.3537404537200928,0.0079835522919893,0.4791532456874847,0.3916207253932953,-0.0099371308460831,0.4737834930419922,0.4497600495815277,-0.0131304776296019,0.526665449142456,0.4574710130691528,0.0212511625140905,0.5409576892852783,0.3572942614555359,-0.0014628807548433,0.5149717926979065,0.3904308974742889,-0.008127411827445,0.5087597370147705,0.4476813375949859,-0.0033121106680482,0.5664089918136597,0.4721744954586029,0.0071021388284862,0.5760560631752014,0.3902536332607269,-0.0045906947925686,0.5508931279182434,0.3990930914878845,-0.0041239536367356,0.5371291041374207,0.4407933056354522,0.0016163921682164
2023-08-01 15:55:44.633766,15,206,0.6562103033065796,0.6261393427848816,-0.1398872435092926,0.3972017467021942,-0.09814453125,0.94775390625,0.287109375,0.4910845756530761,0.6855301856994629,-4.798922077497991e-07,0.4280041754245758,0.6219706535339355,-0.0149997137486934,0.3983012437820434,0.5288084745407104,-0.0180887337774038,0.4043298661708832,0.4413493275642395,-0.0269954893738031,0.4287174642086029,0.3776080012321472,-0.0317027866840362,0.4596739709377289,0.4631693661212921,0.0346542187035083,0.4634126722812652,0.3886784613132477,0.0093562984839081,0.4504239559173584,0.4242895841598511,-0.0132055440917611,0.4491109251976013,0.4765259325504303,-0.0233736746013164,0.493378609418869,0.4544371366500854,0.0303683150559663,0.5062781572341919,0.3543609380722046,0.0029521854594349,0.4831310510635376,0.3919849097728729,-0.016065564006567,0.4766891896724701,0.4514555633068084,-0.0196460261940956,0.5281083583831787,0.4570035338401794,0.0187136232852935,0.5449815988540649,0.3599202632904053,-0.005044512450695,0.5198183059692383,0.3903424441814422,-0.0128732323646545,0.5127698183059692,0.4457865059375763,-0.0087645770981907,0.5663956999778748,0.4707271158695221,0.0042388485744595,0.5784802436828613,0.3912152051925659,-0.0079305246472358,0.5543872117996216,0.3987351059913635,-0.0090117920190095,0.5397703647613525,0.4382789134979248,-0.0044617829844355
2023-08-01 15:55:44.692295,16,207,0.6546190977096558,0.6272966861724854,-0.1450638025999069,0.3961428105831146,0.04345703125,0.9375,0.28173828125,0.4918999671936035,0.6888911724090576,-5.652336767525412e-07,0.428901344537735,0.620394766330719,-0.0099238380789756,0.40057373046875,0.528400182723999,-0.0138405840843915,0.4130696654319763,0.4458359777927398,-0.0249975398182868,0.4480032622814178,0.3904225528240204,-0.0328248217701911,0.4600029289722442,0.4692374467849731,0.0299004316329956,0.4657796025276184,0.3910887837409973,0.0035320359747856,0.4485687613487243,0.4324818849563598,-0.0170776825398206,0.4456022083759308,0.4828726053237915,-0.0260930955410003,0.492791473865509,0.4612399339675903,0.0219940245151519,0.5047129988670349,0.3607628345489502,-0.0080795502290129,0.4796261489391327,0.4170030057430267,-0.0234293099492788,0.4767944514751434,0.4775161445140838,-0.0233468152582645,0.5281099081039429,0.4639526605606079,0.007808119058609,0.543081521987915,0.361513614654541,-0.0185496360063552,0.5153393745422363,0.4092108309268951,-0.0201034657657146,0.5097403526306152,0.4701102972030639,-0.0104866120964288,0.5657963156700134,0.4781140983104706,-0.0084746219217777,0.5755507946014404,0.3939586579799652,-0.0204352121800184,0.5491389036178589,0.4100933074951172,-0.0159272588789463,0.5352921485900879,0.4531622231006622,-0.0068375566042959
2023-08-01 15:55:44.744976,17,208,0.6511300802230835,0.6296544075012207,-0.1530442088842392,0.3951483070850372,0.07958984375,0.9599609375,0.37841796875,0.4938483834266662,0.6911202669143677,-5.624420964522869e-07,0.4307903051376343,0.6222132444381714,-0.0088081676512956,0.4012910723686218,0.5287812352180481,-0.0124528612941503,0.4182725250720978,0.4503472745418548,-0.0236607920378446,0.4611036777496338,0.4089666306972503,-0.0316635780036449,0.4600811600685119,0.4766834676265716,0.0307092554867267,0.4641058146953583,0.3958417475223541,0.0057416269555687,0.4498066008090973,0.4439139068126678,-0.0145175270736217,0.4484196901321411,0.4977943301200866,-0.0235898345708847,0.4922007322311401,0.4690169095993042,0.0229480024427175,0.500000536441803,0.3699620962142944,-0.0054811546579003,0.4809736311435699,0.4303942918777466,-0.0208962298929691,0.4807841777801513,0.4916457533836365,-0.0213985964655876,0.5273069739341736,0.4702367186546325,0.0092254607006907,0.5375237464904785,0.3626696467399597,-0.0152087854221463,0.5152072906494141,0.4160159826278686,-0.0157061889767646,0.5116847157478333,0.4807390868663788,-0.0057795015163719,0.5648914575576782,0.4832469820976257,-0.0066181384027004,0.5693772435188293,0.3976420760154724,-0.0175627768039703,0.5465793013572693,0.418497234582901,-0.0122679816558957,0.535643994808197,0.4654501676559448,-0.0028796587139368
2023-08-01 15:55:44.806281,18,209,0.6492717862129211,0.6301401257514954,-0.1563118398189544,0.3961519002914428,0.03173828125,0.9384765625,0.36181640625,0.4965764880180359,0.7116445302963257,-6.34443381386518e-07,0.4306719303131103,0.6412124633789062,-0.0043480601161718,0.3947569131851196,0.5472899079322815,-0.0063887438736855,0.4141614735126495,0.4765324592590332,-0.0162419751286506,0.4683431088924408,0.470684677362442,-0.0238757226616144,0.4488834738731384,0.4976994693279266,0.0301440153270959,0.4405964314937591,0.4217334985733032,0.0043050209060311,0.4308942854404449,0.4772206842899322,-0.0137894796207547,0.4386503398418426,0.5176452994346619,-0.0225687995553016,0.483991801738739,0.4933975338935852,0.019724678248167,0.4817589223384857,0.400524377822876,-0.0094059482216835,0.4686619937419891,0.4663629531860351,-0.0208039432764053,0.4757840037345886,0.5095151662826538,-0.0190107394009828,0.5235930681228638,0.4947795569896698,0.0037067218217998,0.5219784379005432,0.3940946757793426,-0.0229150019586086,0.5076509118080139,0.4630129635334015,-0.0167429596185684,0.5141772627830505,0.5139114856719971,-0.0025611650198698,0.5666869282722473,0.507768988609314,-0.0140210483223199,0.5543202757835388,0.4288541674613952,-0.0255097597837448,0.5383622050285339,0.4717613160610199,-0.0150501299649477,0.5428637266159058,0.5141159296035767,-0.0024040630087256
2023-08-01 15:55:44.868830,19,210,0.6478918194770813,0.6308263540267944,-0.1593793779611587,0.3960963487625122,0.05615234375,0.93896484375,0.33349609375,0.4994140863418579,0.7027864456176758,-5.725734695261053e-07,0.4330745637416839,0.6375440359115601,-0.0041023516096174,0.395951896905899,0.5480462312698364,-0.0061465851031243,0.412446916103363,0.4731242060661316,-0.0156438276171684,0.465119332075119,0.4623781740665436,-0.0231774877756834,0.4531453251838684,0.50580894947052,0.0281304679811,0.443973571062088,0.4260503947734833,0.0031597423367202,0.431280642747879,0.4773661494255066,-0.0146355098113417,0.4351937770843506,0.519582986831665,-0.0228084810078144,0.4873625338077545,0.5012044310569763,0.0184190422296524,0.4849331676959991,0.4056883752346039,-0.009669124148786,0.4695487022399902,0.4701965749263763,-0.0209580995142459,0.474993348121643,0.5171154737472534,-0.019068831577897,0.5252167582511902,0.5007331371307373,0.0035289209336042,0.5243850350379944,0.3948909640312195,-0.0220432449132204,0.5067014694213867,0.462330162525177,-0.0161611139774322,0.5107620358467102,0.5174076557159424,-0.001962904818356,0.5672780871391296,0.5112010836601257,-0.0129184769466519,0.5558043122291565,0.430302619934082,-0.0240642242133617,0.5368778705596924,0.4715344309806824,-0.0141225913539528,0.5385445952415466,0.5149558782577515,-0.0017169187776744
2023-08-01 15:55:44.930079,20,211,0.6477779746055603,0.6317580342292786,-0.1615156978368759,0.3939266204833984,0.0517578125,0.9384765625,0.2919921875,0.4950622320175171,0.7036603689193726,-6.390026783265057e-07,0.4298025071620941,0.6388784050941467,-0.00474514067173,0.3916339576244354,0.5498618483543396,-0.0061427252367138,0.4125728607177734,0.4805663228034973,-0.0141742136329412,0.468094140291214,0.4784095585346222,-0.0196186248213052,0.4464756846427917,0.5057803392410278,0.0240798313170671,0.4334422349929809,0.4358610510826111,-0.0053181704133749,0.4248564839363098,0.498074471950531,-0.0219011548906564,0.4334147572517395,0.529170036315918,-0.0291103608906269,0.4824516773223877,0.5020629167556763,0.0144385350868105,0.4743930101394653,0.4180775284767151,-0.0181893501430749,0.4626804888248443,0.493514746427536,-0.02500431984663,0.4729433059692383,0.5245527029037476,-0.0189693514257669,0.5212597250938416,0.5032461285591125,-0.0011513619683682,0.5133130550384521,0.4125987291336059,-0.0315030626952648,0.4996374547481537,0.4906891286373138,-0.0209736637771129,0.509815514087677,0.5283971428871155,-0.002772661158815,0.5653463006019592,0.5142602920532227,-0.0182402431964874,0.5463453531265259,0.4452825486660003,-0.0311516337096691,0.5323949456214905,0.4947324097156524,-0.0189737081527709,0.5417355895042419,0.525980532169342,-0.0045871678739786
2023-08-01 15:55:44.986013,21,212,0.6481831669807434,0.6318556666374207,-0.1620381325483322,0.3928873240947723,-0.01025390625,0.921875,0.34619140625,0.4966847896575928,0.702620804309845,-6.254060167520947e-07,0.4313847422599792,0.6444846391677856,-0.0086967963725328,0.3919713795185089,0.5502293109893799,-0.0109529793262481,0.4135186374187469,0.4798579812049866,-0.0184473507106304,0.4665130972862243,0.486354798078537,-0.0223482307046651,0.4513099789619446,0.5013197660446167,0.019004775211215,0.4403904974460602,0.4371667802333832,-0.0103189060464501,0.4291914105415344,0.5021649599075317,-0.0249207187443971,0.4363061785697937,0.5286255478858948,-0.0310836434364318,0.486418068408966,0.4995718896389007,0.0113493427634239,0.4768837988376617,0.4261760711669922,-0.0215830001980066,0.4636231958866119,0.5018380284309387,-0.0252072811126709,0.4750155806541443,0.5250495672225952,-0.0167852845042943,0.5230855345726013,0.5036527514457703,-0.0028380292933434,0.5129928588867188,0.4284603893756866,-0.0324414335191249,0.4987418055534363,0.5035027861595154,-0.0202757511287927,0.5107342600822449,0.5300794839859009,-0.0014849483268335,0.5654397010803223,0.5166140198707581,-0.0191077645868062,0.5449491143226624,0.4565892815589905,-0.0306968912482261,0.5312831997871399,0.5042338967323303,-0.0185283385217189,0.5430915951728821,0.5290306210517883,-0.0046118423342704
2023-08-01 15:55:45.034814,22,213,0.6486110091209412,0.6326479911804199,-0.1637973189353943,0.3901677429676056,0.056640625,0.92529296875,0.3662109375,0.4973187744617462,0.6966979503631592,-5.862277134838223e-07,0.4324039220809936,0.6422571539878845,-0.0091356271877884,0.3936951756477356,0.5500140190124512,-0.011282973922789,0.4170841574668884,0.4811480045318603,-0.0184045955538749,0.4688085615634918,0.488910436630249,-0.0218410845845937,0.4487294256687164,0.5012943148612976,0.0196453370153903,0.4387041926383972,0.4404084980487823,-0.0091248909011483,0.4287993907928467,0.5029051303863525,-0.0244107022881507,0.4357109367847442,0.5284057855606079,-0.0313945896923542,0.4854897260665893,0.4991213679313659,0.0121224587783217,0.476621150970459,0.428439736366272,-0.0198845025151968,0.4640683233737945,0.5003787279129028,-0.0247402265667915,0.4750236272811889,0.5212149620056152,-0.0177771914750337,0.5231505036354065,0.5037568807601929,-0.0018941415473818,0.5142229199409485,0.4294617176055908,-0.0309808626770973,0.4997194409370422,0.5028750896453857,-0.0195084884762763,0.5108240246772766,0.5285285115242004,-0.0016351973172277,0.5662689805030823,0.5176125764846802,-0.0180408433079719,0.546295166015625,0.460920125246048,-0.0303082503378391,0.5319035053253174,0.508507490158081,-0.0189491230994462,0.5424695014953613,0.5329985022544861,-0.0056968065910041
2023-08-01 15:55:45.090116,23,214,0.6488131880760193,0.6334072351455688,-0.164249986410141,0.3884052038192749,0.056640625,0.93896484375,0.32177734375,0.4996132552623749,0.6930811405181885,-5.812432277707558e-07,0.4333024322986603,0.6407601833343506,-0.0098816165700554,0.3946654200553894,0.5489109754562378,-0.0113000813871622,0.4193359911441803,0.4828507900238037,-0.0170970745384693,0.4707278907299042,0.489850789308548,-0.0188060980290174,0.4510508179664612,0.5002439022064209,0.0173099134117364,0.4400889575481415,0.4404941499233246,-0.0120299588888883,0.4298931956291199,0.5040935277938843,-0.0268185567110776,0.4380659162998199,0.5282642841339111,-0.0332322120666503,0.4877326190471649,0.498704046010971,0.0105954697355628,0.4781348407268524,0.4294029474258423,-0.022059679031372,0.4653080105781555,0.5027700662612915,-0.0255758110433816,0.4785404503345489,0.5215083360671997,-0.0173572711646556,0.5245850682258606,0.5036509037017822,-0.0027076215483248,0.5152454376220703,0.4319750070571899,-0.0323303081095218,0.5001676678657532,0.5059501528739929,-0.0195701122283935,0.5131438970565796,0.5294530391693115,-0.0006134562427178,0.567114531993866,0.5171025395393372,-0.0182485003024339,0.5483795404434204,0.46145099401474,-0.0310212168842554,0.5330508947372437,0.509686291217804,-0.0193113330751657,0.5440921783447266,0.5331575870513916,-0.0056016230955719
2023-08-01 15:55:45.150311,24,215,0.6487271785736084,0.6343138217926025,-0.1647934466600418,0.3868361413478851,-0.00830078125,0.93212890625,0.38427734375,0.5005475878715515,0.6901828050613403,-5.78196591050073e-07,0.4355799257755279,0.6421635150909424,-0.0109221599996089,0.3959264755249023,0.5497325658798218,-0.0127309504896402,0.4201478064060211,0.4825363159179687,-0.0183239039033651,0.4715688228607178,0.4880914390087127,-0.0198840778321027,0.4521871507167816,0.4976581931114197,0.0130164325237274,0.4420090019702911,0.4400516152381897,-0.0156379472464323,0.4320858120918274,0.5041282773017883,-0.0294556934386491,0.4399942755699157,0.5267117023468018,-0.0355942025780677,0.4896214604377746,0.4962167143821716,0.0067541929893195,0.4800927639007568,0.4286825954914093,-0.0246177669614553,0.4668249189853668,0.5021873116493225,-0.0266086459159851,0.479813277721405,0.5201739072799683,-0.0179770458489656,0.5263745188713074,0.5025131106376648,-0.0058820829726755,0.5167819261550903,0.4322034120559692,-0.0344800949096679,0.5017315745353699,0.50638747215271,-0.0206897594034671,0.5148677825927734,0.5293766856193542,-0.0016800900921225,0.5684440732002258,0.5177830457687378,-0.0208107326179742,0.5494982004165649,0.4628715515136719,-0.0337267853319644,0.5343813300132751,0.5098977088928223,-0.0220874268561601,0.5456188917160034,0.5321929454803467,-0.0086939791217446
2023-08-01 15:55:45.205908,25,216,0.6487144827842712,0.6359754800796509,-0.1658637672662735,0.3836585879325866,-0.01611328125,0.91162109375,0.3828125,0.503186821937561,0.6923021674156189,-5.632740567307337e-07,0.4378309249877929,0.6425002217292786,-0.011087336577475,0.3992437422275543,0.5503246784210205,-0.0129440398886799,0.4243892133235931,0.4842398464679718,-0.0185128226876258,0.4760220050811767,0.4887827038764953,-0.0199609510600566,0.4581345021724701,0.499192476272583,0.0135391224175691,0.4475991129875183,0.4396597445011139,-0.0146349193528294,0.4368890523910522,0.5009394288063049,-0.0284476019442081,0.4456087648868561,0.5235867500305176,-0.0345828309655189,0.4945870339870453,0.4982646703720093,0.0077362367883324,0.4848577082157135,0.4285915791988373,-0.0236347969621419,0.4704513251781463,0.4996587038040161,-0.0264285746961832,0.483864277601242,0.5189073085784912,-0.0182031225413084,0.5302273035049438,0.5046019554138184,-0.0043701119720935,0.520388662815094,0.4328913688659668,-0.0328168720006942,0.5040125846862793,0.5041770339012146,-0.020126586779952,0.5177058577537537,0.5280346274375916,-0.0016744746826589,0.5713526606559753,0.519956111907959,-0.0187599677592515,0.5516778230667114,0.4639743268489837,-0.0316185802221298,0.5356020331382751,0.508915364742279,-0.0206474438309669,0.5471932291984558,0.5319055914878845,-0.0076004504226148
2023-08-01 15:55:45.252805,26,217,0.6489132046699524,0.6381759643554688,-0.1672887057065963,0.3790218830108642,0.0673828125,0.927734375,0.32275390625,0.5042998194694519,0.6926311254501343,-5.641708185066818e-07,0.4381308257579803,0.6429224014282227,-0.0113871600478887,0.3992283046245575,0.5502945780754089,-0.0135581623762846,0.4246769845485687,0.4829532504081726,-0.0193928834050893,0.4754990935325622,0.4895241260528564,-0.0209401585161685,0.4577095806598663,0.4970558583736419,0.0139026707038283,0.4504921734333038,0.4358536601066589,-0.01500631775707,0.4383024573326111,0.4976888000965118,-0.0297944415360689,0.444456398487091,0.524408221244812,-0.036340482532978,0.4942893981933594,0.4969869554042816,0.0082100853323936,0.4871654808521271,0.4296897947788238,-0.0229124408215284,0.4724881052970886,0.5008035898208618,-0.0260430313646793,0.4842571020126343,0.5221065282821655,-0.0182753708213567,0.5299358367919922,0.5038726329803467,-0.0039660301990807,0.5228131413459778,0.4329911470413208,-0.0319760404527187,0.5064674615859985,0.5048266053199768,-0.0190612282603979,0.5181741714477539,0.5309174656867981,-0.0006786246667616,0.5710762143135071,0.5200309753417969,-0.0185411628335714,0.5539971590042114,0.4649295806884765,-0.031280979514122,0.5384454727172852,0.5107811689376831,-0.0202697608619928,0.5482954978942871,0.534243643283844,-0.0072402055375278
2023-08-01 15:55:45.300120,27,218,0.6490180492401123,0.6405589580535889,-0.1663874983787536,0.375199943780899,0.05517578125,0.9453125,0.3330078125,0.5068172812461853,0.6911171674728394,-5.630980695059407e-07,0.441019207239151,0.6444482803344727,-0.0121347224339842,0.4008699357509613,0.5498828291893005,-0.01383772585541,0.4261419475078583,0.4819074273109436,-0.0190179627388715,0.4777910709381103,0.4868015646934509,-0.0196901876479387,0.456265240907669,0.4976652562618255,0.0130768241360783,0.4470394849777221,0.4370931088924408,-0.0163809452205896,0.4376607835292816,0.4999099373817444,-0.0309083014726638,0.4457641839981079,0.5229718089103699,-0.0371506474912166,0.4939555823802948,0.4967875778675079,0.0076955999247729,0.4860608577728271,0.4277281165122986,-0.0245217084884643,0.4727354645729065,0.5007668137550354,-0.0272402893751859,0.4851455390453338,0.5196871161460876,-0.0185856595635414,0.5303983688354492,0.5030925273895264,-0.0042664599604904,0.5225321650505066,0.4323412775993347,-0.0333382375538349,0.5071661472320557,0.5056755542755127,-0.0201247595250606,0.5198898315429688,0.5298681855201721,-0.0010464057559147,0.5721288323402405,0.5178287029266357,-0.0186550989747047,0.5545017123222351,0.4631485342979431,-0.031752273440361,0.5393393039703369,0.5095699429512024,-0.020569710060954,0.5503495335578918,0.5320128798484802,-0.0072016855701804
2023-08-01 15:55:45.347221,28,219,0.6490771770477295,0.6418434381484985,-0.1662106812000274,0.3729740679264068,0.04931640625,0.9345703125,0.34130859375,0.5041466355323792,0.6923067569732666,-5.508832714440359e-07,0.4392282664775848,0.639451801776886,-0.0104275466874241,0.4030174314975738,0.5473592281341553,-0.0118504809215664,0.4300488233566284,0.4836999475955963,-0.0171246845275163,0.4814381003379822,0.4868510663509369,-0.0184759106487035,0.4587110579013824,0.4969655871391296,0.0138435745611786,0.4503433406352997,0.4349235296249389,-0.0152107803151011,0.4406474828720093,0.4958791434764862,-0.0301011074334383,0.4495532512664795,0.5213257074356079,-0.0365514531731605,0.4957531690597534,0.4963973462581634,0.0077486550435423,0.4890555441379547,0.4258458018302917,-0.0240008998662233,0.4748852550983429,0.4983150660991668,-0.0278189871460199,0.4882048964500427,0.5197492837905884,-0.0200428441166877,0.5323678255081177,0.5032336711883545,-0.004545999225229,0.5257517099380493,0.4306932389736175,-0.0331268906593322,0.5086203217506409,0.5038171410560608,-0.0205564592033624,0.5211007595062256,0.5310083031654358,-0.0019032224081456,0.5742852687835693,0.5192564129829407,-0.0190755221992731,0.5582716464996338,0.4619083404541015,-0.0321193970739841,0.5410325527191162,0.5079360604286194,-0.020736800506711,0.550816535949707,0.5322778224945068,-0.0071292598731815
2023-08-01 15:55:45.409443,29,220,0.6483238339424133,0.6445581316947937,-0.1667368561029434,0.3693504333496094,0.01953125,0.9248046875,0.35791015625,0.5058264136314392,0.6893052458763123,-5.633510795632901e-07,0.4412425756454468,0.6326488256454468,-0.0089932261034846,0.406809538602829,0.5437085628509521,-0.0105332005769014,0.4333372116088867,0.4808353781700134,-0.0164228864014148,0.4839834570884704,0.4822313487529754,-0.01822398789227,0.4645595848560333,0.492859423160553,0.0155556034296751,0.4577480852603912,0.4289732873439789,-0.0142193883657455,0.4459660053253174,0.4907172322273254,-0.0294648669660091,0.4548531174659729,0.5179698467254639,-0.0358742773532867,0.5009887218475342,0.4952819049358368,0.0088372249156236,0.495266705751419,0.423696756362915,-0.0237052775919437,0.4789614081382751,0.4967651069164276,-0.0278976671397686,0.4927777051925659,0.5193902254104614,-0.0203643701970577,0.5369078516960144,0.5030794143676758,-0.0040806513279676,0.532241940498352,0.428847074508667,-0.0335144884884357,0.512330949306488,0.5017525553703308,-0.0207057539373636,0.5249046087265015,0.5308528542518616,-0.0016436971491202,0.5781537890434265,0.519536554813385,-0.0190920326858758,0.5641186237335205,0.4604358673095703,-0.0320741683244705,0.5447667837142944,0.5058607459068298,-0.0203337520360946,0.5539227724075317,0.5314256548881531,-0.0063626090995967
2023-08-01 15:55:45.466758,30,221,0.647986114025116,0.647090494632721,-0.1653775572776794,0.3661119937896728,-0.0224609375,0.9345703125,0.3154296875,0.5108630061149597,0.6838899254798889,-5.386345947044902e-07,0.4464369416236877,0.6264160871505737,-0.0112138614058494,0.4127765893936157,0.53647780418396,-0.0135037628933787,0.4426138401031494,0.4744753241539001,-0.0197376944124698,0.4945038855075836,0.4814813733100891,-0.0222396198660135,0.4664342403411865,0.4892852008342743,0.0138726569712162,0.4620273113250732,0.4281574189662933,-0.0156202670186758,0.4475294351577759,0.4875190258026123,-0.0310109928250312,0.4540811777114868,0.5142185688018799,-0.037770576775074,0.5046975612640381,0.4902734458446502,0.0079186800867319,0.5017756223678589,0.4202679693698883,-0.0247599836438894,0.4836359024047851,0.4913079142570495,-0.0292367823421955,0.4962379336357116,0.5152965784072876,-0.0217815078794956,0.5421184301376343,0.4979034662246704,-0.0043404647149145,0.5411475896835327,0.4265243411064148,-0.034366738051176,0.5192570686340332,0.4976501166820526,-0.0223780274391174,0.5299112796783447,0.5281022787094116,-0.0035436763428151,0.5844742059707642,0.5155783295631409,-0.0188634917140007,0.5745497941970825,0.4568667411804199,-0.0326403565704822,0.5542277097702026,0.5012264847755432,-0.021445233374834,0.5614482760429382,0.5281533598899841,-0.0076863528229296
2023-08-01 15:55:45.514358,31,222,0.6486799120903015,0.6487515568733215,-0.1637896746397018,0.3626413345336914,-0.01025390625,0.93310546875,0.302734375,0.5133482217788696,0.6844234466552734,-5.046031219535507e-07,0.4498152732849121,0.6265729069709778,-0.0126232737675309,0.4170653820037842,0.5349836349487305,-0.0161923989653587,0.4501823782920837,0.4740509390830993,-0.0233001075685024,0.5032564401626587,0.4829456806182861,-0.0270249526947736,0.4676919877529144,0.4912957549095154,0.0117000583559274,0.4624298214912414,0.4302254617214203,-0.017939493060112,0.4500436782836914,0.4873697161674499,-0.0342106409370899,0.4571743905544281,0.5143112540245056,-0.0417331047356128,0.5073177814483643,0.4909002482891083,0.0061385533772408,0.5040907859802246,0.4197811186313629,-0.0262987986207008,0.4878987967967987,0.4893438220024109,-0.0313782840967178,0.5007633566856384,0.5146779417991638,-0.0244545526802539,0.5456135869026184,0.4987874329090118,-0.0056564141996204,0.5448380708694458,0.4268445074558258,-0.0351076200604438,0.5241031646728516,0.4959830641746521,-0.0236015897244215,0.5342804789543152,0.5267670154571533,-0.0053626419976353,0.5887085795402527,0.517023503780365,-0.0198263134807348,0.5792893171310425,0.4574622809886932,-0.0332294814288616,0.5596059560775757,0.5011488795280457,-0.0219590030610561,0.5662826299667358,0.5282884240150452,-0.0084113497287034
2023-08-01 15:55:45.560070,32,223,0.6490626931190491,0.6496198177337646,-0.1631249636411667,0.3606965243816376,0.04443359375,0.93310546875,0.35009765625,0.5141708850860596,0.685241162776947,-5.087616159471509e-07,0.450420618057251,0.6241019368171692,-0.0120434192940592,0.4202181696891784,0.530971348285675,-0.0148670095950365,0.4544654190540313,0.4709143042564392,-0.0215826593339443,0.5060312151908875,0.4823760390281677,-0.0250262711197137,0.4730123281478882,0.4915219247341156,0.0140452627092599,0.4697152078151703,0.4292177855968475,-0.0157830026000738,0.4540977478027344,0.4854817986488342,-0.0324529372155666,0.459334522485733,0.5144124627113342,-0.0399347245693206,0.5117776393890381,0.4927863776683807,0.0084539456292986,0.5104644894599915,0.4208744764328003,-0.0244355238974094,0.4914017915725708,0.4896205365657806,-0.0308170765638351,0.5029214024543762,0.516480028629303,-0.0245852153748273,0.5496602058410645,0.5015618801116943,-0.0033894903026521,0.5512168407440186,0.4265720248222351,-0.0332126431167125,0.5285074710845947,0.4955136477947235,-0.0224014446139335,0.5374801754951477,0.5284098386764526,-0.0043254205957055,0.5921184420585632,0.5204399228096008,-0.0175681579858064,0.5857149958610535,0.4581825733184814,-0.0312252361327409,0.5645314455032349,0.5015140771865845,-0.0202897563576698,0.5697634220123291,0.5305598974227905,-0.0067680436186492
2023-08-01 15:55:45.608079,33,224,0.6495218276977539,0.6506646275520325,-0.1616628617048263,0.3586388528347015,-0.0146484375,0.923828125,0.3310546875,0.5155843496322632,0.6850783824920654,-4.918267677567201e-07,0.451823890209198,0.6221238970756531,-0.0125365126878023,0.4229211807250976,0.5308206677436829,-0.0156811196357011,0.4585391879081726,0.4726160764694214,-0.0227618012577295,0.5097963213920593,0.4835816919803619,-0.0266809184104204,0.475606620311737,0.4907103180885315,0.0143791586160659,0.4746459722518921,0.4292643070220947,-0.0148362834006547,0.4583465456962585,0.48421311378479,-0.0316249243915081,0.4620173275470733,0.5141371488571167,-0.0392441824078559,0.5149074196815491,0.4924381375312805,0.0089075369760394,0.5158488154411316,0.4209707379341125,-0.0226498171687126,0.4961510002613067,0.4880567491054535,-0.0288998465985059,0.506321907043457,0.5167011022567749,-0.0229885447770357,0.5531368851661682,0.5020197629928589,-0.0029125970322638,0.5575096011161804,0.4275705814361572,-0.0319894775748252,0.5335560441017151,0.4948554933071136,-0.0215636063367128,0.5404179692268372,0.5304437875747681,-0.0039483895525336,0.5955669283866882,0.5226057171821594,-0.0171293802559375,0.5921489000320435,0.4593971967697143,-0.0301774386316537,0.5698861479759216,0.5008554458618164,-0.0191127806901931,0.572771430015564,0.5310351848602295,-0.0056518958881497
2023-08-01 15:55:45.653885,34,225,0.6498220562934875,0.6513510942459106,-0.1597422659397125,0.3577085435390472,0.00439453125,0.931640625,0.3369140625,0.5147272944450378,0.6830102801322937,-4.959615012012364e-07,0.4545979797840118,0.6165128350257874,-0.0102966418489813,0.4285029470920563,0.5263274908065796,-0.0125361010432243,0.4629401266574859,0.4698455333709717,-0.0194326937198638,0.512870192527771,0.4829548597335815,-0.0232272241264581,0.4808988273143768,0.4881443977355957,0.0178150832653045,0.4815162420272827,0.4268140494823456,-0.0099195232614874,0.4643840491771698,0.4810039103031158,-0.0258572548627853,0.4675246775150299,0.5114309191703796,-0.0328565910458564,0.5190961360931396,0.4916382133960724,0.0114747947081923,0.5209165811538696,0.4211271703243255,-0.0189661253243684,0.5003760457038879,0.4875833392143249,-0.0250839181244373,0.510129988193512,0.5176612138748169,-0.0190051086246967,0.5565494298934937,0.5021220445632935,-0.0010379299055784,0.5619917511940002,0.4291950464248657,-0.0293946042656898,0.5366741418838501,0.4955660998821258,-0.0194060336798429,0.5421743392944336,0.5331774950027466,-0.001824983395636,0.5978033542633057,0.5234261751174927,-0.0157436113804578,0.5964996218681335,0.4588062763214111,-0.0277703553438186,0.5733654499053955,0.499058723449707,-0.0164312832057476,0.5748829245567322,0.5312250256538391,-0.0026981551200151
2023-08-01 15:55:45.701193,35,226,0.6496123671531677,0.6514732837677002,-0.1592537015676498,0.3580844700336456,-0.02099609375,0.93115234375,0.33154296875,0.5163383483886719,0.6831254959106445,-5.142435384186683e-07,0.4573357105255127,0.6163948774337769,-0.0097783813253045,0.4317802786827087,0.5247851610183716,-0.0107331424951553,0.4677689969539642,0.4692183136940002,-0.0163831561803817,0.517878532409668,0.4824717938899994,-0.0191192682832479,0.483799397945404,0.4888888299465179,0.0200372785329818,0.4839719235897064,0.4283208847045898,-0.0067968773655593,0.4684863984584808,0.4817496538162231,-0.0228920318186283,0.4708779454231262,0.5134667158126831,-0.0299245584756135,0.5221138000488281,0.4922462403774261,0.0140982409939169,0.5242685675621033,0.4215742349624634,-0.0147946244105696,0.5056824088096619,0.4878549575805664,-0.0208457298576831,0.5139500498771667,0.5202865600585938,-0.015051519498229,0.5602331161499023,0.5029631853103638,0.0019727949984371,0.5656303763389587,0.4280132949352264,-0.0260624848306179,0.5415629744529724,0.495582103729248,-0.0165960006415843,0.5453798174858093,0.5370298027992249,0.0005232086987234,0.6018815040588379,0.5249894857406616,-0.0122471861541271,0.6014212965965271,0.4585888385772705,-0.0254695825278759,0.5787858963012695,0.5000719428062439,-0.0149334939196705,0.5787749290466309,0.535007894039154,-0.0016013873973861
2023-08-01 15:55:45.747899,36,227,0.6492332220077515,0.6515105962753296,-0.1591896116733551,0.3587324321269989,-0.06494140625,0.9091796875,0.28759765625,0.5168506503105164,0.682858407497406,-5.143463681633875e-07,0.4588204622268677,0.6150860786437988,-0.0092128971591591,0.4338614344596863,0.5239673256874084,-0.0102117154747247,0.4688724279403686,0.4689520895481109,-0.0161663871258497,0.5191991925239563,0.480012983083725,-0.0194156989455223,0.4873707294464111,0.4896745681762695,0.0209530964493751,0.4880289435386657,0.4290573596954345,-0.0052020447328686,0.4719991087913513,0.4827662706375122,-0.0208316762000322,0.4739280939102173,0.5152038931846619,-0.0275544915348291,0.5251063704490662,0.4932294189929962,0.0146160908043384,0.5281995534896851,0.4216586053371429,-0.0138499122112989,0.5091270208358765,0.4886846542358398,-0.0199207179248332,0.5168841481208801,0.5222079157829285,-0.0141173554584383,0.5629083514213562,0.5042401552200317,0.0021965054329484,0.5689602494239807,0.4287338554859161,-0.0259461011737585,0.5448024272918701,0.496980607509613,-0.0165070407092571,0.5481150150299072,0.5394483804702759,0.0007853033603169,0.6039765477180481,0.5267637968063354,-0.0121630132198333,0.603405237197876,0.4589589834213257,-0.0255419630557298,0.5813570022583008,0.5008605718612671,-0.0146656986325979,0.5816203951835632,0.5367506146430969,-0.000934564799536
2023-08-01 15:55:45.794839,37,228,0.6490776538848877,0.6516736149787903,-0.1575948446989059,0.3594212532043457,0.03369140625,0.92236328125,0.328125,0.5190370678901672,0.6852961778640747,-5.186778366805811e-07,0.4602536857128143,0.6159475445747375,-0.0071979672648012,0.4359878301620483,0.5229317545890808,-0.0066438950598239,0.4696328341960907,0.4639283716678619,-0.0114063704386353,0.5192472338676453,0.4735904932022095,-0.0133649921044707,0.4913361668586731,0.4922893047332763,0.0254732891917228,0.4918090999126434,0.4282939732074737,0.0006911117816343,0.4757413268089294,0.4796257019042969,-0.0152414897456765,0.4774828851222992,0.5133955478668213,-0.0222893878817558,0.5283505320549011,0.4964382946491241,0.0189922153949737,0.5317638516426086,0.4211031198501587,-0.0082366336137056,0.5120259523391724,0.4856503307819366,-0.0155978593975305,0.5187658071517944,0.5215574502944946,-0.0107589643448591,0.5656227469444275,0.5072066187858582,0.0066197044216096,0.5715640783309937,0.4267834424972534,-0.0200598016381263,0.5464711785316467,0.4932569563388824,-0.0117161450907588,0.549329936504364,0.5382084846496582,0.004682426340878,0.6067211627960205,0.5291227698326111,-0.0075468462891876,0.6047044992446899,0.4599323570728302,-0.0202079080045223,0.5814864635467529,0.4998372793197632,-0.0102001400664448,0.5814287066459656,0.5361668467521667,0.0028000464662909
2023-08-01 15:55:45.860352,38,229,0.6516402363777161,0.6494359970092773,-0.1546382755041122,0.3601180016994476,0.06005859375,0.951171875,0.4306640625,0.5166937112808228,0.6830868124961853,-5.094914286019048e-07,0.4581170976161957,0.615667998790741,-0.00731020886451,0.4331623911857605,0.5208281874656677,-0.0071998257189989,0.4633246958255768,0.4546416997909546,-0.0131341572850942,0.5138052105903625,0.4660108387470245,-0.0165520869195461,0.4910466969013214,0.4913150072097778,0.0282688811421394,0.4944646060466766,0.4245667159557342,0.0050174058414995,0.4790501594543457,0.4758435785770416,-0.0105031542479991,0.479192852973938,0.5139132738113403,-0.0169438049197196,0.5279607176780701,0.4942870140075683,0.0215676836669445,0.5347751975059509,0.4148105978965759,-0.0055008884519338,0.515113890171051,0.4825650453567505,-0.0137567175552248,0.51861971616745,0.5286152362823486,-0.0085795866325497,0.5652582049369812,0.5044568181037903,0.0090317325666546,0.5728579759597778,0.4185893535614013,-0.0179248843342065,0.5478798747062683,0.4895495176315307,-0.0107822744175791,0.5467798113822937,0.5447810292243958,0.0059960684739053,0.6053953766822815,0.5264155864715576,-0.0051258918829262,0.6074207425117493,0.4528197348117828,-0.0177810918539762,0.5841610431671143,0.4920952320098877,-0.0082313567399978,0.5802488327026367,0.5327637791633606,0.0049615167081356
2023-08-01 15:55:45.920349,39,230,0.6547474265098572,0.643558144569397,-0.1523325145244598,0.365969181060791,0.083984375,0.94287109375,0.37939453125,0.5148933529853821,0.6808717846870422,-4.676589355767647e-07,0.456072449684143,0.6122393608093262,-0.0084977652877569,0.4312407374382019,0.5265781283378601,-0.0106818415224552,0.4563489258289337,0.4563669860363006,-0.0192213542759418,0.5058102011680603,0.4364003241062164,-0.02464534714818,0.4921537041664123,0.4863888025283813,0.0322342403233051,0.4968496859073639,0.4189364910125732,0.0101831806823611,0.4851111769676208,0.4642183780670166,-0.0082614636048674,0.4829954504966736,0.5099451541900635,-0.0166088249534368,0.5283625721931458,0.4860022664070129,0.0268866531550884,0.5349828600883484,0.4053833484649658,0.0020663130562752,0.5191843509674072,0.4650246202945709,-0.0108662731945514,0.5184489488601685,0.5178065896034241,-0.0104486299678683,0.564792811870575,0.4938948154449463,0.0156227191910147,0.5755460858345032,0.4052432775497436,-0.0081262001767754,0.5532357096672058,0.4588810205459595,-0.0062680025584995,0.5474091172218323,0.5169585347175598,0.0054272133857011,0.6051915287971497,0.5133251547813416,0.0024897914845496,0.613852858543396,0.4395855963230133,-0.0090358303859829,0.5909243226051331,0.4619005918502807,-0.0032878736965358,0.5775004625320435,0.5011675953865051,0.0066803004592657
2023-08-01 15:55:45.984961,40,231,0.6562715768814087,0.6395995020866394,-0.1496609896421432,0.3712433576583862,0.0673828125,0.9453125,0.24072265625,0.5174470543861389,0.6820867657661438,-3.1651529752707575e-07,0.4510479271411896,0.6180917024612427,-0.0105510568246245,0.4211724102497101,0.5347588658332825,-0.0094565330073237,0.433253139257431,0.455935537815094,-0.0134305683895945,0.4663172960281372,0.410053014755249,-0.0131570715457201,0.4947003126144409,0.4853183627128601,0.0452090911567211,0.4986198842525482,0.4166829884052276,0.0288791675120592,0.4835756421089172,0.4301860630512237,0.0107139199972152,0.4791027307510376,0.4702051877975464,0.0025097846519201,0.532087504863739,0.480420857667923,0.042409710586071,0.5466811656951904,0.3930240869522095,0.0220721960067749,0.5236995816230774,0.416455864906311,0.0036872287746518,0.5150288939476013,0.467265635728836,7.969305443111807e-05,0.5678324103355408,0.486263245344162,0.0330327004194259,0.584135890007019,0.4037096500396728,0.01469536870718,0.561373233795166,0.4153289198875427,0.0062174997292459,0.5544226169586182,0.4621326923370361,0.0096574360504746,0.6068016290664673,0.5041821002960205,0.0214952528476715,0.6209568977355957,0.4371525943279266,0.0130414180457592,0.6060866713523865,0.4243042767047882,0.0120394797995686,0.5975923538208008,0.4456851780414581,0.0169002767652273
2023-08-01 15:55:46.048917,41,232,0.6580290198326111,0.6372494101524353,-0.1513523012399673,0.3714882731437683,0.00732421875,0.9541015625,0.17919921875,0.5151302814483643,0.6918720006942749,-3.6772771494497654e-08,0.4465590119361877,0.6280685067176819,-0.0110541163012385,0.4128320217132568,0.5420539379119873,-0.0032367722596973,0.4161685407161712,0.4586234390735626,0.0021241365466266,0.4330921471118927,0.4061488807201385,0.0107007352635264,0.4926717877388,0.4769219160079956,0.0452188216149807,0.4895864129066467,0.4097771048545837,0.0454613417387008,0.4837978482246399,0.3728370070457458,0.0333341248333454,0.4742061197757721,0.3520049452781677,0.024036519229412,0.5332469344139099,0.4726568162441253,0.0454725585877895,0.5424399375915527,0.391518622636795,0.044761549681425,0.5383594632148743,0.3679794073104858,0.0285906828939914,0.5276988744735718,0.3868340849876404,0.0196619257330894,0.5707674622535706,0.4818666279315948,0.0403127186000347,0.5821813941001892,0.402238667011261,0.0361918658018112,0.5781280994415283,0.3805381953716278,0.0240735709667205,0.5677486062049866,0.4101192951202392,0.0196239780634641,0.6113592386245728,0.4983265995979309,0.032498013228178,0.6257853507995605,0.4321438670158386,0.0272018387913703,0.6195486187934875,0.4039088785648346,0.0214397087693214,0.6059557199478149,0.4185826778411865,0.020932663232088
2023-08-01 15:55:46.102927,42,233,0.6614847183227539,0.6337380409240723,-0.1524479538202285,0.3709089457988739,-0.00732421875,0.90625,0.39990234375,0.5003132224082947,0.6729812622070312,5.477085665006598e-07,0.4351413249969482,0.632906436920166,-0.0211954414844512,0.3965301215648651,0.5450664162635803,-0.0281943306326866,0.3788363933563232,0.4727035760879516,-0.0333647951483726,0.3605155348777771,0.4208207428455353,-0.0380364395678043,0.4850382506847381,0.4241957068443298,-0.0071224924176931,0.4864632189273834,0.3368972241878509,-0.0157478153705596,0.4890905916690826,0.2792873382568359,-0.0276149678975343,0.4921782910823822,0.2302678823471069,-0.0381791330873966,0.53314608335495,0.4250732660293579,-0.0112601304426789,0.5472704768180847,0.3279609680175781,-0.0168577507138252,0.556847333908081,0.2606849670410156,-0.0289643555879592,0.5635241866111755,0.2058379650115966,-0.0394826531410217,0.5722370743751526,0.4475956261157989,-0.0194119233638048,0.5994505882263184,0.3626143932342529,-0.030861347913742,0.6129143834114075,0.3054008483886719,-0.0451149754226207,0.6211089491844177,0.2548636496067047,-0.0564075782895088,0.6024706363677979,0.4868902266025543,-0.0296612530946731,0.6393265724182129,0.4265834391117096,-0.0431598797440528,0.6604437232017517,0.386184811592102,-0.0515554547309875,0.6766228079795837,0.3461477160453796,-0.0578180663287639
2023-08-01 15:55:46.151253,43,234,0.6629050374031067,0.6325358748435974,-0.1522995084524154,0.3704865574836731,0.0078125,0.91015625,0.4453125,0.497833639383316,0.6945323944091797,3.705326889757999e-07,0.4337802827358246,0.6459513902664185,-0.0173531342297792,0.3938696682453155,0.5474879741668701,-0.0201631560921669,0.3722180128097534,0.470980703830719,-0.0226217303425073,0.3479941487312317,0.4235195815563202,-0.0241997577250003,0.4810186624526977,0.4210049211978912,0.00471520004794,0.4823400974273681,0.3281877040863037,-0.0014452936593443,0.4843495190143585,0.2737270593643188,-0.0124365920200943,0.4883249998092651,0.2263109236955642,-0.022715238854289,0.5281049609184265,0.4209595024585724,-0.0002631860843393,0.5437015891075134,0.3185542821884155,-0.0018855934031307,0.5537904500961304,0.2525222897529602,-0.0105757499113678,0.5609616041183472,0.2008151412010193,-0.0192496832460165,0.567818284034729,0.4436116814613342,-0.0100089879706501,0.595097005367279,0.356626808643341,-0.01652767136693,0.6090405583381653,0.3007357120513916,-0.0268007181584835,0.6182135939598083,0.2533126473426819,-0.0362018346786499,0.6002284288406372,0.4813745617866516,-0.0225940681993961,0.6380631923675537,0.4226708710193634,-0.0322047397494316,0.6604899168014526,0.3834626674652099,-0.0390215329825878,0.6792746782302856,0.3465808033943176,-0.0448175370693206
