Timestamp,Index,Frame ID,w,x,y,z,ax,ay,az,x_0,y_0,z_0,x_1,y_1,z_1,x_2,y_2,z_2,x_3,y_3,z_3,x_4,y_4,z_4,x_5,y_5,z_5,x_6,y_6,z_6,x_7,y_7,z_7,x_8,y_8,z_8,x_9,y_9,z_9,x_10,y_10,z_10,x_11,y_11,z_11,x_12,y_12,z_12,x_13,y_13,z_13,x_14,y_14,z_14,x_15,y_15,z_15,x_16,y_16,z_16,x_17,y_17,z_17,x_18,y_18,z_18,x_19,y_19,z_19,x_20,y_20,z_20
2023-08-01 15:55:58.852072,0,467,0.6884748935699463,0.6028451323509216,-0.1530613899230957,0.3730313181877136,0.00634765625,0.92431640625,0.4189453125,0.5118799209594727,0.7359659671783447,3.9860432821114966e-07,0.4485821723937988,0.6794347763061523,-0.0183525644242763,0.4055663347244262,0.5890918374061584,-0.0244458988308906,0.3773497939109802,0.5277131199836731,-0.030878497287631,0.3457916975021362,0.4883372485637665,-0.0376415327191352,0.4881178438663482,0.4383102655410766,0.0009464974864386,0.4854324460029602,0.3428938686847687,-0.0087534487247467,0.4853545427322387,0.2837929725646972,-0.0221073292195796,0.4875879883766174,0.2324278056621551,-0.0341497026383876,0.5346114635467529,0.4332176148891449,-0.0066402503289282,0.5536690950393677,0.3226824998855591,-0.0120158409699797,0.5656355619430542,0.2544455528259277,-0.0227586571127176,0.5752601027488708,0.1990832388401031,-0.032973762601614,0.5738282203674316,0.4537366330623626,-0.0193506460636854,0.6085070371627808,0.3565279841423034,-0.0310166925191879,0.627791166305542,0.2960090637207031,-0.0446170605719089,0.6423457264900208,0.2406363189220428,-0.0562239065766334,0.6042951345443726,0.4933798611164093,-0.0347938537597656,0.6490180492401123,0.4309141933917999,-0.0492899604141712,0.6783873438835144,0.3878818154335022,-0.0582514852285385,0.7041476368904114,0.3448213934898376,-0.0656608343124389
2023-08-01 15:55:58.901170,1,468,0.6885451078414917,0.6025859117507935,-0.1526781469583511,0.3734774887561798,-0.033203125,0.90185546875,0.3779296875,0.5124415159225464,0.7392393350601196,4.178368726570625e-07,0.447971910238266,0.6822850704193115,-0.0183965284377336,0.4026443362236023,0.5914580821990967,-0.0241097919642925,0.3731904625892639,0.5302193760871887,-0.0299989003688097,0.3409079611301422,0.4915343523025512,-0.0360579304397106,0.4848745167255401,0.4373568296432495,0.0013912061695009,0.4825934171676636,0.3410950899124145,-0.0082200178876519,0.4829310178756714,0.2816163897514343,-0.0212257429957389,0.4852831661701202,0.2303875982761383,-0.0326964706182479,0.5326622724533081,0.4325972199440002,-0.0059094140306115,0.5529477596282959,0.3216827511787414,-0.0108342710882425,0.5658184289932251,0.2533416152000427,-0.0206507835537195,0.5759468078613281,0.1986759305000305,-0.0298733636736869,0.5730408430099487,0.4534586369991302,-0.0184402503073215,0.6073300242424011,0.357873260974884,-0.029586112126708,0.625569224357605,0.2983253598213196,-0.0419439449906349,0.638968288898468,0.2445153146982193,-0.0522894226014614,0.6048282980918884,0.4932475686073303,-0.0337996110320091,0.6489349603652954,0.4298556447029114,-0.0478376075625419,0.6775674223899841,0.3867212235927582,-0.0560305416584014,0.7027257084846497,0.3438242077827453,-0.0624676868319511
2023-08-01 15:55:58.966162,2,469,0.6894083619117737,0.6018390655517578,-0.1515792459249496,0.3735367655754089,-0.0166015625,0.900390625,0.38623046875,0.506600558757782,0.7423304319381714,4.293157758183952e-07,0.4423540234565735,0.6863412857055664,-0.0177371017634868,0.3961576223373413,0.5953661799430847,-0.0229797586798667,0.3645727634429931,0.5360025763511658,-0.0284906458109617,0.3318470120429992,0.5013760328292847,-0.034194603562355,0.4769838154315948,0.4380567371845245,0.0018363806884735,0.472991794347763,0.341272622346878,-0.0066966186277568,0.4720122218132019,0.281839370727539,-0.0184929296374321,0.4730298221111297,0.2309913039207458,-0.0291270948946476,0.5257043242454529,0.4342952966690063,-0.0056379805319011,0.5468428730964661,0.3238339722156524,-0.0094948476180434,0.5591853260993958,0.2554449439048767,-0.0184032227843999,0.5682867765426636,0.2011140286922454,-0.0270004272460937,0.5665984153747559,0.4555241167545318,-0.0182944405823946,0.6001349091529846,0.3600894212722778,-0.0286803543567657,0.6178547143936157,0.2989473342895508,-0.0410639904439449,0.6308306455612183,0.2435749024152755,-0.0515449494123458,0.5983572602272034,0.4953186511993408,-0.0336705669760704,0.6428967714309692,0.4323357939720154,-0.0468895658850669,0.6717584133148193,0.388560950756073,-0.0549817346036434,0.6968364119529724,0.3453466892242431,-0.0615849643945694
2023-08-01 15:55:59.023515,3,470,0.6897087693214417,0.6010481715202332,-0.1492547839879989,0.3751876950263977,-0.03271484375,0.90576171875,0.43798828125,0.5089950561523438,0.7455328702926636,4.514198792548996e-07,0.4445928335189819,0.6877813339233398,-0.0190082006156444,0.3967143893241882,0.5990982055664062,-0.0262540243566036,0.3634639084339142,0.5397942066192627,-0.0338609367609024,0.3315147161483764,0.5006971955299377,-0.0414415560662746,0.4763705730438232,0.4371593594551086,0.0012613094877451,0.4736079573631286,0.3402862548828125,-0.0088173560798168,0.4735411405563354,0.2810062170028686,-0.0222253371030092,0.4748087525367737,0.2302206754684448,-0.0340015515685081,0.5248695015907288,0.4331023693084717,-0.0066085224971175,0.5454063415527344,0.3217566013336181,-0.0120303761214017,0.5581326484680176,0.2546666860580444,-0.0220881011337041,0.5675029158592224,0.2016576528549194,-0.0313970781862735,0.5665807723999023,0.4547989070415497,-0.019955089315772,0.6002725958824158,0.3587682843208313,-0.0321085825562477,0.6183749437332153,0.2977867722511291,-0.0452554039657115,0.6313703060150146,0.2433953434228897,-0.0559508688747882,0.5996904373168945,0.4959389865398407,-0.0361262448132038,0.6442358493804932,0.4296345114707947,-0.0504899248480796,0.6734398007392883,0.3867588341236114,-0.0585645027458667,0.6984959840774536,0.3446942269802093,-0.0648560672998428
2023-08-01 15:55:59.071178,4,471,0.6893578767776489,0.6012682914733887,-0.1485784202814102,0.3757480680942535,0.009765625,0.9111328125,0.41064453125,0.5082283616065979,0.7443381547927856,4.526744135091576e-07,0.4445545077323913,0.686902642250061,-0.0195977687835693,0.3971143364906311,0.5990091562271118,-0.0269315373152494,0.3652043342590332,0.5394956469535828,-0.0345141775906086,0.3318436443805694,0.5021999478340149,-0.0421493276953697,0.4759957492351532,0.4376620650291443,0.0001462041254853,0.4730094671249389,0.3411087393760681,-0.010594923980534,0.4730959832668304,0.2816192507743835,-0.0241164844483137,0.4747012257575989,0.2308330833911895,-0.035774428397417,0.5246973633766174,0.4326106905937195,-0.0072601805441081,0.5463852882385254,0.3211877346038818,-0.0132819190621376,0.5594306588172913,0.2545878887176513,-0.023266389966011,0.5691759586334229,0.2020066380500793,-0.0322861447930336,0.5665184855461121,0.4533083438873291,-0.0201146304607391,0.6019330024719238,0.3582475781440735,-0.0323811955749988,0.6200432777404785,0.2983335256576538,-0.0447163991630077,0.6329545974731445,0.245099663734436,-0.054637111723423,0.5995997190475464,0.4941021203994751,-0.0358910486102104,0.6449866890907288,0.4298478960990906,-0.0498790964484214,0.6740570664405823,0.3867155313491821,-0.0573539398610591,0.6990386843681335,0.3446676135063171,-0.0630738660693168
2023-08-01 15:55:59.131624,5,472,0.6869387626647949,0.6015819907188416,-0.1473045200109481,0.380152016878128,-0.06396484375,0.9140625,0.5224609375,0.5081039667129517,0.7441325187683105,4.529566126620921e-07,0.4440317153930664,0.6870052814483643,-0.0203076861798763,0.3969475626945495,0.5996878147125244,-0.0278888586908578,0.3652299642562866,0.5402998924255371,-0.0355586037039756,0.3326138854026794,0.5023219585418701,-0.0432620011270046,0.4770954847335815,0.4385864436626434,-0.0007956979679875,0.4746734499931335,0.3410998880863189,-0.011661292053759,0.4745562076568603,0.28090301156044,-0.0252870898693799,0.4757415354251861,0.2290315330028534,-0.0370642468333244,0.5257067084312439,0.4336031675338745,-0.0080203348770737,0.5475295782089233,0.3216200768947601,-0.0141029944643378,0.5602205395698547,0.2539117932319641,-0.0242621842771768,0.5694406628608704,0.2000604569911956,-0.0334363617002964,0.5673525929450989,0.4545898735523224,-0.0206926241517066,0.6026394963264465,0.3586121499538421,-0.0330713242292404,0.6205453872680664,0.2971507310867309,-0.0456178337335586,0.6331075429916382,0.2419552505016327,-0.0557451546192169,0.6002199649810791,0.4956042766571045,-0.0363298542797565,0.6457061171531677,0.4310320317745209,-0.0504742302000522,0.6748133897781372,0.3874053955078125,-0.0579703487455844,0.6997414827346802,0.3447062969207763,-0.0637302994728088
2023-08-01 15:55:59.192941,6,473,0.685543954372406,0.6017069816589355,-0.1442698985338211,0.3836200833320617,0.03076171875,0.921875,0.42333984375,0.5099992752075195,0.7436310052871704,4.2101430608454393e-07,0.4460647106170654,0.686896562576294,-0.0207501947879791,0.4010095000267029,0.599084198474884,-0.0292353387922048,0.3701716661453247,0.5372568964958191,-0.037968460470438,0.3363960087299347,0.4989936947822571,-0.046840526163578,0.4802187085151672,0.443300724029541,-0.0005060824332758,0.4769919812679291,0.3473930954933166,-0.0122145609930157,0.4758453071117401,0.2878425121307373,-0.0268628243356943,0.4767817258834839,0.2356263995170593,-0.0394878573715686,0.5279532074928284,0.4365826249122619,-0.0079175792634487,0.5478549599647522,0.3243206143379211,-0.0149488216266036,0.5589674711227417,0.2555467486381531,-0.0258039813488721,0.567509651184082,0.1997719705104828,-0.0356955118477344,0.5682011842727661,0.4558100402355194,-0.0208611637353897,0.6016695499420166,0.3564258813858032,-0.0334662236273288,0.6181062459945679,0.2939136624336242,-0.0454765744507312,0.6300532817840576,0.2374262511730194,-0.0555072873830795,0.6001273393630981,0.4944960474967956,-0.0369089879095554,0.6433948278427124,0.4275154769420624,-0.0510201565921306,0.6705811619758606,0.380759596824646,-0.0582007877528667,0.6943135261535645,0.3341628909111023,-0.0640237182378768
2023-08-01 15:55:59.241310,7,474,0.6825975179672241,0.6024155020713806,-0.1414568275213241,0.3887751698493957,-0.06591796875,0.89208984375,0.48388671875,0.5114203691482544,0.7430509328842163,3.987575212249794e-07,0.4480065703392029,0.6867555379867554,-0.0206541344523429,0.4032235741615295,0.5988224744796753,-0.0294312871992588,0.3731828331947326,0.5358147621154785,-0.0384500175714492,0.3402584195137024,0.495663046836853,-0.0475752353668212,0.4813974797725677,0.444556176662445,-0.0005301123019307,0.4767743349075317,0.3493972420692444,-0.0127390557900071,0.4742664098739624,0.2903140783309936,-0.0281731151044368,0.473915547132492,0.2377396523952484,-0.0413176789879798,0.5282135009765625,0.4379664063453674,-0.0077975788153707,0.5467050075531006,0.3269680440425873,-0.0148481270298361,0.5563709735870361,0.2579964399337768,-0.0258823502808809,0.5635489821434021,0.2007357478141784,-0.0360054932534694,0.5676507353782654,0.4568353295326233,-0.0205617789179086,0.599709689617157,0.3576114475727081,-0.0323633663356304,0.6153355836868286,0.2941642999649048,-0.0439667850732803,0.6264021396636963,0.2365237772464752,-0.0539634190499782,0.5989616513252258,0.4946778416633606,-0.0365253165364265,0.6408045291900635,0.4278859794139862,-0.0496460869908332,0.6669871211051941,0.3800539970397949,-0.056390207260847,0.689886212348938,0.3321528434753418,-0.0620795637369155
2023-08-01 15:55:59.301479,8,475,0.6784979701042175,0.6025429964065552,-0.1328651309013366,0.3986591398715973,-0.02978515625,0.9150390625,0.28125,0.512767493724823,0.7382327318191528,3.484393573671696e-07,0.4504909515380859,0.6817322969436646,-0.0180770028382539,0.4059885740280151,0.5920061469078064,-0.024685263633728,0.3777220845222473,0.5270942449569702,-0.0322297178208828,0.3466625809669494,0.48525270819664,-0.0402290672063827,0.4839957654476166,0.4472657740116119,0.0034720208495855,0.4781321287155151,0.3536483347415924,-0.0080838818103075,0.4739865064620971,0.2945903539657593,-0.0236523486673831,0.4722996950149536,0.2408888936042785,-0.0372306108474731,0.5294630527496338,0.439115822315216,-0.0046528954990208,0.5453036427497864,0.3284261226654053,-0.0117026753723621,0.5525925755500793,0.2578921616077423,-0.0240652281790971,0.5570844411849976,0.1981960237026214,-0.0356107503175735,0.5677331686019897,0.4553849697113037,-0.0180921405553817,0.5978190898895264,0.3571673035621643,-0.0291089415550231,0.6107342839241028,0.2932674884796142,-0.041793406009674,0.6181724071502686,0.2348245680332183,-0.0531261153519153,0.5982228517532349,0.4899528622627258,-0.0345864258706569,0.6387312412261963,0.4233239591121673,-0.0467448830604553,0.6634920835494995,0.3742808103561401,-0.0542250610888004,0.6841928362846375,0.3251500129699707,-0.0611333101987838
2023-08-01 15:55:59.365509,9,476,0.6768587827682495,0.6035144925117493,-0.1336982995271682,0.399696409702301,-0.0498046875,0.93017578125,0.3310546875,0.5130828619003296,0.7355977296829224,3.497065108604147e-07,0.4499170184135437,0.679469645023346,-0.0176745075732469,0.4047463536262512,0.5911144614219666,-0.0243145693093538,0.3761031627655029,0.5267323851585388,-0.0318021364510059,0.3461086750030517,0.4849061965942383,-0.0398539677262306,0.4844379127025604,0.4478145539760589,0.002166676800698,0.4782791435718536,0.3544986248016357,-0.0096713062375783,0.4740304946899414,0.2954105138778686,-0.0253626722842454,0.4721927344799042,0.2418922185897827,-0.0390235744416713,0.5299196839332581,0.439716637134552,-0.0062228362075984,0.5454595685005188,0.3293444216251373,-0.0138406548649072,0.5526350140571594,0.2583337426185608,-0.0266699697822332,0.5569744110107422,0.1986087262630462,-0.0385370105504989,0.5681301951408386,0.4559532403945923,-0.0197146069258451,0.5974803566932678,0.3575899004936218,-0.0312434416264295,0.6098445653915405,0.2928299307823181,-0.044644720852375,0.6168782114982605,0.2338254153728485,-0.0565032958984375,0.5986106395721436,0.4906041920185089,-0.036096628755331,0.6389979124069214,0.4238560199737549,-0.0488662421703338,0.6635804772377014,0.374636709690094,-0.0568536184728145,0.6840132474899292,0.3258085250854492,-0.0641040578484535
2023-08-01 15:55:59.424688,10,477,0.6762627959251404,0.6050641536712646,-0.1349062621593475,0.3979525864124298,0.1083984375,0.91943359375,0.40380859375,0.5105485916137695,0.7286459803581238,2.13311921015702e-07,0.453604519367218,0.6705145835876465,-0.0111921280622482,0.4138361811637878,0.5740547180175781,-0.0131096802651882,0.3911977410316467,0.5032203197479248,-0.0170875005424022,0.3636435270309448,0.4588516652584076,-0.0221987720578908,0.4872680008411407,0.4462230205535888,0.0104185352101922,0.4813627600669861,0.3570955097675323,0.0002234774437965,0.4762907028198242,0.3005726635456085,-0.0146052185446023,0.4730398952960968,0.2486000657081604,-0.0277469400316476,0.5295804142951965,0.4395916759967804,0.0001072249215212,0.542482852935791,0.3322509229183197,-0.0074531096033751,0.5461909174919128,0.2632207870483398,-0.0215983800590038,0.5466532707214355,0.203446477651596,-0.0343751609325408,0.5647701621055603,0.4546282887458801,-0.0146967470645904,0.5889531373977661,0.3594371080398559,-0.0252464860677719,0.5958889722824097,0.2939486503601074,-0.0393787734210491,0.5968160629272461,0.2343604564666748,-0.0518392138183116,0.5933793187141418,0.4856397807598114,-0.0317514911293983,0.6254859566688538,0.4161907434463501,-0.0426183678209781,0.642079770565033,0.3640288710594177,-0.0505183935165405,0.6528820991516113,0.3128833770751953,-0.0582028031349182
2023-08-01 15:55:59.484200,11,478,0.674798846244812,0.6079193949699402,-0.1336031705141067,0.3965233564376831,-0.09765625,0.91748046875,0.31982421875,0.5106680393218994,0.7276492118835449,1.7553814757320654e-07,0.453669935464859,0.6684843301773071,-0.0120049342513084,0.4143314957618713,0.5734243988990784,-0.0145288491621613,0.3906722962856293,0.5029313564300537,-0.0190859492868185,0.3642736375331878,0.4554991126060486,-0.0243237484246492,0.4884178936481476,0.4481814205646515,0.0115986112505197,0.4824650585651397,0.3603909313678741,0.0002039433456957,0.4761116802692413,0.3043960034847259,-0.0158919002860784,0.4715003371238708,0.2531819939613342,-0.0296260304749012,0.5290284156799316,0.4415732622146606,0.0019408508669584,0.5398898720741272,0.3372203111648559,-0.0061858291737735,0.5415862798690796,0.2677099108695984,-0.0208723358809947,0.5401749610900879,0.2078248858451843,-0.033839613199234,0.5633088946342468,0.4554744064807892,-0.0125059206038713,0.5873298048973083,0.3627355098724365,-0.0229686982929706,0.5950321555137634,0.2983988523483276,-0.0365948677062988,0.5956430435180664,0.2410390824079513,-0.0483779348433017,0.5908223390579224,0.4855590760707855,-0.0293995104730129,0.6200369596481323,0.4179496169090271,-0.0396004542708396,0.6326125264167786,0.3671900331974029,-0.0466696247458457,0.6384423971176147,0.3186381459236145,-0.0535029917955398
2023-08-01 15:55:59.530945,12,479,0.6729624271392822,0.6105827689170837,-0.1344014704227447,0.3952801525592804,0.03125,0.908203125,0.40966796875,0.5096815824508667,0.7251930832862854,1.174526573777257e-07,0.4531377553939819,0.6644829511642456,-0.0129563882946968,0.4141627550125122,0.5701608657836914,-0.0166705008596181,0.3921814858913421,0.4968490302562713,-0.0224510580301284,0.3670706152915954,0.4429829120635986,-0.028666216880083,0.4896262586116791,0.4514821767807007,0.0114458557218313,0.4835899770259857,0.3661398291587829,-0.000373096729163,0.4754395186901092,0.3131977915763855,-0.0168342124670743,0.4681418836116791,0.2628149390220642,-0.0307603776454925,0.5294433832168579,0.4447039365768432,0.0022065786179155,0.5392116904258728,0.3426085710525512,-0.0064339432865381,0.5370540618896484,0.2753873467445373,-0.021033376455307,0.5313238501548767,0.2166880071163177,-0.0338738076388835,0.5626451969146729,0.4585681557655334,-0.0119507722556591,0.5829046964645386,0.3646998107433319,-0.022943390533328,0.5851836800575256,0.301590085029602,-0.0357677340507507,0.5803089737892151,0.2453943341970443,-0.0466019660234451,0.5903699994087219,0.4883733987808227,-0.0286905728280544,0.6136093139648438,0.4139673113822937,-0.0402191206812858,0.6188353300094604,0.3584393560886383,-0.0478805750608444,0.6165516376495361,0.3050894141197204,-0.0546911209821701
2023-08-01 15:55:59.578979,13,480,0.6711550354957581,0.6123517751693726,-0.1348516047000885,0.3954633772373199,-0.0498046875,0.9462890625,0.28857421875,0.5089994668960571,0.7246367931365967,2.563122514231964e-08,0.450991153717041,0.6590310335159302,-0.0082762306556105,0.4142035245895386,0.5635915398597717,-0.0093306200578808,0.3937339186668396,0.4889055490493774,-0.0140277203172445,0.3693054020404815,0.4341703355312347,-0.0192933697253465,0.4944879412651062,0.4557317495346069,0.0224882420152425,0.4881466925144195,0.3738425374031067,0.0130461975932121,0.4776477217674255,0.3249044418334961,-0.0033129544463008,0.4661697745323181,0.2772243916988373,-0.0175813119858503,0.5331454277038574,0.448725938796997,0.0116298524662852,0.5418065786361694,0.3500710129737854,0.0046675968915224,0.5349263548851013,0.2858385145664215,-0.0109649123623967,0.5222717523574829,0.2292000353336334,-0.0249844882637262,0.565168559551239,0.4610752463340759,-0.0041773654520511,0.5829913020133972,0.3676623404026031,-0.013558804988861,0.5783723592758179,0.3063217997550964,-0.0271002445369958,0.5644024014472961,0.2524677217006683,-0.0387155152857303,0.592343807220459,0.4888880252838135,-0.0223132017999887,0.6134707927703857,0.4130555987358093,-0.0324114635586738,0.6130244731903076,0.3581229448318481,-0.0401821248233318,0.6023404002189636,0.3073059916496277,-0.0473637543618679
2023-08-01 15:55:59.626198,14,481,0.6691997051239014,0.6146328449249268,-0.1371075958013534,0.3944613337516784,0.017578125,0.94189453125,0.3525390625,0.5075343251228333,0.7227725982666016,-9.066856421213745e-08,0.4509028792381286,0.6526318192481995,-0.0055024442262947,0.4152575731277466,0.5577636361122131,-0.0057682688347995,0.3966144025325775,0.4835401177406311,-0.0106705296784639,0.3747730553150177,0.4260702431201935,-0.015244947746396,0.4961981177330017,0.4591103792190552,0.0309366323053836,0.4935895502567291,0.3835552930831909,0.0202925447374582,0.4810951948165893,0.3433591723442077,0.0020755131263285,0.4638338983058929,0.3071680068969726,-0.0123485540971159,0.5330692529678345,0.4528287649154663,0.0201999396085739,0.5416556000709534,0.3609369695186615,0.0136664193123579,0.5329995155334473,0.305499255657196,-0.0014523941790685,0.5167331695556641,0.2601423859596252,-0.0143642928451299,0.5647945404052734,0.4646438062191009,0.0039819199591875,0.5794985294342041,0.3771108984947204,-0.0037983749061822,0.5707740783691406,0.3219344913959503,-0.0146747082471847,0.5516805052757263,0.276043951511383,-0.0239184219390153,0.5931363105773926,0.4925652742385864,-0.0146616240963339,0.6109498739242554,0.4226670861244201,-0.0225121229887008,0.6045042872428894,0.3732576370239258,-0.0282091163098812,0.5862487554550171,0.3302866220474243,-0.0333345159888267
2023-08-01 15:55:59.685390,15,482,0.6693778038024902,0.6154541373252869,-0.1400586813688278,0.3918328285217285,0.0234375,0.94287109375,0.31494140625,0.5068347454071045,0.71870356798172,-1.406599352549165e-07,0.4509285688400268,0.6488232612609863,-0.0031514521688222,0.4167408049106598,0.5526565909385681,-0.0005737013998441,0.4009193778038025,0.4768074452877044,-0.0032751399558037,0.383255660533905,0.4189708530902862,-0.0043042721226811,0.497152030467987,0.4645247757434845,0.0413010269403457,0.4976994395256042,0.3885927200317383,0.0285785906016826,0.4813662469387054,0.3549535572528839,0.0087982518598437,0.4584501087665558,0.3369121551513672,-0.0037380268331617,0.5324451327323914,0.4579799175262451,0.0321897193789482,0.5426095128059387,0.3669725060462951,0.0264070369303226,0.5317085981369019,0.3171473741531372,0.0126745570451021,0.5107617974281311,0.288044810295105,0.0026430594734847,0.5643818378448486,0.4676898419857025,0.0166508723050355,0.5783878564834595,0.3817559480667114,0.0105565451085567,0.5652838945388794,0.3331563472747803,0.0024296878837049,0.5408689379692078,0.3042436838150024,-0.0030452320352196,0.5954689979553223,0.4915157258510589,-0.0013827853836119,0.6108999252319336,0.4240694940090179,-0.0061733499169349,0.5993053913116455,0.3800822496414184,-0.0095972977578639,0.5754615664482117,0.3494624495506286,-0.011861783452332
2023-08-01 15:55:59.732320,16,483,0.6701036095619202,0.6149511337280273,-0.1400964558124542,0.3913682699203491,-0.04833984375,0.90869140625,0.3232421875,0.515520453453064,0.7162468433380127,-2.848664166776871e-07,0.4554981291294098,0.6479476690292358,-0.0154785802587866,0.4206529259681701,0.5559520721435547,-0.0180983450263738,0.4121081829071045,0.4678587317466736,-0.025928609073162,0.4167752861976623,0.398721843957901,-0.029474701732397,0.4868400394916534,0.4715562760829925,0.0388173498213291,0.4968972206115722,0.3936620056629181,0.0156738888472318,0.4869559109210968,0.3941059708595276,-0.0082542104646563,0.4806824028491974,0.4284228980541229,-0.0199042540043592,0.52247554063797,0.4670424461364746,0.0350249223411083,0.5367001891136169,0.3692761063575744,0.012208136729896,0.5196740627288818,0.3759186863899231,-0.0095091592520475,0.5075095891952515,0.4237449169158935,-0.0175534896552562,0.5556223392486572,0.4743551909923553,0.0234089586883783,0.5732139945030212,0.3830763399600982,0.0048849801532924,0.5528090596199036,0.3829881846904754,-0.0068955961614847,0.5382383465766907,0.426788717508316,-0.007888589054346,0.591410756111145,0.4944699108600616,0.0085120918229222,0.6048179268836975,0.4184281826019287,-0.0017324563814327,0.5865901112556458,0.4013672769069671,-0.0063711157999932,0.5676661729812622,0.4267064929008484,-0.0053134374320507
2023-08-01 15:55:59.793844,17,484,0.6709766983985901,0.614790141582489,-0.1411971449851989,0.3897266089916229,0.0068359375,0.8994140625,0.39990234375,0.5160910487174988,0.7153162360191345,-3.320813846130477e-07,0.4551383852958679,0.646551251411438,-0.0150515465065836,0.4218066334724426,0.5567378401756287,-0.0176685079932212,0.4170148074626922,0.4678986966609955,-0.0257327035069465,0.4287114143371582,0.3978289365768432,-0.0300420112907886,0.4840463995933532,0.4774588942527771,0.0427184961736202,0.4915379285812378,0.406239241361618,0.0212805289775133,0.480478823184967,0.4122751355171203,-0.0019763002637773,0.4756310284137726,0.4445596933364868,-0.014133334159851,0.5189332962036133,0.4720711708068847,0.0387732312083244,0.5330290198326111,0.3781216144561767,0.0156587958335876,0.5161067843437195,0.3948327600955963,-0.0061256163753569,0.5063033103942871,0.4428443312644958,-0.0145290018990635,0.5525556206703186,0.479040652513504,0.026953661814332,0.5718353986740112,0.3866502642631531,0.0063760690391063,0.5518034100532532,0.3960352540016174,-0.0059128636494278,0.5398252606391907,0.4419418573379516,-0.0073344502598047,0.588907778263092,0.4982171654701233,0.0121750822290778,0.6022456288337708,0.4213511347770691,-1.632433668419253e-05,0.581680178642273,0.4157105088233948,-0.0049618589691817,0.5630843639373779,0.4482093155384063,-0.0044662901200354
2023-08-01 15:55:59.838913,18,485,0.671051025390625,0.614005446434021,-0.1406102478504181,0.3910454511642456,-0.1298828125,0.93896484375,0.31982421875,0.5174626111984253,0.7117776870727539,-3.693577639296564e-07,0.4545826613903045,0.6425672769546509,-0.014039697125554,0.4247719049453735,0.5546882152557373,-0.017079597339034,0.4266682863235473,0.4698328375816345,-0.0259871669113636,0.4401846528053283,0.4022946655750274,-0.0309464521706104,0.4864127039909363,0.478139728307724,0.0406681895256042,0.4938587248325348,0.4055970907211303,0.0179044771939516,0.4812986850738525,0.4255983829498291,-0.0050357449799776,0.4779327511787414,0.4694835543632507,-0.0161508452147245,0.5200340747833252,0.4729964733123779,0.0359575375914573,0.5357270240783691,0.3793421983718872,0.0119066294282674,0.5161041021347046,0.4059002101421356,-0.0085113057866692,0.5089748501777649,0.4577689170837402,-0.0149774570018053,0.5532767176628113,0.4793179929256439,0.0235973596572875,0.5751985907554626,0.3849626779556274,0.0024038429837673,0.5527563095092773,0.4025366604328155,-0.0078439330682158,0.543664276599884,0.4517208933830261,-0.0071325111202895,0.5886439085006714,0.4973424673080444,0.0083964131772518,0.6019070744514465,0.4205255508422851,-0.003535808995366,0.5789127945899963,0.4214616417884826,-0.0064381975680589,0.5622736811637878,0.4571441113948822,-0.003888776525855
2023-08-01 15:55:59.888070,19,486,0.6704308986663818,0.614649772644043,-0.1451643109321594,0.3894297182559967,0.08984375,0.93408203125,0.2890625,0.5209975242614746,0.7114148139953613,-4.375737319151085e-07,0.4533874988555908,0.643526554107666,-0.0137434853240847,0.4236357510089874,0.5523850917816162,-0.0170529093593359,0.4318692684173584,0.466994047164917,-0.0263731908053159,0.4567223191261291,0.4024595320224762,-0.0321238562464714,0.4829299747943878,0.4877432584762573,0.0371663607656955,0.4824265837669372,0.4194658100605011,0.0157645046710968,0.4674457907676697,0.4489100277423858,-0.0061927181668579,0.4658560752868652,0.4938352406024933,-0.0175198260694742,0.5169966816902161,0.4783176779747009,0.0323832891881465,0.5284048914909363,0.3875980079174042,0.0095437429845333,0.5062384009361267,0.4199882745742798,-0.009791568852961,0.4995410740375519,0.4735337197780609,-0.0161484405398368,0.5517578125,0.4816988408565521,0.0206462778151035,0.5689298510551453,0.3840385675430298,-0.0005473044584505,0.5448596477508545,0.4086534976959228,-0.0090198358520865,0.5371186137199402,0.4627849459648132,-0.0073478147387504,0.5885400772094727,0.4969444870948791,0.0063217445276677,0.5978548526763916,0.4158848524093628,-0.0062632439658045,0.5748381614685059,0.4225861728191376,-0.0074777267873287,0.5606025457382202,0.465396523475647,-0.0036301831714808
2023-08-01 15:55:59.948102,20,487,0.6693987846374512,0.6155128479003906,-0.1498987376689911,0.3880458474159241,0.0234375,0.91162109375,0.41162109375,0.5253288149833679,0.713947057723999,-4.846923502555001e-07,0.4587371349334717,0.6421397924423218,-0.0039292424917221,0.4287208914756775,0.5511730909347534,-0.0062222010456025,0.4494479596614837,0.4771755933761596,-0.0167236104607582,0.4959566593170166,0.4407179057598114,-0.0256874803453683,0.4877814948558807,0.506164014339447,0.0345504693686962,0.4851819276809692,0.4312190413475036,0.0148048344999551,0.470730721950531,0.4699720442295074,-0.0036946609616279,0.4730267822742462,0.5135405659675598,-0.0131665412336587,0.5198843479156494,0.4987567663192749,0.0249739307910203,0.5248978734016418,0.4047327637672424,0.0016744341701269,0.5073357820510864,0.4503279030323028,-0.0147628877311944,0.5082847476005554,0.5034055709838867,-0.0180376451462507,0.5542622804641724,0.4981738626956939,0.0104456087574362,0.5601606965065002,0.3943897187709808,-0.0117241898551583,0.5407606363296509,0.4411253035068512,-0.014224162325263,0.5408101081848145,0.5026758313179016,-0.006816831883043,0.5911651253700256,0.5081629157066345,-0.0054897684603929,0.5859269499778748,0.4238169193267822,-0.0167422425001859,0.5663027167320251,0.4468275010585785,-0.0115773305296897,0.5613642334938049,0.4964536428451538,-0.0026112757623195
2023-08-01 15:55:59.997174,21,488,0.6688255071640015,0.6157859563827515,-0.1491651833057403,0.3888828456401825,-0.0322265625,0.94775390625,0.31591796875,0.5268100500106812,0.7122609615325928,-4.996766165277222e-07,0.4618047475814819,0.6464236974716187,-0.0063682743348181,0.4285834729671478,0.5545058846473694,-0.0094365309923887,0.4496177136898041,0.4790716469287872,-0.0199306011199951,0.5009479522705078,0.4526514112949371,-0.0286124963313341,0.4833025336265564,0.5089772343635559,0.0306737814098596,0.4753753244876861,0.4338845908641815,0.0099129816517233,0.4634740054607391,0.4767330586910248,-0.0080114286392927,0.4676306545734405,0.5197439789772034,-0.0168688297271728,0.5171810388565063,0.501865565776825,0.0224474966526031,0.5164793729782104,0.4111010134220123,-0.0023212234955281,0.5018723011016846,0.461954802274704,-0.017603863030672,0.5053483247756958,0.5142210125923157,-0.0195780154317617,0.5532713532447815,0.5009442567825317,0.0091460263356566,0.5557043552398682,0.3987747132778168,-0.0151165556162595,0.538224995136261,0.4531577527523041,-0.0160777680575847,0.5399088263511658,0.5163662433624268,-0.0068751540966331,0.5917621850967407,0.5102193355560303,-0.0057356585748493,0.5828047394752502,0.4294846653938293,-0.0186195168644189,0.5635923743247986,0.4581696391105652,-0.0135287325829267,0.5604361891746521,0.5075026154518127,-0.004296610597521
2023-08-01 15:56:00.059207,22,489,0.6693593859672546,0.6144132018089294,-0.1500574350357055,0.3897913098335266,0.02197265625,0.9443359375,0.32958984375,0.5263832807540894,0.7116015553474426,-4.893790332971548e-07,0.4618274271488189,0.6488392353057861,-0.0049523576162755,0.4290271997451782,0.556304931640625,-0.006468161009252,0.4506884217262268,0.4805390238761902,-0.0153343249112367,0.5031866431236267,0.4641165733337402,-0.0225177984684705,0.4845488667488098,0.5095587372779846,0.0328797772526741,0.4785509407520294,0.43418750166893,0.0131198866292834,0.463781476020813,0.4768901467323303,-0.0039628772065043,0.4667170643806457,0.5204456448554993,-0.0124791963025927,0.5177816152572632,0.503955066204071,0.0242832843214273,0.5188595056533813,0.4135445058345794,0.0003566627856343,0.500868022441864,0.4642605185508728,-0.013893368653953,0.5032879710197449,0.5160592794418335,-0.0148790460079908,0.5532999634742737,0.5045560002326965,0.0107339955866336,0.556620717048645,0.403455913066864,-0.0124648325145244,0.5370078086853027,0.4579717516899109,-0.0124714756384491,0.538283109664917,0.5185850858688354,-0.002680450445041,0.5917354822158813,0.5166618824005127,-0.0043487325310707,0.5819145441055298,0.4372395873069763,-0.0165199618786573,0.5629030466079712,0.4710524678230285,-0.0106833567842841,0.5620039701461792,0.5208539962768555,-0.0010059125488623
2023-08-01 15:56:00.114998,23,490,0.6701677441596985,0.6138105988502502,-0.1505468636751175,0.3891623914241791,0.0380859375,0.92041015625,0.3984375,0.5253382921218872,0.7167268991470337,-5.870444965694332e-07,0.4621967673301697,0.6503994464874268,-0.0028832850512117,0.4296818971633911,0.558716893196106,-0.0033855163492262,0.45146244764328,0.4876507520675659,-0.0111071430146694,0.503172755241394,0.4791587889194488,-0.0165255703032016,0.4856851398944855,0.5155007243156433,0.0291273854672908,0.4807363152503967,0.4388913214206695,0.0057106330059468,0.4656369090080261,0.4915398955345154,-0.0095406528562307,0.4717639088630676,0.5304101705551147,-0.0166494660079479,0.5182440876960754,0.5117930173873901,0.0192419122904539,0.5169393420219421,0.4230394661426544,-0.0091727990657091,0.4991059899330139,0.4882031083106994,-0.0187408737838268,0.5081072449684143,0.5300038456916809,-0.015069437213242,0.5537527203559875,0.5122544169425964,0.0041400608606636,0.552027702331543,0.4170058965682983,-0.0208694357424974,0.5332147479057312,0.4815272092819214,-0.0144445365294814,0.5414556860923767,0.5267192125320435,-5.953436266281642e-05,0.5939697027206421,0.5230923295021057,-0.0125089772045612,0.5793221592903137,0.4486843347549438,-0.0232924465090036,0.5611644983291626,0.4900716245174408,-0.013577508740127,0.5674281120300293,0.5286784768104553,-0.0013917974429205
2023-08-01 15:56:00.163374,24,491,0.6701381802558899,0.6136714816093445,-0.1509990394115448,0.3892576098442077,0.01220703125,0.93359375,0.3720703125,0.5219103097915649,0.7171419858932495,-5.989448368382e-07,0.4605474472045898,0.6487427949905396,-0.0034400697331875,0.4297400414943695,0.5558996796607971,-0.0042925830930471,0.4525279104709625,0.487533301115036,-0.0121445711702108,0.5025002956390381,0.4837770462036133,-0.0171770602464675,0.4888235628604889,0.512759804725647,0.0274590719491243,0.4846585094928741,0.4389410614967346,0.0006285666022449,0.4689519107341766,0.4955762326717376,-0.0153837073594331,0.4738389253616333,0.5313364863395691,-0.0222591664642095,0.5207244753837585,0.5127479434013367,0.0177259016782045,0.5181407928466797,0.4292965531349182,-0.0131821641698479,0.5003966093063354,0.4980484843254089,-0.0212806873023509,0.5093826055526733,0.5328940749168396,-0.0161672439426183,0.5553845763206482,0.5161513686180115,0.0022511682473123,0.5517482757568359,0.4257113933563232,-0.0253979247063398,0.53264319896698,0.4951289296150207,-0.0167808551341295,0.5410824418067932,0.5356394052505493,-0.0003033673856407,0.5951266884803772,0.5286858677864075,-0.0147967003285884,0.5785620212554932,0.4574303328990936,-0.0266941748559474,0.56049644947052,0.5020411014556885,-0.0160543154925107,0.5678158402442932,0.5369913578033447,-0.0027994322590529
2023-08-01 15:56:00.209057,25,492,0.6692014336585999,0.6132203936576843,-0.152311772108078,0.3910643458366394,-0.0126953125,0.9609375,0.31396484375,0.51964271068573,0.7143999338150024,-5.944021950199385e-07,0.4589933753013611,0.6464768648147583,-0.0045015062205493,0.4285236001014709,0.5556690096855164,-0.0062487870454788,0.4531969726085663,0.4901660084724426,-0.0142924571409821,0.5030449032783508,0.4908114969730377,-0.0192572176456451,0.4859480261802673,0.5113846659660339,0.0232871789485216,0.4818398952484131,0.4409698247909546,-0.0050359787419438,0.4674392342567444,0.4983743131160736,-0.0214702691882848,0.4721970558166504,0.5333210229873657,-0.0285697989165782,0.5192169547080994,0.5126993060112,0.0140825435519218,0.5167457461357117,0.4342316091060638,-0.0170342605561018,0.4993233382701874,0.5034484267234802,-0.0239212270826101,0.5081778764724731,0.5360936522483826,-0.018477214500308,0.554778516292572,0.5182368755340576,-0.0009561791666783,0.5520042181015015,0.4331783056259155,-0.0285309869796037,0.5322412252426147,0.5030519962310791,-0.0185049977153539,0.5405027866363525,0.5411975383758545,-0.001692043733783,0.595340371131897,0.5331296324729919,-0.0177118554711341,0.579871416091919,0.4671883583068847,-0.0297004207968711,0.5615063905715942,0.5116603374481201,-0.0189153272658586,0.5689918398857117,0.5430765151977539,-0.0059059667401015
2023-08-01 15:56:00.257168,26,493,0.6682565808296204,0.6125827431678772,-0.1517707854509353,0.3938796520233154,0.03125,0.9169921875,0.39404296875,0.5193291306495667,0.7090623378753662,-6.020516707394563e-07,0.4599006175994873,0.6452029347419739,-0.0049349796026945,0.4296703040599823,0.5553614497184753,-0.0068383021280169,0.4535456895828247,0.4918835163116455,-0.0146298389881849,0.5015765428543091,0.493626981973648,-0.0189378894865512,0.4889359474182129,0.5076528787612915,0.0211490560322999,0.4821870326995849,0.4389791190624237,-0.0083389179781079,0.4701932072639465,0.5000147819519043,-0.0246856082230806,0.4769619107246399,0.5328892469406128,-0.0314481705427169,0.5226585865020752,0.5108546614646912,0.0121553726494312,0.5166341066360474,0.436223030090332,-0.0197753049433231,0.5016326308250427,0.508391261100769,-0.0256822761148214,0.5120810866355896,0.5372505187988281,-0.0193265564739704,0.5579630136489868,0.5177642107009888,-0.0027806602884083,0.550921618938446,0.4381148219108581,-0.0307675320655107,0.534073531627655,0.511322021484375,-0.0194105971604585,0.5446774363517761,0.5452600121498108,-0.0017763236537575,0.5984976291656494,0.5337415337562561,-0.0194523371756076,0.5805447101593018,0.4723725318908691,-0.031727597117424,0.5645400881767273,0.5191900730133057,-0.020493920892477,0.5742870569229126,0.5470390915870667,-0.0070667378604412
2023-08-01 15:56:00.318780,27,494,0.6667854189872742,0.6133847832679749,-0.151079386472702,0.3953876197338104,0.021484375,0.916015625,0.3544921875,0.5192803740501404,0.7124590873718262,-6.071458074075053e-07,0.4606437683105469,0.6515659093856812,-0.0058171623386442,0.4312667846679687,0.5581400394439697,-0.007582776248455,0.4555217325687408,0.4968368113040924,-0.0145386718213558,0.5018618702888489,0.5039068460464478,-0.0182081945240497,0.4966315031051636,0.5059586763381958,0.0162988696247339,0.4858919382095337,0.4446557462215423,-0.0126811480149626,0.4713226556777954,0.5040541291236877,-0.0271182172000408,0.479639858007431,0.5350878238677979,-0.0329124741256237,0.5281755328178406,0.5103178024291992,0.0077200583182275,0.5175710320472717,0.4432056844234466,-0.025368271395564,0.5008052587509155,0.5132462382316589,-0.0289973467588424,0.5146255493164062,0.5397692322731018,-0.0205490719527006,0.560702919960022,0.52004474401474,-0.0066688838414847,0.5482385158538818,0.4544382691383362,-0.0364038906991481,0.5304127931594849,0.5248134136199951,-0.0249447971582412,0.5439537763595581,0.5527048707008362,-0.0068691335618495,0.5977280139923096,0.5392250418663025,-0.0227348729968071,0.5759568214416504,0.4826810359954834,-0.0370992496609687,0.5604342818260193,0.5288457274436951,-0.0266587436199188,0.5727823376655579,0.5551148056983948,-0.0134220039471983
2023-08-01 15:56:00.378204,28,495,0.6657793521881104,0.6140508651733398,-0.1503898650407791,0.3963110446929931,0.0595703125,0.939453125,0.2734375,0.5180448889732361,0.7110677361488342,-6.089778707973892e-07,0.4605704247951507,0.650052547454834,-0.0052464460022747,0.4307101964950561,0.5585930347442627,-0.0074998470954597,0.4554564952850342,0.4981241226196289,-0.015051762573421,0.5022005438804626,0.5045167803764343,-0.0192727223038673,0.4952488541603088,0.5075964331626892,0.0158927384763956,0.4843231439590454,0.4437156319618225,-0.0141110438853502,0.4701763987541199,0.5037125945091248,-0.0294233374297618,0.4789410531520843,0.5345441699028015,-0.0357453972101211,0.5269840359687805,0.5131126642227173,0.0067707244306802,0.5153544545173645,0.4449417889118194,-0.0272562596946954,0.4986193180084228,0.5159733295440674,-0.0315697379410266,0.5118579864501953,0.5430527925491333,-0.0235733911395072,0.5597086548805237,0.5221012830734253,-0.0081286169588565,0.5456941723823547,0.4527606964111328,-0.0386829301714897,0.5280408263206482,0.5251038074493408,-0.0274340268224477,0.5414116978645325,0.5550566911697388,-0.0094466675072908,0.5971099138259888,0.5400104522705078,-0.0245792809873819,0.573018491268158,0.4830736219882965,-0.0404836684465408,0.5580796599388123,0.531787633895874,-0.030708685517311,0.5709535479545593,0.5594982504844666,-0.0176129601895809
2023-08-01 15:56:00.426616,29,496,0.665062427520752,0.6149387955665588,-0.1514925509691238,0.3957173228263855,0.048828125,0.93505859375,0.3486328125,0.5172937512397766,0.7072148323059082,-5.96398990637681e-07,0.4602040350437164,0.6472785472869873,-0.0057571013458073,0.4312233328819275,0.5559394955635071,-0.0079289469867944,0.4562049508094787,0.4980774521827698,-0.0147231798619031,0.5019736289978027,0.5059866905212402,-0.0179210696369409,0.496227890253067,0.5036731958389282,0.0133051425218582,0.485016405582428,0.4419707059860229,-0.0159970838576555,0.470869243144989,0.5025392174720764,-0.0306683983653783,0.4804510772228241,0.5323382616043091,-0.0368924364447593,0.5273672938346863,0.5103477835655212,0.0048640184104442,0.5153558254241943,0.4443423151969909,-0.0285740327090024,0.4990562200546264,0.5149778127670288,-0.0322061367332935,0.5138158798217773,0.5401825308799744,-0.0241638831794261,0.5595409274101257,0.5203222036361694,-0.0091239186003804,0.5456351041793823,0.4528324007987976,-0.0386598482728004,0.5281345844268799,0.5234863758087158,-0.0268847234547138,0.5426468253135681,0.550770103931427,-0.0091756107285618,0.5963284373283386,0.5382837653160095,-0.0247114393860101,0.5719882249832153,0.4833657741546631,-0.0401502847671508,0.5572197437286377,0.5314550399780273,-0.0304029453545808,0.5708949565887451,0.5572232604026794,-0.0176674537360668
2023-08-01 15:56:00.494393,30,497,0.6644917130470276,0.6165846586227417,-0.1528279781341552,0.3935959041118622,-0.017578125,0.9228515625,0.4287109375,0.5160291790962219,0.7066855430603027,-5.960312137176516e-07,0.4604873359203338,0.6480807662010193,-0.0053990674205124,0.4317042231559753,0.556856095790863,-0.0074880360625684,0.455686867237091,0.4980857074260711,-0.0142516987398266,0.5002805590629578,0.505907416343689,-0.0174527559429407,0.497437447309494,0.5039806365966797,0.0138365784659981,0.4863446652889251,0.442530483007431,-0.0150928245857357,0.4724845290184021,0.5025762319564819,-0.029772862792015,0.4821756184101105,0.5324566960334778,-0.0360952876508235,0.5286265015602112,0.5104987621307373,0.0052844556048512,0.5168248414993286,0.4448113143444061,-0.0275118127465248,0.5001648664474487,0.5148770809173584,-0.0311356540769338,0.5144667029380798,0.5405917763710022,-0.0232225153595209,0.5604656934738159,0.5206930637359619,-0.0087524317204952,0.5465403199195862,0.4540302753448486,-0.0375340208411216,0.528610110282898,0.524259626865387,-0.025785069912672,0.5428896546363831,0.5516214966773987,-0.008299515582621,0.5968074798583984,0.5393175482749939,-0.0243823956698179,0.5727354884147644,0.4848799109458923,-0.0391228906810283,0.5575118064880371,0.5326831340789795,-0.0292684808373451,0.5709643363952637,0.5583266019821167,-0.016621770337224
2023-08-01 15:56:00.546599,31,498,0.6666299104690552,0.6170361042022705,-0.153475746512413,0.3889937996864319,0.0537109375,0.9033203125,0.27734375,0.5194464921951294,0.706879198551178,-5.64746585496323e-07,0.4629846215248108,0.6428982615470886,-0.0038607602473348,0.4358665645122528,0.5548501014709473,-0.0052945953793823,0.458440899848938,0.4999175667762756,-0.0116660576313734,0.5025408864021301,0.5044690370559692,-0.0143186803907155,0.4978822469711303,0.5031686425209045,0.0170116033405065,0.4872684478759765,0.4445691704750061,-0.0096548553556203,0.4746019840240478,0.5016109347343445,-0.0234214048832654,0.4848284125328064,0.5287379026412964,-0.0297473408281803,0.5285280346870422,0.5083972215652466,0.0078455721959471,0.5176161527633667,0.4438135921955108,-0.0225672777742147,0.5013464689254761,0.511109471321106,-0.0260541681200265,0.5161008834838867,0.5344714522361755,-0.0189199373126029,0.5603084564208984,0.5175768733024597,-0.0066597759723663,0.5463716387748718,0.4510026574134826,-0.0335703156888484,0.5287638306617737,0.5177161693572998,-0.0221903454512357,0.5441907644271851,0.5433797240257263,-0.0056787673383951,0.5956562757492065,0.5354321599006653,-0.022708149626851,0.5696606636047363,0.4822701811790466,-0.0363348573446273,0.5539940595626831,0.5264447927474976,-0.0266929734498262,0.5683656334877014,0.5507841110229492,-0.0145713221281766
2023-08-01 15:56:00.594087,32,499,0.6699798107147217,0.6159639954566956,-0.1488395631313324,0.386732816696167,-0.1142578125,0.91064453125,0.439453125,0.5209357738494873,0.707056999206543,-5.715879751733155e-07,0.4636851549148559,0.644730806350708,-0.0043925959616899,0.4366748929023742,0.5550176501274109,-0.0060027739964425,0.4600793123245239,0.4970331490039825,-0.0126022771000862,0.5042705535888672,0.5022886991500854,-0.0157238654792308,0.4994630217552185,0.5029718279838562,0.0163845382630825,0.4880503714084625,0.4417716264724731,-0.0115974508225917,0.4751840233802795,0.4993903338909149,-0.0260485280305147,0.485137790441513,0.5294555425643921,-0.0321112275123596,0.5299821496009827,0.508540689945221,0.0073985271155834,0.5190728902816772,0.4424821436405182,-0.0237448383122682,0.5025999546051025,0.5106312036514282,-0.0273935589939355,0.5167988538742065,0.5361421704292297,-0.019869465380907,0.561536967754364,0.5185458660125732,-0.007059272378683,0.5483420491218567,0.4500888884067535,-0.0350821539759635,0.5303002595901489,0.5182534456253052,-0.0237717945128679,0.5444785356521606,0.5459810495376587,-0.0066344458609819,0.5969099998474121,0.537342369556427,-0.023028414696455,0.5726360082626343,0.4818023443222046,-0.0373047292232513,0.55679851770401,0.5271679759025574,-0.0274399872869253,0.5697979927062988,0.5531991124153137,-0.0147712519392371
2023-08-01 15:56:00.638885,33,500,0.6713119745254517,0.6155690550804138,-0.1448743492364883,0.3865571618080139,0.0546875,0.931640625,0.31201171875,0.5215005278587341,0.7077986001968384,-5.702483463210228e-07,0.464926928281784,0.6453911662101746,-0.0041754059493541,0.4381568729877472,0.5528445243835449,-0.005039183422923,0.459509789943695,0.4944301843643188,-0.010757808573544,0.5034727454185486,0.4995029270648956,-0.0126405917108058,0.500537097454071,0.4974289834499359,0.017759496346116,0.4898404777050018,0.4367939233779907,-0.0089668119326233,0.4764260947704315,0.4957866668701172,-0.0225799735635519,0.4862385094165802,0.524586021900177,-0.0284118149429559,0.5311012268066406,0.5029744505882263,0.0087636997923254,0.5204423666000366,0.4377816915512085,-0.0210841856896877,0.5034604072570801,0.5068857669830322,-0.0240195132791996,0.517788827419281,0.5309361219406128,-0.0161601062864065,0.5628517270088196,0.5139527320861816,-0.0057002450339496,0.5494999289512634,0.4465063810348511,-0.0323585979640483,0.5311118960380554,0.5153706073760986,-0.0204172432422637,0.5454838871955872,0.5417434573173523,-0.0032010357826948,0.5979743599891663,0.5340461730957031,-0.0217391178011894,0.5732923746109009,0.4800992608070373,-0.035090934485197,0.5573478937149048,0.5256680250167847,-0.0248740464448928,0.5706591606140137,0.550521194934845,-0.0120962373912334
2023-08-01 15:56:00.688106,34,501,0.6720272302627563,0.6149289608001709,-0.1396670937538147,0.3882458209991455,-0.0439453125,0.93115234375,0.404296875,0.5212253332138062,0.7067272663116455,-5.452009759210341e-07,0.4643644094467163,0.6457147002220154,-0.005374648142606,0.4362691342830658,0.555969774723053,-0.0074071022681891,0.456944078207016,0.4938983023166656,-0.0145168155431747,0.5019235610961914,0.4931881129741668,-0.0177699122577905,0.4993943572044372,0.4982541799545288,0.0180285386741161,0.4920853972434997,0.4330478310585022,-0.0093440022319555,0.4775573015213012,0.4902526438236236,-0.0230481978505849,0.4871980547904968,0.5210269093513489,-0.0285873562097549,0.5302760601043701,0.503659188747406,0.0089910263195633,0.5225386023521423,0.4334371089935303,-0.0208712853491306,0.5034566521644592,0.5007079839706421,-0.0236500725150108,0.5178593993186951,0.526279866695404,-0.0155902514234185,0.5620724558830261,0.5148714184761047,-0.0058529465459287,0.5513321161270142,0.4440321326255798,-0.0330716185271739,0.530677855014801,0.5105237364768982,-0.0207332372665405,0.5448200106620789,0.5380154252052307,-0.0029286642093211,0.5974385142326355,0.5355218052864075,-0.0224117487668991,0.5749030113220215,0.4779541790485382,-0.0352609157562255,0.5566799640655518,0.5216184258460999,-0.0240390636026859,0.5684971809387207,0.5482993125915527,-0.0105071384459733
2023-08-01 15:56:00.746433,35,502,0.6717156171798706,0.6149905920028687,-0.1389581114053726,0.3889411985874176,0.0263671875,0.95263671875,0.39111328125,0.524547815322876,0.7092671990394592,-5.35332503659447e-07,0.4663463532924652,0.6504180431365967,-0.0069379215128719,0.435849130153656,0.5553176999092102,-0.0093051251024007,0.4559296071529388,0.486948013305664,-0.0167699810117483,0.5033071041107178,0.4844629466533661,-0.0204354710876941,0.4936022758483886,0.5048068761825562,0.0186846684664487,0.4893493950366974,0.4353402256965637,-0.0077772312797605,0.4749133884906769,0.4916209578514099,-0.0205622017383575,0.4833336770534515,0.5243375897407532,-0.0252509228885173,0.5259120464324951,0.505932629108429,0.0104580037295818,0.5217261910438538,0.4295177161693573,-0.0198595877736806,0.5036076307296753,0.4968498945236206,-0.0231307055801153,0.5160552263259888,0.5271622538566589,-0.0144748678430914,0.5591170787811279,0.5136109590530396,-0.0036628860980272,0.5512988567352295,0.4367942810058594,-0.0314444229006767,0.5313337445259094,0.5030729174613953,-0.0204502493143081,0.5427984595298767,0.5354461669921875,-0.0026379628106951,0.5955833792686462,0.5310230255126953,-0.0195194836705923,0.5747601985931396,0.4703232645988464,-0.0325900204479694,0.556965708732605,0.5135461688041687,-0.0223362427204847,0.5667814016342163,0.5433251261711121,-0.0091726081445813
2023-08-01 15:56:00.794900,36,503,0.6723292469978333,0.6123278737068176,-0.1358775645494461,0.3931478559970855,-0.02734375,0.931640625,0.31005859375,0.518822193145752,0.6958526372909546,-1.746942928093631e-07,0.4581891596317291,0.6500210762023926,-0.0138980410993099,0.4282469451427459,0.563938558101654,-0.0141181964427232,0.4332884550094604,0.4888698160648346,-0.0185570642352104,0.4508545994758606,0.431859403848648,-0.019872635602951,0.5061228275299072,0.4940446317195892,0.033719390630722,0.5087034702301025,0.427542507648468,0.0190527625381946,0.4902790784835815,0.4117960929870605,0.0019015353173017,0.4780759811401367,0.4302566051483154,-0.0065313419327139,0.5385292172431946,0.4865153431892395,0.0299437008798122,0.5487326979637146,0.3983979523181915,0.0146254766732454,0.5246524810791016,0.3959122896194458,7.245895540108904e-05,0.509772777557373,0.4360169172286987,-0.0030900118872523,0.5700839757919312,0.4909317195415497,0.0197099521756172,0.5835430026054382,0.3978601694107055,0.0053370520472526,0.5608463883399963,0.3988191485404968,0.0002353190211579,0.5506708025932312,0.4388202130794525,0.0034018519800156,0.6040288805961609,0.5079382658004761,0.0064982725307345,0.6117601990699768,0.4309874773025512,-0.0043061706237494,0.5890034437179565,0.4278432130813598,-0.0043540075421333,0.5726838111877441,0.4634971022605896,0.0005909642786718
2023-08-01 15:56:00.854620,37,504,0.6730586886405945,0.6100260019302368,-0.1349383145570755,0.3957928717136383,-0.00439453125,0.927734375,0.326171875,0.513271152973175,0.7002273201942444,-2.2724780990301954e-07,0.4538102447986603,0.6507830619812012,-0.0164716485887765,0.4227937459945678,0.566743016242981,-0.0198175888508558,0.4257248640060425,0.4869419038295746,-0.0266605764627456,0.4438979029655456,0.4254758059978485,-0.0291326530277729,0.5044161081314087,0.4819028079509735,0.028100237250328,0.508233904838562,0.4032009840011596,0.007635754533112,0.4923499822616577,0.3911955952644348,-0.0133706480264663,0.481017917394638,0.4162641167640686,-0.0230827517807483,0.5396538376808167,0.4733352959156036,0.0255769174546003,0.5510885715484619,0.3798513114452362,0.0081652086228132,0.5304993987083435,0.3685629963874817,-0.0085994312539696,0.5149279236793518,0.4070901870727539,-0.013673422858119,0.5725504755973816,0.4800649583339691,0.0161457061767578,0.5885426998138428,0.3908537030220032,0.0017270632088184,0.5668411254882812,0.3801209330558777,-0.0054693170823156,0.552129864692688,0.4166309535503387,-0.0039525893516838,0.6077688932418823,0.5003892183303833,0.003381646471098,0.6210204362869263,0.4274848103523254,-0.0063410550355911,0.6004912853240967,0.403144359588623,-0.0091147171333432,0.5794729590415955,0.4205788671970367,-0.0060269082896411
2023-08-01 15:56:00.903636,38,505,0.6746686100959778,0.6076267957687378,-0.134900152683258,0.3967542648315429,-0.08251953125,0.91796875,0.34814453125,0.5114901065826416,0.7086485028266907,-2.034685024909777e-07,0.4535095393657684,0.6524485945701599,-0.0143808890134096,0.4212917685508728,0.5661791563034058,-0.0167710781097412,0.4199838042259216,0.4871922433376312,-0.0225562267005443,0.4308543801307678,0.4238240420818329,-0.0243366044014692,0.5059900283813477,0.4758686423301697,0.0279767550528049,0.507201611995697,0.402593046426773,0.0112375505268573,0.4917775690555572,0.3761825263500213,-0.0086286189034581,0.4737498760223388,0.3801843523979187,-0.0190429333597421,0.5410016179084778,0.4681689143180847,0.0247448310256004,0.5477126836776733,0.380199521780014,0.0126887187361717,0.5321339964866638,0.3514993786811828,-0.0031854815315455,0.5121186375617981,0.3700995445251465,-0.0106569807976484,0.574696958065033,0.4771544337272644,0.0150180291384458,0.5906289219856262,0.388365089893341,0.0032143588177859,0.5734174251556396,0.3647445440292358,-0.0048944787122309,0.5515947937965393,0.3892372250556946,-0.0059595587663352,0.6098551154136658,0.4997471868991852,0.0021150761749595,0.6246076822280884,0.4292751550674438,-0.0084928348660469,0.6070038080215454,0.3987244367599487,-0.0133409546688199,0.5805144309997559,0.4094431698322296,-0.0124409236013889
2023-08-01 15:56:00.963020,39,506,0.6775879263877869,0.6048340797424316,-0.1337903887033462,0.3964220881462097,0.03369140625,0.93017578125,0.248046875,0.5109166502952576,0.7109229564666748,-1.8639795484887145e-07,0.4536246061325073,0.6537299156188965,-0.0102008366957306,0.4201438128948211,0.5641767978668213,-0.0086771389469504,0.4170877635478973,0.4855202734470367,-0.0107913259416818,0.4219986796379089,0.4218354225158691,-0.0098306462168693,0.5055708289146423,0.4704377949237823,0.0355938076972961,0.5001359581947327,0.400724709033966,0.0254639647901058,0.4829841256141662,0.3705146312713623,0.0083273006603121,0.4622969925403595,0.3545593619346618,-0.0025913543067872,0.5413841009140015,0.4615562558174133,0.0310507323592901,0.5436242818832397,0.38161700963974,0.0270871575921773,0.532559335231781,0.3368763029575348,0.01408211607486,0.5120584964752197,0.3239480853080749,0.0051594004034996,0.5751686096191406,0.4707673490047455,0.0199045240879058,0.5879965424537659,0.3940102159976959,0.0124275833368301,0.5772521495819092,0.3547278344631195,0.0040110042318701,0.5523560643196106,0.3493363857269287,0.0003096354193985,0.6094837188720703,0.490556001663208,0.0059176702052354,0.6226609945297241,0.4255971312522888,-0.0030294491443783,0.6099786758422852,0.3916210234165191,-0.0077148806303739,0.583035945892334,0.3864158987998962,-0.0082937153056263
2023-08-01 15:56:01.010133,40,507,0.6806685924530029,0.6033437848091125,-0.1344394236803054,0.3931825757026672,0.05224609375,0.92431640625,0.38232421875,0.5098757147789001,0.7044904232025146,-5.081327714151485e-08,0.4532207548618316,0.6525722742080688,-0.0123207680881023,0.4198164939880371,0.564232349395752,-0.0128701804205775,0.4143595099449157,0.4885088503360748,-0.0163562055677175,0.4155611991882324,0.426937997341156,-0.0176503211259841,0.50514155626297,0.4663808941841125,0.0250639989972114,0.4980904161930084,0.3953381180763244,0.0148137006908655,0.4816557168960571,0.3564627170562744,-0.0016726849135011,0.4633194804191589,0.3283968567848205,-0.0137089751660823,0.5425321459770203,0.4561743140220642,0.0194402188062667,0.5499445796012878,0.3659686148166656,0.0131722884252667,0.5370525121688843,0.3122123777866363,-6.035228216205724e-05,0.5158675312995911,0.2849807143211365,-0.0098691182211041,0.5753428936004639,0.4651463031768799,0.0079034054651856,0.5913751721382141,0.3763533234596252,-0.0019985672552138,0.5760026574134827,0.3356603384017944,-0.012256059795618,0.5516424179077148,0.3243246078491211,-0.0180080290883779,0.6064517498016357,0.4895581901073456,-0.0064276419579982,0.6223433613777161,0.4192917346954345,-0.0172872804105281,0.6079421639442444,0.3829796314239502,-0.0236719287931919,0.5822234153747559,0.3717032074928283,-0.0265337880700826
2023-08-01 15:56:01.056142,41,508,0.6835185885429382,0.6014090180397034,-0.1340343803167343,0.3913366496562958,-0.06201171875,0.90771484375,0.3095703125,0.5079612135887146,0.7013455629348755,2.9507347676371865e-07,0.4492767453193664,0.6535099744796753,-0.0146294981241226,0.4144458174705505,0.562701404094696,-0.0192218516021966,0.3993039429187774,0.4908987879753113,-0.0241764113306999,0.3827760815620422,0.4345114529132843,-0.0289956629276275,0.4960869252681732,0.4428046941757202,0.0031021223403513,0.4894707202911377,0.3530345857143402,-0.0074983132071793,0.4843783378601074,0.2958371341228485,-0.0214835498481988,0.4816607534885406,0.2434920072555542,-0.0333148017525672,0.5402436852455139,0.435952365398407,-0.0043802531436085,0.5497723817825317,0.3327165246009826,-0.0139745799824595,0.5544785857200623,0.2614158391952514,-0.027366055175662,0.5563126802444458,0.2031227350234985,-0.0380501560866832,0.5748746395111084,0.4527702033519745,-0.0158953107893466,0.6005417704582214,0.362671434879303,-0.0282369945198297,0.6107891798019409,0.2979747653007507,-0.0411649160087108,0.6152360439300537,0.2412560284137725,-0.0509512834250927,0.6010804176330566,0.4854121804237366,-0.0294870659708976,0.6299562454223633,0.4138946235179901,-0.041509598493576,0.6432204842567444,0.360328733921051,-0.0483641847968101,0.650836169719696,0.3088527023792267,-0.0536546409130096
2023-08-01 15:56:01.103766,42,509,0.6862612366676331,0.6004323959350586,-0.1350062936544418,0.3876851797103882,-0.05126953125,0.927734375,0.326171875,0.5114188194274902,0.7114707231521606,2.802822507419478e-07,0.4523989260196686,0.6577527523040771,-0.014905896037817,0.4147912859916687,0.5638124942779541,-0.0195427890866994,0.39404958486557,0.4921108484268188,-0.0248846672475337,0.3734139204025268,0.4389356672763824,-0.0302028637379407,0.4948446750640869,0.4355975687503814,0.0036449872422963,0.4893161654472351,0.3447722792625427,-0.0075957551598548,0.4859578609466553,0.2884634435176849,-0.022287243977189,0.4863544106483459,0.237267330288887,-0.0345785245299339,0.5391636490821838,0.429688811302185,-0.0040327352471649,0.5519052743911743,0.3242605924606323,-0.0125892888754606,0.5594555139541626,0.2533318102359772,-0.0257912632077932,0.5646086931228638,0.1937910616397857,-0.0368873924016952,0.5756312012672424,0.4472290873527527,-0.0160207170993089,0.6034107208251953,0.3580924272537231,-0.0268409512937068,0.6169142127037048,0.2961509227752685,-0.0395280495285987,0.6242752075195312,0.2413718402385711,-0.0497404597699642,0.6033359169960022,0.4811690747737884,-0.0304278526455163,0.636101245880127,0.4134202897548675,-0.041108950972557,0.6540704369544983,0.3637114763259887,-0.0478533469140529,0.6670258045196533,0.315811425447464,-0.0534291006624698
2023-08-01 15:56:01.167095,43,510,0.6886838674545288,0.598899781703949,-0.1346410661935806,0.3858825862407684,0.033203125,0.91162109375,0.4375,0.5130500197410583,0.7167246341705322,3.075505503602472e-07,0.4541752338409424,0.6621664762496948,-0.0168895870447158,0.4141860008239746,0.5669628381729126,-0.0220967978239059,0.3921857476234436,0.4930534958839416,-0.0275680981576442,0.3694516122341156,0.4393927752971649,-0.0331260412931442,0.4931993186473846,0.4330235719680786,0.0015292074531316,0.4905652403831482,0.3378605842590332,-0.0092434464022517,0.4887160062789917,0.2795346975326538,-0.0234448052942752,0.4897757470607757,0.226848229765892,-0.0358069464564323,0.5384302139282227,0.4285703003406524,-0.005838172044605,0.5561531782150269,0.3217055797576904,-0.012405214831233,0.5663968920707703,0.2523780167102813,-0.0241948850452899,0.5737464427947998,0.1954085826873779,-0.0350863374769687,0.5756688714027405,0.4470850527286529,-0.0178705304861068,0.6070383191108704,0.3556861579418182,-0.0276699680835008,0.6229052543640137,0.2929536700248718,-0.0396676957607269,0.6328234076499939,0.2367842942476272,-0.0504985004663467,0.6041012406349182,0.4821873009204864,-0.0325874872505664,0.6392067670822144,0.4167197346687317,-0.0439169257879257,0.6605408191680908,0.3688193559646606,-0.0509391799569129,0.6774876713752747,0.3216812014579773,-0.0572722591459751
2023-08-01 15:56:01.226081,44,511,0.690224289894104,0.5975459814071655,-0.1334862411022186,0.3856301605701446,-0.009765625,0.89208984375,0.3369140625,0.5120617747306824,0.7230117321014404,3.332640119424468e-07,0.4523572921752929,0.6669731140136719,-0.017894746735692,0.4127054810523987,0.56973797082901,-0.0232932176440954,0.3909435868263244,0.4954672157764435,-0.0287970826029777,0.3666561543941498,0.441304862499237,-0.034162800759077,0.4928286075592041,0.4291248917579651,0.0022179158404469,0.4907374680042267,0.3338792324066162,-0.0079684639349579,0.4894807934761047,0.2754071652889251,-0.0219651330262422,0.4911380112171173,0.2228770852088928,-0.0343395210802555,0.5385059118270874,0.4255536496639251,-0.0050014667212963,0.5578651428222656,0.3185350894927978,-0.0106370681896805,0.568962037563324,0.2502865493297577,-0.0217045880854129,0.5772975087165833,0.195068210363388,-0.0321703217923641,0.5761979818344116,0.4456444978713989,-0.0171687882393598,0.608885645866394,0.3532547950744629,-0.0264639127999544,0.6249834299087524,0.2910926938056946,-0.037849873304367,0.6355538368225098,0.2349495440721511,-0.0484856888651847,0.6048961281776428,0.4832670092582702,-0.0322345420718193,0.6424490213394165,0.4178463220596313,-0.0433491989970207,0.6652074456214905,0.3711983859539032,-0.0500198230147361,0.6839559674263,0.324563592672348,-0.0561780631542205
2023-08-01 15:56:01.276250,45,512,0.6914988160133362,0.5970250964164734,-0.1317573636770248,0.3847472667694092,-0.064453125,0.923828125,0.33935546875,0.5128765106201172,0.7270568609237671,3.579315546176076e-07,0.4525581002235412,0.6687254905700684,-0.0182631742209196,0.411562442779541,0.5693790912628174,-0.0238373074680566,0.3880127072334289,0.4942352771759033,-0.0294559970498085,0.3614373803138733,0.441817045211792,-0.034758523106575,0.4922961592674255,0.4268377423286438,0.0030960151925683,0.491144448518753,0.3301871418952942,-0.006658483762294,0.4910436272621155,0.2716146111488342,-0.0203516818583011,0.494096577167511,0.2192383110523224,-0.0326046086847782,0.5384706258773804,0.4243565201759338,-0.0040665483102202,0.5585562586784363,0.3157775700092315,-0.0088846879079937,0.5710943937301636,0.2482366263866424,-0.0189179871231317,0.5809544324874878,0.1937947273254394,-0.0287358779460191,0.5767561793327332,0.4461551904678345,-0.0164421796798706,0.6100518107414246,0.351409375667572,-0.0253361836075782,0.6272044777870178,0.2898786067962646,-0.0357189960777759,0.6389070153236389,0.2343371957540512,-0.0457587912678718,0.6064229607582092,0.4856214225292206,-0.0318622775375843,0.6450684666633606,0.4200455546379089,-0.0427657216787338,0.6690297722816467,0.3737594187259674,-0.0489874891936779,0.6894267201423645,0.3271209299564361,-0.0549107640981674
2023-08-01 15:56:01.338262,46,513,0.6921903491020203,0.5970538854598999,-0.1316739171743393,0.3834856450557709,-0.11376953125,0.9306640625,0.3642578125,0.5132833123207092,0.7349663972854614,4.3824616113852244e-07,0.449952095746994,0.6744071245193481,-0.0197877492755651,0.4054033160209656,0.5813543200492859,-0.027640514075756,0.376474529504776,0.5153082609176636,-0.0356337465345859,0.3464624285697937,0.4665957689285278,-0.0435578450560569,0.4893437027931213,0.4293991923332214,-0.0006755594513379,0.4859771132469177,0.3291695117950439,-0.012526137754321,0.4846311509609222,0.2664124667644501,-0.0276854429394006,0.485958456993103,0.2118233442306518,-0.0406725704669952,0.5369347929954529,0.4273558557033539,-0.0084017151966691,0.5562183856964111,0.3144335746765136,-0.0147396391257643,0.5688310861587524,0.2431012392044067,-0.0264154709875583,0.5786752104759216,0.18583744764328,-0.0371486209332942,0.577505350112915,0.4508618712425232,-0.0214191321283578,0.6096768379211426,0.3544802069664001,-0.0322125926613807,0.6271946430206299,0.2917396426200866,-0.0445459522306919,0.6396368741989136,0.2350084334611892,-0.0554734021425247,0.6093834042549133,0.4933629930019378,-0.0375153832137584,0.6507207751274109,0.4288277924060821,-0.0494452640414238,0.6771634221076965,0.3842923641204834,-0.0559193380177021,0.7002319097518921,0.3397670090198517,-0.0617181770503521
2023-08-01 15:56:01.392261,47,514,0.6924235820770264,0.5972217321395874,-0.1331461817026138,0.3822931051254272,0.00244140625,0.91259765625,0.40625,0.5140218138694763,0.7393000721931458,4.361270100616821e-07,0.4520744681358337,0.6766008138656616,-0.0191281698644161,0.4071326553821563,0.5825680494308472,-0.0270432848483324,0.3769623041152954,0.5158987641334534,-0.0354459956288337,0.3451592624187469,0.468079000711441,-0.0439273118972778,0.4897504150867462,0.4298652410507202,0.0002527709002606,0.4868607819080353,0.3302021026611328,-0.0121731087565422,0.4857145547866821,0.2679768800735473,-0.0277782771736383,0.4873062968254089,0.2132063508033752,-0.0411139950156211,0.5374709963798523,0.4268458485603332,-0.0080961193889379,0.5573314428329468,0.3138680458068847,-0.0150581831112504,0.570046603679657,0.2430853694677353,-0.027163753286004,0.5799461007118225,0.185697317123413,-0.0381768941879272,0.5779771208763123,0.4500960409641266,-0.0217433534562587,0.6115450859069824,0.3543702960014343,-0.0329874493181705,0.6297812461853027,0.2915692925453186,-0.0453039892017841,0.6423391103744507,0.2351626008749008,-0.0561816841363906,0.6098682880401611,0.4932527542114258,-0.0384469479322433,0.6527464985847473,0.4294362068176269,-0.0504269041121006,0.6801935434341431,0.3847551345825195,-0.0566611178219318,0.7037487626075745,0.3402826189994812,-0.0622586123645305
2023-08-01 15:56:01.446973,48,515,0.6925647258758545,0.5969322919845581,-0.1325429230928421,0.3826988041400909,-0.05908203125,0.927734375,0.3681640625,0.5131688117980957,0.741621732711792,4.292030837405037e-07,0.4510283768177032,0.6786454319953918,-0.0187409725040197,0.4065722525119781,0.5833418369293213,-0.026097210124135,0.3775149583816528,0.5160868167877197,-0.0339596755802631,0.3453253507614136,0.4697936177253723,-0.0419774651527404,0.4897506535053253,0.4306663274765014,0.0004955340991728,0.4869585037231445,0.3312423527240753,-0.0116991596296429,0.4859866201877594,0.2687815427780151,-0.0269954390823841,0.4876528978347778,0.2139022648334503,-0.0401190593838691,0.5380033850669861,0.4278934597969055,-0.0079328259453177,0.5583862066268921,0.3144757151603699,-0.0148142809048295,0.5713308453559875,0.2436853796243667,-0.0265825372189283,0.5813829898834229,0.1860551238059997,-0.0372633449733257,0.5787644386291504,0.451637864112854,-0.021595224738121,0.6127787828445435,0.3558765649795532,-0.0329407788813114,0.6312620639801025,0.2931219935417175,-0.0449109338223934,0.6441025733947754,0.2364232987165451,-0.0554200559854507,0.6107414364814758,0.4954030215740204,-0.0382673181593418,0.6542125940322876,0.4316233396530151,-0.0502737239003181,0.6819987893104553,0.3866756856441498,-0.0562792792916297,0.7059117555618286,0.3416222035884857,-0.0616619028151035
2023-08-01 15:56:01.507002,49,516,0.6927633285522461,0.596747875213623,-0.1324263662099838,0.3826673030853271,-0.07763671875,0.91650390625,0.4326171875,0.512127161026001,0.7443858981132507,4.324233486840967e-07,0.4499251544475555,0.6817663908004761,-0.0197099819779396,0.4057160317897796,0.5870488882064819,-0.0277699213474988,0.3765103816986084,0.5212480425834656,-0.0362041033804416,0.3445609211921692,0.4738817811012268,-0.0446931980550289,0.4881725311279297,0.4342648684978485,-0.000937441654969,0.4847321808338165,0.3325053453445434,-0.0137131977826356,0.4832457602024078,0.2689210474491119,-0.0293254945427179,0.4846124053001404,0.2133149802684784,-0.0424865595996379,0.5366349220275879,0.4316262900829315,-0.0088306572288274,0.5555220246315002,0.3162162005901336,-0.0158425495028495,0.5674669146537781,0.2437123954296112,-0.027925482019782,0.5769557952880859,0.184657335281372,-0.0388503484427928,0.5780366063117981,0.4552591443061828,-0.0219605732709169,0.6108394861221313,0.3576664328575134,-0.0333448871970176,0.628959059715271,0.2942852675914764,-0.0457149483263492,0.6417019367218018,0.2370848357677459,-0.0564945489168167,0.6109000444412231,0.4987921118736267,-0.038147434592247,0.6541764140129089,0.4348760545253753,-0.0500176846981048,0.6822709441184998,0.3902055025100708,-0.0560382381081581,0.7066537141799927,0.3458524346351623,-0.0614256635308265
