Timestamp,Index,Frame ID,w,x,y,z,ax,ay,az,x_0,y_0,z_0,x_1,y_1,z_1,x_2,y_2,z_2,x_3,y_3,z_3,x_4,y_4,z_4,x_5,y_5,z_5,x_6,y_6,z_6,x_7,y_7,z_7,x_8,y_8,z_8,x_9,y_9,z_9,x_10,y_10,z_10,x_11,y_11,z_11,x_12,y_12,z_12,x_13,y_13,z_13,x_14,y_14,z_14,x_15,y_15,z_15,x_16,y_16,z_16,x_17,y_17,z_17,x_18,y_18,z_18,x_19,y_19,z_19,x_20,y_20,z_20
2023-08-01 16:05:56.104772,0,559,0.7027725577354431,0.2291612029075622,-0.0909918919205665,0.667320191860199,-0.39208984375,0.89208984375,0.0791015625,0.8898090124130249,0.710811197757721,-8.881407325134205e-07,0.8126729130744934,0.6280194520950317,-0.0094901099801063,0.7533218264579773,0.5387040376663208,-0.0265704486519098,0.7040844559669495,0.4833608865737915,-0.0478435903787612,0.6764975786209106,0.426587700843811,-0.0679566413164138,0.876025378704071,0.3805558085441589,-0.0040717865340411,0.7919603586196899,0.3414108753204345,-0.0478697642683982,0.7275376915931702,0.3585458993911743,-0.086133025586605,0.6799383163452148,0.3893781304359436,-0.108996033668518,0.9057462215423584,0.3980376124382019,-0.0207584537565708,0.7961716651916504,0.3407065272331238,-0.0628349035978317,0.727109432220459,0.3794930279254913,-0.0944857001304626,0.6842699646949768,0.4232822954654693,-0.1113890707492828,0.9214019179344176,0.4374594390392303,-0.0418133735656738,0.8195359706878662,0.3860809803009033,-0.083899587392807,0.7469043731689453,0.4176061451435089,-0.1030075326561927,0.6990854740142822,0.4529521763324737,-0.1084215268492698,0.9184417128562928,0.4961244463920593,-0.0632116794586181,0.81999272108078,0.4781131148338318,-0.0995619967579841,0.7613331079483032,0.4861868321895599,-0.1141043230891227,0.7187557816505432,0.4961519241333008,-0.1173517182469368
2023-08-01 16:05:56.167630,1,560,0.7035746574401855,0.224261850118637,-0.0890489965677261,0.6684007048606873,-0.4091796875,0.89404296875,0.06787109375,0.8885258436203003,0.711295485496521,-8.622748168818362e-07,0.8108076453208923,0.627110481262207,-0.0069830287247896,0.7503313422203064,0.5393357276916504,-0.0253400094807147,0.6983841061592102,0.4847858548164367,-0.0495336167514324,0.6697942614555359,0.4246366024017334,-0.0727529302239418,0.8728765845298767,0.3841667473316192,-0.0012270436855033,0.7921142578125,0.3392725586891174,-0.0489861890673637,0.727584719657898,0.3547618985176086,-0.0900542363524437,0.6787452697753906,0.3880610466003418,-0.1141541451215744,0.901702880859375,0.4016156196594238,-0.0212444607168436,0.7959378957748413,0.3394516110420227,-0.0680934861302375,0.7255886197090149,0.3760489225387573,-0.1028309613466262,0.6811685562133789,0.420563131570816,-0.1210101917386055,0.9167750477790833,0.4395740032196045,-0.0460697375237941,0.8184159398078918,0.3842376172542572,-0.0910951122641563,0.7446041107177734,0.4137089252471924,-0.1119322106242179,0.6960819959640503,0.4498817324638366,-0.1178449839353561,0.913723349571228,0.4958329498767853,-0.071203127503395,0.8197214007377625,0.4715172052383423,-0.1085672229528427,0.7597240805625916,0.4779860377311706,-0.1241297498345375,0.715566098690033,0.488593578338623,-0.1280340254306793
2023-08-01 16:05:56.228667,2,561,0.7042081952095032,0.2171629965305328,-0.0854302048683166,0.6705465316772461,-0.40966796875,0.89990234375,0.04736328125,0.8841736316680908,0.7085703015327454,-8.987876753963064e-07,0.8056986927986145,0.6245858073234558,-0.0058843474835157,0.7478489279747009,0.5370244383811951,-0.0221978761255741,0.6986695528030396,0.4841266870498657,-0.0443102046847343,0.6685740351676941,0.4278945922851562,-0.0654762014746666,0.8712792992591858,0.3799876570701599,0.0007657906389795,0.7895237803459167,0.3356238603591919,-0.0441695004701614,0.7252253293991089,0.3534979820251465,-0.083539679646492,0.6783549785614014,0.3871979713439941,-0.1067609339952468,0.9009572267532348,0.3969053030014038,-0.0182211454957723,0.7925965189933777,0.3417559564113617,-0.0614904426038265,0.7235715389251709,0.379379004240036,-0.0946564376354217,0.6803351640701294,0.4233949780464172,-0.112505242228508,0.9162847399711608,0.4353386759757995,-0.0417930781841278,0.8128851652145386,0.3836240768432617,-0.083985261619091,0.7395026087760925,0.4135091304779053,-0.1039852946996688,0.6911619901657104,0.4489789307117462,-0.109984241425991,0.913007378578186,0.492961049079895,-0.0655896812677383,0.813359797000885,0.4702911078929901,-0.1010203063488006,0.7536302804946899,0.4768733382225036,-0.1156821101903915,0.7103898525238037,0.4873303771018982,-0.1191867589950561
2023-08-01 16:05:56.289684,3,562,0.7053983807563782,0.2073842138051986,-0.0828632563352584,0.6727099418640137,-0.38916015625,0.8828125,0.076171875,0.8836281299591064,0.7100000381469727,-8.745034847379429e-07,0.8028761148452759,0.6235121488571167,-0.0053951856680214,0.7422688603401184,0.5366407036781311,-0.023527817800641,0.6925384998321533,0.4841321110725403,-0.0474175699055194,0.659874677658081,0.4298857152462005,-0.0703663453459739,0.8637773394584656,0.3789462745189667,-0.0035960501991212,0.7809575796127319,0.3336582779884338,-0.0501573346555233,0.7175190448760986,0.3523178100585937,-0.0894289314746856,0.6711265444755554,0.3860577344894409,-0.1124218627810478,0.8942742943763733,0.3954810500144958,-0.0238743443042039,0.7848946452140808,0.3415356874465942,-0.0685732290148735,0.7156224250793457,0.3792046308517456,-0.1005530133843422,0.671730637550354,0.423375129699707,-0.1172250881791114,0.9111949801445008,0.4349781572818756,-0.0485315844416618,0.8084461688995361,0.3834090232849121,-0.0925862342119216,0.7360486388206482,0.4153469204902649,-0.110911913216114,0.687620222568512,0.4517531991004944,-0.1154119372367858,0.910088062286377,0.4941580295562744,-0.0733145624399185,0.812751293182373,0.4763628542423248,-0.1115240231156349,0.7536369562149048,0.486039400100708,-0.1260334849357605,0.7100817561149597,0.4981257617473602,-0.1287357360124588
2023-08-01 16:05:56.351927,4,563,0.7074652910232544,0.1962819993495941,-0.0800638049840927,0.6742077469825745,-0.38037109375,0.88720703125,0.12060546875,0.8486860990524292,0.7086129188537598,-8.731107072890154e-07,0.7660118937492371,0.6207188963890076,-0.0043986374512314,0.709110677242279,0.5330970287322998,-0.0205156300216913,0.6574493646621704,0.4806441962718963,-0.0419830158352851,0.6157454252243042,0.4353872537612915,-0.0632661208510398,0.8295680284500122,0.3729365170001983,-0.001034072949551,0.7369669675827026,0.3337897658348083,-0.0421734675765037,0.6705783605575562,0.3599353730678558,-0.0793761909008026,0.6256465911865234,0.3964414596557617,-0.1022533997893333,0.8588238954544067,0.3866044282913208,-0.0200819168239831,0.74305659532547,0.338696151971817,-0.0581501759588718,0.6725957989692688,0.3767554759979248,-0.0888125300407409,0.6265090703964233,0.4186218082904815,-0.106780856847763,0.8728867173194885,0.4272727370262146,-0.0428074225783348,0.765805721282959,0.3774436712265014,-0.0805275291204452,0.6914268136024475,0.4068204462528229,-0.0984239429235458,0.6397214531898499,0.4384939670562744,-0.1050554439425468,0.8667008280754089,0.4890279471874237,-0.0656489729881286,0.7660217881202698,0.4729600846767425,-0.099202387034893,0.7077649831771851,0.4816473722457886,-0.1124237179756164,0.6641409397125244,0.4915328025817871,-0.1158483400940895
2023-08-01 16:05:56.419637,5,564,0.7100828289985657,0.183712363243103,-0.0757729634642601,0.6754927635192871,-0.4453125,0.8701171875,0.1494140625,0.8294546604156494,0.7000324726104736,-9.010154258248804e-07,0.7491104602813721,0.6150375604629517,-0.0006018661078996,0.6911413073539734,0.5299659967422485,-0.0155977169051766,0.6402445435523987,0.4791445732116699,-0.0365312322974205,0.5989162921905518,0.4317851364612579,-0.0575095824897289,0.8097407221794128,0.3688201308250427,-0.001752580399625,0.7173989415168762,0.3285806179046631,-0.0438163019716739,0.6520963311195374,0.3523111939430237,-0.0803366973996162,0.6085232496261597,0.387542188167572,-0.1022334322333335,0.8398661613464355,0.3843476772308349,-0.0227901637554168,0.7261993288993835,0.3342360258102417,-0.0601880215108394,0.6565015316009521,0.3729475140571594,-0.0877185761928558,0.6126520037651062,0.4144942164421081,-0.1036580726504325,0.8542640805244446,0.4266115427017212,-0.0473717004060745,0.7488948106765747,0.3757679760456085,-0.0854102224111557,0.6765398979187012,0.4087996780872345,-0.1007898971438407,0.6270003914833069,0.441947191953659,-0.1056618764996528,0.8496438264846802,0.4894773662090301,-0.0716664865612983,0.7506588697433472,0.4728104472160339,-0.1048718988895416,0.6922183036804199,0.4817464351654053,-0.1165832057595253,0.648098349571228,0.4903943538665771,-0.1191371902823448
2023-08-01 16:05:56.474763,6,565,0.7121108174324036,0.174268364906311,-0.0722058340907096,0.676250696182251,-0.42138671875,0.857421875,0.1435546875,0.8135516047477722,0.6981028318405151,-9.334799528915028e-07,0.7328454256057739,0.6150162816047668,-0.0006565692019648,0.6750277280807495,0.5285005569458008,-0.0148269515484571,0.625704824924469,0.4779625833034515,-0.0347634144127368,0.5827449560165405,0.4364061653614044,-0.0551734939217567,0.7952706217765808,0.3649851381778717,-0.0030051202047616,0.7010019421577454,0.3272923827171325,-0.0456874556839466,0.6329562664031982,0.3462556004524231,-0.0831686332821846,0.5830203294754028,0.3759866952896118,-0.1059006974101066,0.8243558406829834,0.3802538812160492,-0.0244492255151271,0.7082732319831848,0.3337503969669342,-0.0617244690656662,0.6355630159378052,0.3702762722969055,-0.0897397696971893,0.5860891342163086,0.4079188108444214,-0.1065124943852424,0.8377689719200134,0.4236375093460083,-0.0494401752948761,0.7289258241653442,0.3747878670692444,-0.0883843526244163,0.6545519828796387,0.4072056412696838,-0.105187676846981,0.6021199226379395,0.4379364848136902,-0.1113317236304283,0.8317800164222717,0.4887358546257019,-0.0740943178534507,0.728699803352356,0.4746500551700592,-0.1090136915445327,0.6680473685264587,0.4837608933448791,-0.1220025494694709,0.6221783757209778,0.4919556677341461,-0.1255721151828766
2023-08-01 16:05:56.534758,7,566,0.7141828536987305,0.1652942597866058,-0.0679292678833007,0.6767615675926208,-0.41650390625,0.888671875,0.16259765625,0.7780093550682068,0.6986088752746582,-8.852362043398898e-07,0.6708882451057434,0.6165125966072083,-0.0051487679593265,0.6042152643203735,0.5335119366645813,-0.0235522016882896,0.5516316294670105,0.4868632555007934,-0.0466845035552978,0.5127899646759033,0.4516787827014923,-0.0713512152433395,0.7414926886558533,0.3571139872074127,-0.0167866796255111,0.622556209564209,0.3191365599632263,-0.0584287904202938,0.5489726662635803,0.3499997854232788,-0.0939500331878662,0.4977009892463684,0.3883102834224701,-0.116109699010849,0.7647367119789124,0.3741060197353363,-0.0366425365209579,0.6233721375465393,0.324144572019577,-0.0744971260428428,0.546506404876709,0.3721559941768646,-0.1015429943799972,0.4986040592193603,0.4192178547382355,-0.1185769066214561,0.7697321772575378,0.4199005961418152,-0.059302631765604,0.6387242078781128,0.3708028197288513,-0.0957114025950431,0.5620594024658203,0.410446286201477,-0.1131277531385421,0.5124601125717163,0.4486832022666931,-0.1209169328212738,0.7588598728179932,0.4882796704769134,-0.0820513069629669,0.6454927921295166,0.4755477607250213,-0.1141341477632522,0.5807055234909058,0.4829026460647583,-0.1284076571464538,0.5337073802947998,0.491061121225357,-0.1339211612939834
2023-08-01 16:05:56.617767,8,567,0.719536542892456,0.1474830210208892,-0.0572917610406875,0.6761904358863831,-0.47412109375,0.8603515625,0.11181640625,0.7516504526138306,0.705186128616333,-9.71739041233377e-07,0.6514558792114258,0.6102098226547241,0.0054453066550195,0.5862122178077698,0.5258939266204834,-0.0102990427985787,0.5359430313110352,0.4741316139698028,-0.0327736362814903,0.4979687035083771,0.4336012005805969,-0.0560063272714614,0.7230210304260254,0.3560883998870849,-0.0058407657779753,0.6074141263961792,0.3242300748825073,-0.0479101352393627,0.5327556133270264,0.356003999710083,-0.0847440436482429,0.4840254187583923,0.3973247706890106,-0.1075789481401443,0.7438931465148926,0.3721306324005127,-0.0302127823233604,0.6055039763450623,0.3291361927986145,-0.0684240907430648,0.5294315218925476,0.3775551319122314,-0.0963023230433464,0.4805108904838562,0.4292880892753601,-0.1136215180158615,0.7480911016464233,0.4162442088127136,-0.0566455908119678,0.6145051717758179,0.3733561038970947,-0.0917895287275314,0.5376875400543213,0.4147197306156158,-0.1071048602461814,0.4853744506835937,0.4548050761222839,-0.1142391487956047,0.7356305122375488,0.4839697182178497,-0.0823519229888916,0.6210384964942932,0.4778971076011657,-0.1127760782837867,0.5592528581619263,0.4906013309955597,-0.1247918456792831,0.5135698318481445,0.5009951591491699,-0.1292808949947357
2023-08-01 16:05:56.695835,9,568,0.7229294180870056,0.1339547038078308,-0.0546630062162876,0.6756042242050171,-0.42626953125,0.84423828125,0.17333984375,0.7424557209014893,0.7079123258590698,-9.591292382538086e-07,0.6362418532371521,0.6129125356674194,0.0119232246652245,0.5731701850891113,0.5247848629951477,-0.0002206141361966,0.5234212875366211,0.469474732875824,-0.0199978109449148,0.4876908361911773,0.4244058430194855,-0.040599524974823,0.712530255317688,0.3583828210830688,-0.0009101519244723,0.5955124497413635,0.3202466070652008,-0.0377331934869289,0.5219670534133911,0.3507394194602966,-0.0698623061180114,0.4748164117336273,0.3908546864986419,-0.0897766798734664,0.7304240465164185,0.3757321238517761,-0.0269203819334507,0.5916773080825806,0.3268131017684936,-0.05866140127182,0.5163847208023071,0.3704796731472015,-0.0820087864995002,0.4681576490402221,0.4186520576477051,-0.0973922759294509,0.7304804921150208,0.4198161959648132,-0.0543233454227447,0.5956578850746155,0.3760799467563629,-0.0843767672777175,0.5188417434692383,0.4134180545806885,-0.0975184142589569,0.4663940668106079,0.4495662450790405,-0.1046068221330642,0.7126612067222595,0.4863755404949188,-0.0805503129959106,0.5961542129516602,0.4794217646121979,-0.1076029539108276,0.5327319502830505,0.4911330938339233,-0.1185899376869201,0.4853149652481079,0.5005620718002319,-0.1231727972626686
2023-08-01 16:05:56.775809,10,569,0.7269769906997681,0.1188966035842895,-0.0530310198664665,0.6742075085639954,-0.46923828125,0.84814453125,0.21875,0.6876662969589233,0.7056394219398499,-9.440819326300698e-07,0.5699953436851501,0.610064685344696,0.0148794231936335,0.5103200078010559,0.5166296362876892,0.0036215037107467,0.4628679156303406,0.4605784714221954,-0.0147184412926435,0.4232292771339416,0.4204670488834381,-0.0360872149467468,0.6450210213661194,0.3490324020385742,-0.0165741667151451,0.5076736211776733,0.3161757588386535,-0.0465553253889083,0.4353221654891968,0.3624876141548157,-0.0698886662721633,0.3938555717468261,0.4072325229644775,-0.0860531777143478,0.6591514945030212,0.3690940737724304,-0.0432706885039806,0.5029308795928955,0.324657142162323,-0.0716984644532203,0.4286054968833923,0.3806179761886596,-0.0891885086894035,0.3855008482933044,0.4329783916473388,-0.103084810078144,0.6529123187065125,0.419922411441803,-0.0692791268229484,0.5049230456352234,0.3735502362251282,-0.0979449674487114,0.4314672350883484,0.4208992719650268,-0.1107431054115295,0.3860716819763183,0.4636569321155548,-0.119827777147293,0.6325345635414124,0.4919760525226593,-0.0932663902640342,0.5150779485702515,0.4830245673656463,-0.1240086704492569,0.4484843313694,0.4945639371871948,-0.1399049609899521,0.3993121385574341,0.5039775967597961,-0.1495038270950317
2023-08-01 16:05:56.851533,11,570,0.7292924523353577,0.1075586229562759,-0.0505773834884166,0.6737993955612183,-0.46875,0.8740234375,0.19873046875,0.6652076244354248,0.7058396339416504,-9.41282451094594e-07,0.554150402545929,0.6129342317581177,0.0175853315740823,0.4954672753810882,0.5248706936836243,0.0045557087287306,0.4429019689559936,0.4678610563278198,-0.0162054076790809,0.3978849053382873,0.4251546263694763,-0.0396621935069561,0.6267255544662476,0.3575319051742553,-0.0146895349025726,0.4934166371822357,0.3195982575416565,-0.0480958484113216,0.41933673620224,0.3550173938274383,-0.0743529349565506,0.3774839639663696,0.3944839537143707,-0.0913348942995071,0.639199435710907,0.3744308650493622,-0.0428447984158992,0.4878461360931396,0.3208906650543213,-0.0727525800466537,0.4142186045646667,0.3698274195194244,-0.0914818942546844,0.3708304762840271,0.4233848452568054,-0.1051532253623008,0.6332562565803528,0.4219451248645782,-0.0700746178627014,0.4885908365249634,0.3685064017772674,-0.0979296490550041,0.4155444502830505,0.4116936028003692,-0.1100916489958763,0.3686032295227051,0.4554393887519836,-0.118725411593914,0.6098493933677673,0.4914125800132751,-0.0951046720147132,0.4950253963470459,0.4867567718029022,-0.1231566816568374,0.4301378130912781,0.5010801553726196,-0.1372846812009811,0.3806631565093994,0.51413893699646,-0.1456653475761413
2023-08-01 16:05:56.917419,12,571,0.7307616472244263,0.0985395610332489,-0.0502918176352977,0.6736082434654236,-0.48046875,0.84619140625,0.1767578125,0.6058210134506226,0.7077332139015198,-8.645343427815533e-07,0.4889174103736877,0.6300187706947327,0.0201174318790435,0.4276618361473083,0.5474262237548828,0.0101864514872431,0.3721958994865417,0.500347912311554,-0.0075047449208796,0.3230165243148803,0.4720961451530456,-0.0285460706800222,0.5573678612709045,0.3625510036945343,-0.0129193691536784,0.4185137152671814,0.3198963701725006,-0.0374709591269493,0.3491125106811523,0.3685052096843719,-0.0564356744289398,0.3116560876369476,0.4200910031795501,-0.0685321241617202,0.5620989799499512,0.3810445070266723,-0.038538072258234,0.4055496454238891,0.3281335830688476,-0.057011242955923,0.3346349895000458,0.3783142268657684,-0.0685558095574379,0.2942505776882171,0.4337553083896637,-0.0793540999293327,0.5484481453895569,0.4310141503810882,-0.0624882318079471,0.397597461938858,0.3863628208637237,-0.0787577107548713,0.3280458450317383,0.4264372289180755,-0.086140938103199,0.2859399914741516,0.4685055911540985,-0.0937167778611183,0.5206734538078308,0.5017915964126587,-0.0844454169273376,0.4044528007507324,0.4880746901035309,-0.1018396094441413,0.3415563404560089,0.4972739815711975,-0.1105707585811615,0.2960365414619446,0.5085150599479675,-0.1165998503565788
2023-08-01 16:05:56.977836,13,572,0.7315364480018616,0.0923110097646713,-0.0495780929923057,0.673702597618103,-0.47412109375,0.833984375,0.18115234375,0.5862409472465515,0.7071312069892883,-9.683069492893992e-07,0.4709369242191314,0.6239975690841675,0.0155017599463462,0.3995080590248108,0.5368637442588806,0.002547238022089,0.3345399796962738,0.4822314977645874,-0.0172725897282362,0.2806591093540191,0.4388498067855835,-0.0382367111742496,0.5397461652755737,0.3587747812271118,-0.0205811150372028,0.3978155255317688,0.3110988140106201,-0.0515553727746009,0.324700653553009,0.3593677282333374,-0.0725643634796142,0.2928352057933807,0.4116032421588897,-0.0858870446681976,0.5472042560577393,0.3807046413421631,-0.0454311296343803,0.3861870169639587,0.3265175521373749,-0.0750889629125595,0.3130863904953003,0.3810890913009643,-0.0899455919861793,0.2750823497772217,0.4414594173431396,-0.1009358465671539,0.5355198979377747,0.4308625161647796,-0.0692287385463714,0.3810754120349884,0.3798808157444,-0.0958856344223022,0.3087672591209411,0.4247800707817077,-0.105068601667881,0.2658783793449402,0.4710747897624969,-0.1119459271430969,0.5080464482307434,0.5021847486495972,-0.0909662619233131,0.391048789024353,0.4939183890819549,-0.1193998903036117,0.32313072681427,0.5051609873771667,-0.1342833936214447,0.272861123085022,0.5161906480789185,-0.1432743966579437
2023-08-01 16:05:57.030755,14,573,0.7323402166366577,0.086805559694767,-0.0467904135584831,0.6737605333328247,-0.44921875,0.859375,0.13818359375,0.5762522220611572,0.7149076461791992,-1.008790718515229e-06,0.464258998632431,0.6336785554885864,0.0260925870388746,0.3987047076225281,0.5563628077507019,0.0161913521587848,0.3343327045440674,0.5120582580566406,-0.0034253883641213,0.2796196341514587,0.4808627665042877,-0.025865614414215,0.5241752862930298,0.3668826818466186,-0.0083007011562585,0.3809348940849304,0.3224883079528808,-0.037162072956562,0.3091123104095459,0.3687249422073364,-0.0583802945911884,0.2746976613998413,0.4206878840923309,-0.0712117254734039,0.5277099013328552,0.3845832943916321,-0.0377659015357494,0.3643956780433655,0.3331713378429413,-0.0611862652003765,0.2938294410705566,0.3877493739128113,-0.0745085105299949,0.2563218772411346,0.4488156735897064,-0.0853144526481628,0.5151932239532471,0.4325278699398041,-0.0655506327748298,0.3591344952583313,0.3880967497825622,-0.0857049152255058,0.2897663116455078,0.4327535927295685,-0.0913190618157386,0.2480448335409164,0.4795262217521667,-0.0969675257802009,0.4863331615924835,0.5014817118644714,-0.0909005254507064,0.3697283267974853,0.4911395907402038,-0.1117895245552063,0.3073410987854004,0.5031513571739197,-0.1206521317362785,0.260481983423233,0.5150670409202576,-0.1261973232030868
2023-08-01 16:05:57.098936,15,574,0.7336509823799133,0.078486368060112,-0.0422136224806308,0.6736572980880737,-0.46240234375,0.82470703125,0.16748046875,0.5307384133338928,0.7146856784820557,-9.01826581412024e-07,0.4175314009189605,0.6289076805114746,0.0302047953009605,0.3444799184799194,0.5440989136695862,0.0240732450038194,0.27621591091156,0.5061736106872559,0.0085179973393678,0.2196653187274933,0.4884937107563019,-0.0103672845289111,0.4653410911560058,0.357812762260437,-0.0041675786487758,0.3212380409240722,0.3314721584320068,-0.0244622193276882,0.2500169575214386,0.3845799267292022,-0.0399244055151939,0.2113191932439804,0.4349453151226043,-0.0506188981235027,0.4673537015914917,0.3763077855110168,-0.0349549502134323,0.3065017163753509,0.335134893655777,-0.0502733923494815,0.2335070222616195,0.3895266056060791,-0.0601031742990016,0.1915229707956314,0.4455799460411072,-0.0704330503940582,0.4533421099185943,0.4274223446846008,-0.0630153119564056,0.2984670400619507,0.3850138485431671,-0.0782139003276825,0.2266630381345749,0.4306228458881378,-0.0840815082192421,0.1824160814285278,0.4735936522483825,-0.0913496911525726,0.4239577054977417,0.5023301243782043,-0.0878572314977645,0.3002476096153259,0.4935755729675293,-0.1081254035234451,0.238147348165512,0.511802077293396,-0.1162704527378082,0.1954645067453384,0.5289046764373779,-0.1214816123247146
2023-08-01 16:05:57.160565,16,575,0.7354416847229004,0.0733086913824081,-0.040249615907669,0.6724071502685547,-0.451171875,0.85693359375,0.20654296875,0.5138803720474243,0.7119170427322388,-1.0053399819298647e-06,0.4116687476634979,0.6210649013519287,0.0392572619020938,0.343121200799942,0.5400398373603821,0.0377015583217144,0.2768882513046264,0.4933202862739563,0.0258494056761264,0.2209232300519943,0.4723879098892212,0.0107592651620507,0.4590502977371216,0.3570977449417114,0.0006288812146522,0.3094643950462341,0.3337360024452209,-0.0123762376606464,0.2389827519655227,0.3842057287693023,-0.0211947541683912,0.2032534927129745,0.4311208724975586,-0.0279047042131423,0.4597080945968628,0.3710116744041443,-0.0312399864196777,0.2921993136405945,0.3341704905033111,-0.0399981252849102,0.2251095473766327,0.3897486329078674,-0.0448750965297222,0.1897413581609726,0.4478277564048767,-0.0526746734976768,0.4439546167850494,0.4194568991661072,-0.0586491301655769,0.2830474376678467,0.3807910084724426,-0.0672586783766746,0.2182530760765075,0.4303200542926788,-0.0688426941633224,0.1799024641513824,0.4775397181510925,-0.0749194025993347,0.4110507369041443,0.4941523969173431,-0.0820752009749412,0.2861764430999756,0.4941771626472473,-0.0971775576472282,0.2265640348196029,0.5126627683639526,-0.1033461838960647,0.1841609477996826,0.5271278619766235,-0.1084015071392059
2023-08-01 16:05:57.221894,17,576,0.7370122671127319,0.0682525783777237,-0.0393553562462329,0.6712717413902283,-0.4609375,0.876953125,0.16455078125,0.5077136158943176,0.7113029956817627,-9.713304507386056e-07,0.3980632126331329,0.6218547821044922,0.0335718505084514,0.3289053738117218,0.5424512624740601,0.0283910222351551,0.263718843460083,0.4959890842437744,0.0145251713693141,0.2108876705169677,0.473487913608551,-0.0024282862432301,0.4482443928718567,0.3568232953548431,-0.0088008623570203,0.2958247065544128,0.3359902501106262,-0.0236437562853097,0.2264687865972519,0.3909674882888794,-0.0333681292831897,0.1917259842157364,0.4421634674072265,-0.0407231710851192,0.4474506080150604,0.3724210858345032,-0.0385401882231235,0.2792626023292541,0.3332206010818481,-0.0505531504750251,0.2117595672607422,0.3899797797203064,-0.0570957288146019,0.1753643453121185,0.4502688646316528,-0.0655963718891143,0.4308957159519195,0.4219245314598083,-0.0636849924921989,0.2704600989818573,0.3853009939193725,-0.0740951225161552,0.2041280269622802,0.4328353106975555,-0.0776991248130798,0.1643915623426437,0.4778597354888916,-0.08499276638031,0.3977767527103424,0.497217983007431,-0.0851454883813858,0.2745954990386963,0.4963208734989166,-0.1004350632429122,0.214382141828537,0.5143094658851624,-0.1070509776473045,0.1712661385536193,0.5279560685157776,-0.1125834658741951
2023-08-01 16:05:57.282062,18,577,0.7377339005470276,0.0637548342347145,-0.0387431047856807,0.6709566712379456,-0.4814453125,0.85791015625,0.1455078125,0.4986963868141174,0.7129192352294922,-9.767786650627386e-07,0.3927682936191559,0.623815655708313,0.035917043685913,0.3242289423942566,0.5435483455657959,0.0311877559870481,0.2590898275375366,0.4941789805889129,0.0174184255301952,0.2058071196079254,0.4715287089347839,0.0004002258647233,0.4393289089202881,0.358702003955841,-0.0053605688735842,0.28864586353302,0.3373945355415344,-0.0217384863644838,0.2171959728002548,0.390024185180664,-0.0334850624203681,0.1808557361364364,0.4392451047897339,-0.041745476424694,0.4356857240200043,0.3738773763179779,-0.0358549952507019,0.2704295516014099,0.334852397441864,-0.0480901002883911,0.2015594840049743,0.3927728533744812,-0.0550452433526515,0.163286343216896,0.4519765377044678,-0.06368038803339,0.417318046092987,0.4219509661197662,-0.0618384033441543,0.2591224014759063,0.386624664068222,-0.0712503790855407,0.1924464404582977,0.4366909265518188,-0.074118323624134,0.1520417332649231,0.4812855422496795,-0.0811262801289558,0.3832514882087707,0.4958784282207489,-0.084038957953453,0.2611915469169616,0.4960323572158813,-0.0965972766280174,0.2027013301849365,0.5149908661842346,-0.1016723364591598,0.1606709361076355,0.5265474915504456,-0.1065758988261222
2023-08-01 16:05:57.347497,19,578,0.7378044128417969,0.0593482106924057,-0.0368796251714229,0.6713882088661194,-0.4892578125,0.83544921875,0.181640625,0.4697772860527038,0.7181081771850586,-9.929015050147427e-07,0.4278338253498077,0.5950981974601746,0.0613705851137638,0.3776623904705047,0.4968567192554474,0.0726998522877693,0.3164950013160705,0.435767650604248,0.0707112848758697,0.2568252384662628,0.4230831861495971,0.0625806003808975,0.4033566117286682,0.3711440563201904,0.012432056479156,0.2608411908149719,0.3407895565032959,0.0049043586477637,0.1929564327001571,0.3881176114082336,0.0037552218418568,0.1569274812936782,0.4301224946975708,0.0038469943683594,0.3934294283390045,0.3875990211963653,-0.0270392876118421,0.2354438751935959,0.3431435823440552,-0.026466192677617,0.1703391671180725,0.395178735256195,-0.0205174181610345,0.1350794583559036,0.4516871273517608,-0.0199630297720432,0.3729088306427002,0.4355896115303039,-0.059706687927246,0.2199602127075195,0.3902225494384765,-0.0562261715531349,0.1558509916067123,0.4378308057785034,-0.047969352453947,0.1184039562940597,0.4811643958091736,-0.048654768615961,0.3420940041542053,0.5089629292488098,-0.0867684110999107,0.2181218415498733,0.502181887626648,-0.0922572910785675,0.1648855358362198,0.5196433663368225,-0.0905478373169899,0.128076434135437,0.5307163000106812,-0.0900122597813606
2023-08-01 16:05:57.410669,20,579,0.7375128865242004,0.0553687177598476,-0.0386802181601524,0.6719471216201782,-0.44970703125,0.80517578125,0.24609375,0.4618438482284546,0.7193770408630371,-9.769509006218868e-07,0.4381819665431976,0.5799490213394165,0.0582696087658405,0.3912766575813293,0.4798224866390228,0.0658222660422325,0.3295166194438934,0.4177688956260681,0.0601073130965232,0.2678749859333038,0.4083267152309418,0.0488440319895744,0.3994237780570984,0.3662801384925842,0.0126388212665915,0.2538276314735412,0.3401786088943481,0.001441876287572,0.1829271018505096,0.387530505657196,-0.0028003365732729,0.146305501461029,0.427180528640747,-0.0043098079040646,0.3869875073432922,0.3859632909297943,-0.0257275942713022,0.2282491028308868,0.345959335565567,-0.0281991269439458,0.1637236475944519,0.3997086882591247,-0.0236448850482702,0.129244714975357,0.4541100859642029,-0.0238644517958164,0.3648325502872467,0.4356130063533783,-0.0580822043120861,0.2139223217964172,0.3896360695362091,-0.055774763226509,0.1532647907733917,0.4390810132026672,-0.0470147095620632,0.1188654899597168,0.483359694480896,-0.0470581389963626,0.335422158241272,0.5091814994812012,-0.0851842984557151,0.2121627926826477,0.5033464431762695,-0.089835949242115,0.1608045697212219,0.5169972777366638,-0.0878602415323257,0.1246572583913803,0.5236896276473999,-0.0872738510370254
2023-08-01 16:05:57.464430,21,580,0.7382821440696716,0.0545396655797958,-0.0381775572896003,0.6711985468864441,-0.49462890625,0.8408203125,0.20703125,0.4541609287261963,0.7143241167068481,-9.435164542992424e-07,0.4388887286186218,0.5817585587501526,0.0494484603404998,0.402905523777008,0.485404223203659,0.0546074137091636,0.3553279638290405,0.4207710325717926,0.048181228339672,0.3010588884353637,0.4042908251285553,0.036253947764635,0.3961829543113708,0.3625166118144989,0.0050742351450026,0.2514370679855346,0.3414224088191986,-0.0085211871191859,0.1808076798915863,0.3870493471622467,-0.0156840253621339,0.1419536024332046,0.4233487844467163,-0.0194732658565044,0.381986141204834,0.3825848698616028,-0.0289018806070089,0.2239141464233398,0.3468661308288574,-0.0345803089439868,0.1598285138607025,0.3993955850601196,-0.0329829417169094,0.1240196675062179,0.4518407881259918,-0.035253457725048,0.3586389720439911,0.4335854947566986,-0.0574951134622097,0.2115821540355682,0.3892594575881958,-0.0589868016541004,0.1500592082738876,0.4349016845226288,-0.0535416007041931,0.112443134188652,0.4773144721984863,-0.0552968718111515,0.3287835419178009,0.5083069205284119,-0.0814660489559173,0.2097561955451965,0.5030679106712341,-0.0900450348854065,0.1582292467355728,0.5134930610656738,-0.0908101573586463,0.1197879165410995,0.5181894898414612,-0.0917702093720436
2023-08-01 16:05:57.529630,22,581,0.7389479279518127,0.0545988753437995,-0.0367666073143482,0.6705394387245178,-0.52099609375,0.849609375,0.1533203125,0.4395548701286316,0.7209264039993286,-1.02446563232661e-06,0.399154931306839,0.6049505472183228,0.0598459728062152,0.3472373783588409,0.5102503299713135,0.0714186206459999,0.2877680957317352,0.4455405473709106,0.070684477686882,0.2297082245349884,0.4357280731201172,0.0645192712545394,0.3711980581283569,0.3762177228927612,0.0123469168320298,0.2300908267498016,0.344939649105072,0.0040935603901743,0.1626884788274765,0.3965588510036468,0.0018243871163576,0.1285946369171142,0.4419618248939514,0.0009849229827523,0.3613445162773132,0.3884499967098236,-0.0254899691790342,0.2016454339027404,0.3444549441337585,-0.0280674267560243,0.1407660841941833,0.4029696881771087,-0.0231412947177886,0.1110778748989105,0.4661511778831482,-0.0220423024147748,0.3404752314090729,0.4352306425571441,-0.0567332841455936,0.1876409649848938,0.3883429765701294,-0.054545521736145,0.1258637458086013,0.4397118389606476,-0.0466757677495479,0.0901650041341781,0.4866792559623718,-0.0467034168541431,0.3103953599929809,0.5081333518028259,-0.0825335308909416,0.1913307905197143,0.4986939430236816,-0.0893922299146652,0.1377648562192917,0.514825165271759,-0.089877925813198,0.0989697277545929,0.5241286158561707,-0.0904378071427345
2023-08-01 16:05:57.587689,23,582,0.7385872006416321,0.0537813827395439,-0.03649727627635,0.671017587184906,-0.47998046875,0.85205078125,0.1767578125,0.4365708231925964,0.7173740863800049,-1.031108354254684e-06,0.4128649532794952,0.5845617651939392,0.0634844005107879,0.3675629496574402,0.4857913553714752,0.0767489969730377,0.3124126195907593,0.4232976138591766,0.0760298892855644,0.2566008567810058,0.4134068489074707,0.0695275068283081,0.3712531328201294,0.3706580698490143,0.0210625156760215,0.2291459739208221,0.3385146260261535,0.0136217884719371,0.1635847985744476,0.3874218165874481,0.0114283524453639,0.132560133934021,0.4306839108467102,0.0109959030523896,0.3584590256214142,0.3903875350952148,-0.0174428634345531,0.1990254819393158,0.3484864830970764,-0.0174860712140798,0.1359331160783767,0.4040519595146179,-0.0123005053028464,0.1058753877878189,0.4625491797924042,-0.0122938910499215,0.3366430699825287,0.439944177865982,-0.0499057620763778,0.1854160130023956,0.3919838666915893,-0.0461612828075885,0.1237900108098983,0.4398729503154754,-0.0394340828061103,0.0904190689325332,0.485900729894638,-0.0412081554532051,0.3073236346244812,0.511768102645874,-0.0766097605228424,0.1858325004577636,0.5037341713905334,-0.0813428685069084,0.1352611929178238,0.5171436071395874,-0.0818812698125839,0.1004199683666229,0.5257152915000916,-0.0836436077952385
2023-08-01 16:05:57.650761,24,583,0.7377798557281494,0.0522806607186794,-0.0364826470613479,0.672024130821228,-0.4658203125,0.84228515625,0.15771484375,0.4355505406856537,0.7162876129150391,-1.0492210549273295e-06,0.4026939272880554,0.5901116728782654,0.0623716711997985,0.3537317216396332,0.4924581348896026,0.0728718861937522,0.2981909215450287,0.4290143549442291,0.0702056586742401,0.2421856522560119,0.4185611307621002,0.062048677355051,0.373262494802475,0.3726576864719391,0.0117508666589856,0.2282799780368805,0.3387847542762756,0.001993165584281,0.1607816964387893,0.3898569047451019,-4.975951014785096e-05,0.1297448873519897,0.4354266226291656,0.0003475954872556,0.3621532618999481,0.3909464478492737,-0.0262811053544282,0.1995653510093689,0.3469806313514709,-0.0271277893334627,0.1354244500398636,0.4048585295677185,-0.0191880892962217,0.106007307767868,0.4646812379360199,-0.016852494329214,0.3404149413108825,0.4397694170475006,-0.0579466819763183,0.1859678328037262,0.3919627964496612,-0.0533937104046344,0.1238913834095001,0.441240131855011,-0.0433765798807144,0.0912014096975326,0.4874968826770782,-0.0429662652313709,0.3098334968090057,0.5110604166984558,-0.0839533507823944,0.1869691163301468,0.5044938921928406,-0.0871466845273971,0.1346707344055175,0.5185967683792114,-0.0859481915831565,0.0986691266298294,0.5259601473808289,-0.0864562466740608
2023-08-01 16:05:57.711522,25,584,0.7373834252357483,0.0512175224721431,-0.0368249267339706,0.6725223660469055,-0.47705078125,0.85302734375,0.18017578125,0.4354723393917084,0.7159814834594727,-1.0442195161886048e-06,0.4062045812606811,0.5867411494255066,0.0618662610650062,0.3597308695316314,0.4866440296173095,0.0725304409861564,0.3056751787662506,0.4228177666664123,0.06964623183012,0.2496739625930786,0.4110370874404907,0.0610170029103755,0.3721959590911865,0.3704456984996795,0.0143972970545291,0.2269747853279113,0.3393116891384125,0.0040010944940149,0.1599769443273544,0.3905077576637268,0.0002316037425771,0.1289969086647033,0.4367135465145111,-0.000536015315447,0.3608106970787048,0.3901965618133545,-0.0239789839833974,0.1989477276802063,0.3486503362655639,-0.0255161523818969,0.1352060884237289,0.4063149690628052,-0.0196898244321346,0.1059163957834243,0.4672596752643585,-0.0189611297100782,0.3390871286392212,0.4400927722454071,-0.056303683668375,0.185168445110321,0.3924145102500915,-0.052373468875885,0.1232278943061828,0.4416007399559021,-0.0439572669565677,0.0910071432590484,0.4885199964046478,-0.0446959286928176,0.308775931596756,0.5120428204536438,-0.0830759182572364,0.1856830418109893,0.5035039186477661,-0.0869171842932701,0.1346691101789474,0.5171923637390137,-0.0863317400217056,0.1003061980009079,0.5251814723014832,-0.0873690471053123
2023-08-01 16:05:57.773397,26,585,0.736947238445282,0.0519047603011131,-0.0372872501611709,0.6729222536087036,-0.49072265625,0.84375,0.23291015625,0.4328805804252624,0.7144858241081238,-1.0405511829958414e-06,0.4040240049362182,0.584846019744873,0.0600430592894554,0.3573210537433624,0.4866690933704376,0.0695207938551902,0.3031946122646332,0.4219227433204651,0.0660460740327835,0.2480455487966537,0.4080286622047424,0.0570628903806209,0.3721133470535278,0.3695238828659057,0.0090922936797142,0.2266538441181183,0.3388805389404297,-0.0022551307920366,0.1578038334846496,0.3888410031795501,-0.0056192986667156,0.1245950311422348,0.4334245026111603,-0.0059593589976429,0.3619027733802795,0.3890040516853332,-0.0286113638430833,0.2004948556423187,0.3476828336715698,-0.0310690011829137,0.1358279734849929,0.4037781655788421,-0.024132115766406,0.1042500734329223,0.4640129506587982,-0.0223385971039533,0.3406068682670593,0.4386224448680877,-0.0601615868508815,0.1885609328746795,0.3939189910888672,-0.0564046390354633,0.1260260045528412,0.4414185881614685,-0.0466950833797454,0.0916048735380172,0.4873495995998382,-0.0463665276765823,0.3106333315372467,0.510363757610321,-0.086388312280178,0.1892043948173523,0.503322958946228,-0.090169608592987,0.1362283825874328,0.5156083106994629,-0.0891871377825737,0.0986010134220123,0.5226697325706482,-0.0896678641438484
2023-08-01 16:05:57.833524,27,586,0.7358330488204956,0.0541734434664249,-0.0382998920977115,0.6739051342010498,-0.478515625,0.8349609375,0.21630859375,0.4304215908050537,0.712486207485199,-1.025452206704358e-06,0.4110053777694702,0.5776501297950745,0.0633947551250457,0.3637564778327942,0.4773804843425751,0.0765763074159622,0.3066469728946686,0.4154687523841858,0.075604148209095,0.2474503964185714,0.408201515674591,0.0685054361820221,0.3646312654018402,0.3686572611331939,0.0182011686265468,0.2233024835586547,0.3377379179000854,0.0080032031983137,0.1573456078767776,0.3875520229339599,0.0049673947505652,0.1261277943849563,0.4318302273750305,0.0044199330732226,0.3520005345344543,0.3889967203140259,-0.0215426459908485,0.1938990354537964,0.3466392457485199,-0.0253480188548564,0.1334304809570312,0.402847409248352,-0.0197689272463321,0.1055694669485092,0.4636260867118835,-0.0181689690798521,0.32948899269104,0.4396595954895019,-0.0553704760968685,0.1790204048156738,0.3931573331356048,-0.0550985410809516,0.1179371178150177,0.4417985677719116,-0.0475155003368854,0.0845675319433212,0.4880137741565704,-0.0472780279815197,0.3004913926124573,0.5110693573951721,-0.0833822861313819,0.1794360429048538,0.5002054572105408,-0.0908474624156951,0.1272492706775665,0.5134251117706299,-0.0918630212545394,0.0905469357967376,0.5215337872505188,-0.093072235584259
2023-08-01 16:05:57.887646,28,587,0.7343937158584595,0.0589987970888614,-0.0406931526958942,0.6749289631843567,-0.486328125,0.84375,0.2294921875,0.4333022236824035,0.711898922920227,-1.0341657343815314e-06,0.4013779759407043,0.5843070149421692,0.0631035789847374,0.351299911737442,0.4876571297645569,0.0753648057579994,0.2940638065338135,0.4255655407905578,0.0738584175705909,0.2372216284275055,0.4163172841072082,0.0669647008180618,0.3670392036437988,0.3690775632858276,0.0178283378481864,0.2244225144386291,0.3361751437187195,0.0098666455596685,0.1572626680135727,0.3851943910121918,0.0079650990664958,0.1250288784503936,0.429564893245697,0.0081312581896781,0.3548213541507721,0.3863618969917297,-0.0204133931547403,0.195623442530632,0.3440836071968078,-0.0194687005132436,0.131897360086441,0.3997505009174347,-0.0122548593208193,0.1011953502893447,0.4584941864013672,-0.0107521237805485,0.3333132565021515,0.4343578219413757,-0.0525766313076019,0.182993859052658,0.387017160654068,-0.0469326041638851,0.1221301853656768,0.4357152283191681,-0.0375444926321506,0.0887744277715683,0.4816875159740448,-0.0376550145447254,0.3034782111644745,0.5058082938194275,-0.0792053118348121,0.1839701682329177,0.4979619085788727,-0.0820200741291046,0.1313136219978332,0.5112842917442322,-0.0810701549053192,0.0936921387910842,0.5193846821784973,-0.0817494615912437
2023-08-01 16:05:57.959054,29,588,0.7323688864707947,0.0666914656758308,-0.0452509559690952,0.6761215329170227,-0.478515625,0.83837890625,0.26904296875,0.4316105544567108,0.7136906981468201,-1.0521152944420464e-06,0.40179044008255,0.5819605588912964,0.0645288974046707,0.3519825935363769,0.4834475517272949,0.0770884230732917,0.2954663634300232,0.4211241006851196,0.0755710452795028,0.2384195178747177,0.4128996133804321,0.0683673918247222,0.3651010692119598,0.3670799434185028,0.0177554842084646,0.2217829227447509,0.3357580304145813,0.009299729950726,0.1548474282026291,0.3865329623222351,0.0073319771327078,0.1234166324138641,0.4322291314601898,0.0075110015459358,0.3535382151603699,0.3854895830154419,-0.0217785667628049,0.1939983665943145,0.3447167575359344,-0.0218714661896228,0.130999282002449,0.4015669226646423,-0.0147503186017274,0.1012687981128692,0.462319016456604,-0.0130798900499939,0.3323554694652557,0.4349393248558044,-0.0551073104143142,0.1814486682415008,0.3886262476444244,-0.0502920150756835,0.1208763271570205,0.4379891455173492,-0.0409174263477325,0.0882536619901657,0.4849490225315094,-0.0408875606954097,0.3034788072109222,0.5071160793304443,-0.0827442556619644,0.1828305125236511,0.4982804358005523,-0.0868017077445983,0.1303288638591766,0.5115408301353455,-0.0863251164555549,0.0933218449354171,0.5200875401496887,-0.0871611610054969
2023-08-01 16:05:58.020713,30,589,0.730523943901062,0.075065903365612,-0.0488670840859413,0.6769874095916748,-0.43798828125,0.84326171875,0.2109375,0.4659005403518677,0.7050100564956665,-1.025573169499694e-06,0.4420062303543091,0.587877094745636,0.0608205012977123,0.4077082574367523,0.4974288046360016,0.071317508816719,0.3699087798595428,0.4338633120059967,0.0677379593253135,0.3291581869125366,0.4158196449279785,0.0586636699736118,0.3983611464500427,0.357231855392456,0.0182495508342981,0.2562066912651062,0.3264639675617218,0.0074326759204268,0.190898522734642,0.3775814473628998,0.0004105085390619,0.1583312451839447,0.4213272631168365,-0.0033085255417972,0.3818190693855285,0.3740519881248474,-0.0200861021876335,0.2242268323898315,0.3301017880439758,-0.0206242967396974,0.1621734946966171,0.3867074251174927,-0.0163711290806531,0.1337418854236602,0.4434735476970672,-0.0170875154435634,0.3576302528381347,0.4237756729125976,-0.0527801848948001,0.2053262293338775,0.3792152404785156,-0.0491059496998786,0.1466565132141113,0.4294804334640503,-0.0414761304855346,0.1156477779150009,0.4748925864696502,-0.0425098724663257,0.3263778984546661,0.4996695220470428,-0.0802814364433288,0.2034112811088562,0.493781566619873,-0.0831525549292564,0.1527438312768936,0.5124262571334839,-0.0806949436664581,0.1184712946414947,0.5241960287094116,-0.0802640691399574
2023-08-01 16:05:58.089204,31,590,0.7288559079170227,0.085599161684513,-0.0504267811775207,0.6774208545684814,-0.4833984375,0.84765625,0.16455078125,0.4644356369972229,0.6973733305931091,-9.83878976512642e-07,0.4350535869598388,0.5831074714660645,0.0610688291490078,0.4005344808101654,0.4949179291725158,0.0707987323403358,0.367370456457138,0.4303261935710907,0.065904401242733,0.3318754434585571,0.4073699712753296,0.0550424046814441,0.4039360284805298,0.3529075086116791,0.0200875271111726,0.2622982263565063,0.331458032131195,0.010790454223752,0.1968173086643219,0.3795763850212097,0.0031524468213319,0.1633561849594116,0.4194729626178741,-0.0016024600481614,0.3908987641334533,0.3694078922271728,-0.0177143663167953,0.2367613464593887,0.3313088715076446,-0.0167147051542997,0.1741508096456527,0.3834145665168762,-0.015145244076848,0.1425686031579971,0.4355544149875641,-0.0192837659269571,0.36894091963768,0.4187882542610168,-0.0495972223579883,0.2221487462520599,0.3737524747848511,-0.0449300147593021,0.1619668751955032,0.4210971593856811,-0.0406740643084049,0.1288215070962906,0.4656818807125091,-0.045156467705965,0.3377552032470703,0.49256631731987,-0.0761394873261451,0.2191651612520218,0.4904079139232635,-0.0769696459174156,0.1685609668493271,0.5068897604942322,-0.075569100677967,0.1334250420331955,0.5183525085449219,-0.0771699324250221
2023-08-01 16:05:58.144112,32,591,0.7275041341781616,0.0944041535258293,-0.0538035556674003,0.6774442791938782,-0.42919921875,0.84423828125,0.2041015625,0.4740422070026397,0.6867426633834839,-9.730289320941663e-07,0.394757866859436,0.5954806208610535,0.0401182882487773,0.3329643309116363,0.5156721472740173,0.0389861725270748,0.269937515258789,0.4645096659660339,0.0284428559243679,0.2151267528533935,0.4494155049324035,0.0143873132765293,0.4135662913322449,0.3470397889614105,-0.001585129648447,0.2668825089931488,0.3316778540611267,-0.0163581855595111,0.1973237693309784,0.3828239142894745,-0.0271781533956527,0.1628145277500152,0.4287305474281311,-0.0341878570616245,0.4077654480934143,0.3602987825870514,-0.031358640640974,0.2479082942008972,0.3265124559402466,-0.0379203408956527,0.1835889518260955,0.3829481601715088,-0.0403579287230968,0.151064932346344,0.4391578137874603,-0.0464872568845748,0.3891873955726623,0.4071532189846039,-0.0563592091202735,0.2360616028308868,0.3680532574653625,-0.0598491095006465,0.1751319169998169,0.4200886189937591,-0.0574181899428367,0.1410989463329315,0.4660434126853943,-0.0617651082575321,0.3569062352180481,0.4821380078792572,-0.0774700567126274,0.2373035848140716,0.484403520822525,-0.0858137980103492,0.1835631728172302,0.5044580698013306,-0.0873613059520721,0.1456175297498703,0.5158383250236511,-0.08995371311903
2023-08-01 16:05:58.215870,33,592,0.726325511932373,0.1089222133159637,-0.0591660514473915,0.6760817170143127,-0.3857421875,0.88232421875,0.18310546875,0.4878904223442077,0.6845411062240601,-9.939830079019885e-07,0.4014663100242615,0.5968353152275085,0.0396021269261837,0.3393363356590271,0.5176528096199036,0.0383820980787277,0.2807958126068115,0.4645566940307617,0.0277495328336954,0.2298664301633834,0.4415159225463867,0.0135038932785391,0.4323647022247314,0.3417337536811828,-0.0033929341007024,0.2820729315280914,0.325046569108963,-0.0192563533782959,0.2124203592538833,0.3776986300945282,-0.0307849235832691,0.1798836588859558,0.4256934225559234,-0.0386297553777694,0.4269868731498718,0.3571617305278778,-0.0338133051991462,0.2629793882369995,0.3231673836708069,-0.0417492054402828,0.1983405500650406,0.3813302516937256,-0.0445303656160831,0.1674110889434814,0.4386716783046722,-0.0508633628487587,0.4074133634567261,0.4066606760025024,-0.0597072429955005,0.2502568662166595,0.3679552674293518,-0.0663593560457229,0.186544194817543,0.4203679263591766,-0.0655708909034729,0.1515727341175079,0.4666996896266937,-0.0705366432666778,0.3733772337436676,0.4833860099315643,-0.0815753042697906,0.2511039078235626,0.4854672253131866,-0.0943507552146911,0.1953537315130233,0.505922794342041,-0.0984554812312126,0.156587153673172,0.5184925198554993,-0.1022874936461448
2023-08-01 16:05:58.276191,34,593,0.7266833186149597,0.1198642030358314,-0.0591035410761833,0.6738476157188416,-0.50830078125,0.8798828125,0.1357421875,0.55549556016922,0.6873235702514648,-1.0741824780780007e-06,0.4426979124546051,0.6127451658248901,0.0209370888769626,0.3705057203769684,0.5364788770675659,0.0098372595384716,0.3066439032554626,0.490246057510376,-0.0090778404846787,0.2574079930782318,0.4569095075130462,-0.0293374750763177,0.4978665709495544,0.3469425439834595,-0.0131995249539613,0.362482875585556,0.3128365278244018,-0.0425329357385635,0.293895959854126,0.3607989251613617,-0.0639644190669059,0.2598063051700592,0.4112687408924103,-0.078110821545124,0.5043419599533081,0.362729012966156,-0.040471114218235,0.3466702103614807,0.318385362625122,-0.0658784657716751,0.2786817848682403,0.3766945898532867,-0.0787857919931411,0.2432381361722946,0.4350644946098327,-0.0893943905830383,0.4947136044502258,0.409116119146347,-0.0664755403995513,0.3443749845027923,0.3613334596157074,-0.0900790020823478,0.2770231366157532,0.4077093303203583,-0.0948584228754043,0.2367722690105438,0.4542143046855926,-0.099323034286499,0.4714313149452209,0.4800128042697906,-0.0902313962578773,0.3591804504394531,0.4722925722599029,-0.1152470558881759,0.2962180376052856,0.4857144653797149,-0.1250317692756652,0.2490500211715698,0.4976343810558319,-0.1308474093675613
2023-08-01 16:05:58.336153,35,594,0.7262990474700928,0.1289953142404556,-0.0606502443552017,0.6724370121955872,-0.4609375,0.8720703125,0.125,0.5743974447250366,0.6889785528182983,-1.0232611202809494e-06,0.4650248885154724,0.6110568642616272,0.0266428217291831,0.3954757750034332,0.5324680209159851,0.0192487053573131,0.3334250748157501,0.4857329130172729,0.0027891050558537,0.2818104326725006,0.4520605802536011,-0.015857808291912,0.5194701552391052,0.3541825711727142,-0.010633117519319,0.3822080492973327,0.3162552714347839,-0.0387366898357868,0.312931090593338,0.3618740737438202,-0.0576128177344799,0.2819577157497406,0.4111067354679107,-0.0695814713835716,0.5255060195922852,0.3731786906719208,-0.0403268411755561,0.3663463592529297,0.3224206566810608,-0.0651542618870735,0.297968327999115,0.3752870559692383,-0.0748878270387649,0.2652684450149536,0.4338876008987427,-0.0825940370559692,0.5155455470085144,0.4224011898040771,-0.068484142422676,0.3629361391067505,0.3773126900196075,-0.0925596803426742,0.295728862285614,0.4180385172367096,-0.0964320674538612,0.2572827935218811,0.4588483273983001,-0.0999810993671417,0.4925885796546936,0.4919955432415008,-0.0938817858695983,0.3814609050750732,0.4759037792682647,-0.12196034938097,0.3176476955413818,0.4862068593502044,-0.1335143893957138,0.2706189453601837,0.4958401322364807,-0.1400534808635711
2023-08-01 16:05:58.396250,36,595,0.7252066135406494,0.1376277655363083,-0.0640847831964492,0.6715855598449707,-0.43603515625,0.8681640625,0.1318359375,0.5941480994224548,0.6908214092254639,-9.87313228506537e-07,0.484462022781372,0.61864173412323,0.0254503339529037,0.4166015386581421,0.5372499227523804,0.0172936413437128,0.3545663356781006,0.4909911751747131,3.913205364369787e-05,0.3009905219078064,0.4602010548114776,-0.0196142587810754,0.5386459231376648,0.3560585379600525,-0.0099490834400057,0.4033112525939941,0.3140234649181366,-0.0385391637682914,0.3322715759277344,0.3537923395633697,-0.0584062673151493,0.2979375720024109,0.3993619382381439,-0.0708043053746223,0.5460119843482971,0.3760350942611694,-0.0394201129674911,0.3893652558326721,0.3253170251846313,-0.0634802654385566,0.3181794881820678,0.3728266954421997,-0.0742679387331008,0.2803437709808349,0.4274027347564697,-0.0830649957060813,0.5370993614196777,0.4250844120979309,-0.0676101520657539,0.3858934640884399,0.3812593817710876,-0.0906282290816307,0.3162296116352081,0.419323205947876,-0.0948826596140861,0.2739689350128174,0.4569698870182037,-0.0989779159426689,0.513713002204895,0.4936554431915283,-0.0932600945234298,0.4025409817695617,0.4772138297557831,-0.1181579604744911,0.339131236076355,0.4869686663150787,-0.1278863996267318,0.2912707030773163,0.4951494038105011,-0.133670762181282
2023-08-01 16:05:58.475701,37,596,0.7242756485939026,0.144298568367958,-0.0706379488110542,0.6705318689346313,-0.458984375,0.8564453125,0.19140625,0.6415610313415527,0.7004821300506592,-9.744795761434943e-07,0.5270256996154785,0.6197198629379272,0.0182312559336423,0.4559904336929321,0.5309008359909058,0.0057225539349019,0.3961243033409118,0.4719441831111908,-0.0148496767506003,0.3467057347297668,0.4280139505863189,-0.0375021882355213,0.5769842863082886,0.3528362810611725,-0.0187449771910905,0.4429912567138672,0.3021230101585388,-0.0562072172760963,0.3666961789131164,0.3221698403358459,-0.0827127769589424,0.3210398554801941,0.3588244020938873,-0.0989037305116653,0.5934979915618896,0.3704061806201935,-0.0491972230374813,0.436200350522995,0.3144862949848175,-0.0802419409155845,0.3623126149177551,0.3584453761577606,-0.0968826487660408,0.3206180036067962,0.4066402018070221,-0.1099167615175247,0.5932134389877319,0.4188985824584961,-0.0791665390133857,0.4434264004230499,0.3684006333351135,-0.1091626584529876,0.3717691898345947,0.4175228178501129,-0.1168631538748741,0.328525185585022,0.4636467099189758,-0.1225354596972465,0.5763376951217651,0.4915373623371124,-0.1071479022502899,0.459363728761673,0.4873061180114746,-0.1368281841278076,0.394960343837738,0.5047578811645508,-0.148320272564888,0.3479745984077453,0.5185742974281311,-0.1548300385475158
2023-08-01 16:05:58.553278,38,597,0.7231804728507996,0.1532077640295028,-0.0744357630610466,0.6693255305290222,-0.46826171875,0.86865234375,0.171875,0.6607067584991455,0.7068519592285156,-9.638076789997283e-07,0.549261212348938,0.6208745241165161,0.0180264003574848,0.4812358617782593,0.5330519676208496,0.0052688024006783,0.421699970960617,0.4761431515216827,-0.0156678725033998,0.3712872564792633,0.4334604144096374,-0.0388415157794952,0.602349042892456,0.3546217083930969,-0.0156661309301853,0.4645208716392517,0.3094129562377929,-0.0531601272523403,0.3866910636425018,0.3242648839950561,-0.0808110907673835,0.3382763266563415,0.3514251708984375,-0.0977278053760528,0.6156942248344421,0.3752254545688629,-0.0442118272185325,0.4577050805091858,0.3240595459938049,-0.0763079524040222,0.3836619555950165,0.3696301579475403,-0.0949491560459137,0.3404347002506256,0.4176307320594787,-0.1092200726270675,0.6127194166183472,0.425268143415451,-0.0721782892942428,0.4647870063781738,0.375552237033844,-0.1021543368697166,0.3926377296447754,0.4235047698020935,-0.1118348091840744,0.3475668728351593,0.4690644145011902,-0.1186215132474899,0.5935771465301514,0.4969172179698944,-0.098179392516613,0.4817197918891907,0.4856985807418823,-0.1266886442899704,0.4177399277687073,0.4958746135234833,-0.1400115489959716,0.3693538606166839,0.5032447576522827,-0.1480706334114074
2023-08-01 16:05:58.625185,39,598,0.7215331196784973,0.1621030569076538,-0.07728311419487,0.6686851978302002,-0.4423828125,0.853515625,0.119140625,0.718569278717041,0.714413583278656,-1.138199877459556e-06,0.5995156764984131,0.6179174780845642,0.0178525242954492,0.5278429985046387,0.5372705459594727,0.0033977711573243,0.4662583172321319,0.4902794063091278,-0.0205395314842462,0.4182665944099426,0.4474640488624573,-0.04637311398983,0.6569762825965881,0.3561234772205353,-0.0101696960628032,0.5173248052597046,0.3276922106742859,-0.0501319952309131,0.4461009502410888,0.372429758310318,-0.0809247866272926,0.409017264842987,0.419161707162857,-0.100955918431282,0.6761674880981445,0.3734350204467773,-0.0419869720935821,0.5140554904937744,0.3329214453697204,-0.0805275589227676,0.444104790687561,0.3967385292053222,-0.1031052023172378,0.4070550203323364,0.4567281007766723,-0.1188545301556587,0.6783370971679688,0.4231570363044739,-0.0742812529206276,0.5286150574684143,0.3776849210262298,-0.1105026751756668,0.4558869302272796,0.4305507242679596,-0.1219547837972641,0.4104559421539306,0.4797686040401459,-0.1286049932241439,0.6657836437225342,0.4967018961906433,-0.104617603123188,0.55010586977005,0.4943045079708099,-0.1384185254573822,0.4821332097053528,0.5080633163452148,-0.1532807499170303,0.4290609061717987,0.5164954662322998,-0.1617380827665329
2023-08-01 16:05:58.696887,40,599,0.7204437255859375,0.1696911454200744,-0.0770049691200256,0.6680089831352234,-0.43994140625,0.86083984375,0.12255859375,0.7322393655776978,0.7089046239852905,-1.0766480045276694e-06,0.6193392872810364,0.6159472465515137,0.0248955655843019,0.5476076006889343,0.5332807898521423,0.0156414899975061,0.4878182113170624,0.4833134114742279,-0.0037037685979157,0.4398893713951111,0.4410258531570434,-0.025561423972249,0.6721552014350891,0.3549355864524841,-0.0061954562552273,0.539569616317749,0.3318393230438232,-0.0390588194131851,0.4713373780250549,0.3781039118766784,-0.064529925584793,0.4359000921249389,0.4232211709022522,-0.0816569104790687,0.6886943578720093,0.3729681372642517,-0.0389566682279109,0.5342878699302673,0.3370063602924347,-0.0703289285302162,0.4651069045066833,0.3945672214031219,-0.0898085907101631,0.4263479709625244,0.4520523250102997,-0.1043958887457847,0.6889737844467163,0.4231362342834472,-0.0708235949277877,0.5411627888679504,0.3869258761405945,-0.099782682955265,0.4714540541172027,0.4338256120681762,-0.1105219647288322,0.4271810948848724,0.4784271121025085,-0.1184915378689765,0.6746822595596313,0.496261864900589,-0.1000917926430702,0.5561968088150024,0.4921064972877502,-0.1288590133190155,0.4905315339565277,0.5056909918785095,-0.1424650400876999,0.4405719041824341,0.5149351954460144,-0.1509768217802047
2023-08-01 16:05:58.751589,41,600,0.7198646664619446,0.1757406145334243,-0.0781773254275322,0.6669321060180664,-0.3994140625,0.8720703125,0.12646484375,0.7385035753250122,0.7048013806343079,-1.027775965667388e-06,0.6315701007843018,0.6140698194503784,0.0219696070998907,0.5615310072898865,0.5335081219673157,0.0122423199936747,0.5037838220596313,0.4852272570133209,-0.0066888681612908,0.4594840109348297,0.4450625479221344,-0.0272631421685218,0.6858741641044617,0.3576887249946594,-0.0064438348636031,0.559170126914978,0.3330968618392944,-0.0385371856391429,0.4920925498008728,0.3780579268932342,-0.0634128749370575,0.4555333852767944,0.4216500520706177,-0.0797798484563827,0.7019892930984497,0.3739196956157684,-0.0371521413326263,0.5519344806671143,0.3374601006507873,-0.06642447412014,0.4829124510288238,0.3896261155605316,-0.0841196775436401,0.4420747756958008,0.4443484246730804,-0.0971029922366142,0.7023431658744812,0.4218207001686096,-0.0673154070973396,0.5568130016326904,0.3893836736679077,-0.0944233536720275,0.4866381287574768,0.429682195186615,-0.1032870635390281,0.4397278726100921,0.4693799018859863,-0.1097159683704376,0.6876401305198669,0.4931318461894989,-0.0952981561422348,0.5706592202186584,0.4915995597839355,-0.1223388388752937,0.5055495500564575,0.504883348941803,-0.1337543278932571,0.4546722769737243,0.5151341557502747,-0.1402081698179245
2023-08-01 16:05:58.819052,42,601,0.719896674156189,0.1814147233963012,-0.0782603099942207,0.6653665900230408,-0.4609375,0.8798828125,0.13623046875,0.7751024961471558,0.7088847160339355,-1.0321751915398636e-06,0.6715375185012817,0.6181231141090393,0.0079798521474003,0.5988379716873169,0.5396432876586914,-0.0096244122833013,0.5374909043312073,0.4957872629165649,-0.0342823565006256,0.491955041885376,0.4579552710056305,-0.0599217303097248,0.7307477593421936,0.3602268993854522,-0.0133012495934963,0.6089616417884827,0.3344125151634216,-0.0558335408568382,0.5359362959861755,0.3708467781543731,-0.0916552394628524,0.4888302087783813,0.4132228195667267,-0.1145248785614967,0.7536138296127319,0.3741131424903869,-0.0403671339154243,0.6089975237846375,0.3331366181373596,-0.0808689892292022,0.5335828065872192,0.3841108679771423,-0.1100304424762725,0.485689103603363,0.4391234517097473,-0.1290059983730316,0.7595937252044678,0.4191058874130249,-0.0683077573776245,0.6211113333702087,0.3805188536643982,-0.1041134223341941,0.5445042252540588,0.4220081567764282,-0.119497463107109,0.4926841259002685,0.4651116132736206,-0.1275516152381897,0.7482685446739197,0.4891963601112366,-0.0950942635536193,0.6335749626159668,0.4857238233089447,-0.1255718618631363,0.5687496662139893,0.4968876540660858,-0.1379754841327667,0.5194718837738037,0.5057554841041565,-0.1437000483274459
2023-08-01 16:05:58.876537,43,602,0.7198079824447632,0.1849039047956466,-0.0777616947889328,0.6645599603652954,-0.466796875,0.87451171875,0.14599609375,0.784946084022522,0.7093415260314941,-9.5875543593138e-07,0.680534303188324,0.620191216468811,0.0026424187235534,0.6056562662124634,0.5421071648597717,-0.0198246166110038,0.5462718605995178,0.4983393251895904,-0.0484326928853988,0.5077199935913086,0.4638566672801971,-0.0776750743389129,0.7461324334144592,0.3602942228317261,-0.0205070674419403,0.6208184957504272,0.3293622732162475,-0.0680647045373916,0.5437975525856018,0.3610439598560333,-0.1072685420513153,0.4909311532974243,0.4026660919189453,-0.1314806193113327,0.7653478980064392,0.3780296444892883,-0.0463357120752334,0.6145126819610596,0.3266136050224304,-0.092039093375206,0.5384705662727356,0.3802719116210937,-0.1236937493085861,0.4910535216331482,0.4366409480571747,-0.1431226283311844,0.7694621682167053,0.4238083064556122,-0.0732960551977157,0.6311081647872925,0.3798504471778869,-0.112202875316143,0.555057168006897,0.4246541857719421,-0.1291775405406952,0.5038219690322876,0.4700427651405334,-0.1370814442634582,0.7566566467285156,0.4926245510578155,-0.0995240807533264,0.6434175372123718,0.4830825626850128,-0.1310974359512329,0.5789972543716431,0.4960319697856903,-0.1439918726682663,0.5303018689155579,0.508101224899292,-0.1495059579610824
2023-08-01 16:05:58.941822,44,603,0.7189787030220032,0.1897464245557785,-0.0788108184933662,0.6639689803123474,-0.435546875,0.869140625,0.171875,0.7907432913780212,0.7095937728881836,-9.572584076522617e-07,0.687993586063385,0.6212844848632812,0.0017903929110616,0.6126052141189575,0.5447579026222229,-0.0196709986776113,0.5523004531860352,0.5022576451301575,-0.0473049245774745,0.5141775608062744,0.4627004563808441,-0.0753196477890014,0.7464627623558044,0.3625988960266113,-0.0175443943589925,0.6273276805877686,0.3286925554275512,-0.0654726773500442,0.5520601272583008,0.3574775457382202,-0.1053775995969772,0.4996086359024048,0.3979799747467041,-0.1298801004886627,0.7694293260574341,0.3789841532707214,-0.0432951785624027,0.6260393857955933,0.3266363739967346,-0.0869592279195785,0.5502787828445435,0.3764383196830749,-0.1181495413184166,0.5020191073417664,0.4298940300941467,-0.1377163380384445,0.77641761302948,0.4241643846035003,-0.0708861500024795,0.643239438533783,0.374765396118164,-0.1090220436453819,0.5675567388534546,0.418553352355957,-0.1249225586652755,0.5165868997573853,0.4624197781085968,-0.1323955506086349,0.765058159828186,0.4940242171287536,-0.09802708029747,0.6508451700210571,0.4849061965942383,-0.1300871074199676,0.5873117446899414,0.497188001871109,-0.1423340439796447,0.5399277806282043,0.5078409314155579,-0.1471495032310485
2023-08-01 16:05:59.002999,45,604,0.7181400060653687,0.1943043619394302,-0.0790552347898483,0.6635291576385498,-0.43798828125,0.8798828125,0.125,0.8099758625030518,0.7198262214660645,-1.01180251022015e-06,0.7134127616882324,0.6258556842803955,-0.0002103364677168,0.6427033543586731,0.53985995054245,-0.0184249393641948,0.5841432809829712,0.4901335835456848,-0.0419994555413723,0.5477012991905212,0.4443549513816833,-0.0659731701016426,0.7702921032905579,0.3625690340995788,-0.0134894894436001,0.6554360389709473,0.3328111171722412,-0.0575178042054176,0.5844719409942627,0.3603605031967163,-0.0937575027346611,0.5357235670089722,0.3961595296859741,-0.1158121079206466,0.7982670664787292,0.3814693987369537,-0.0358598455786705,0.6606192588806152,0.3362210094928741,-0.0783781260251998,0.5879612565040588,0.3867779970169067,-0.1084024310111999,0.5412325263023376,0.4372638165950775,-0.1262509077787399,0.8093639612197876,0.4278478026390075,-0.0602700896561145,0.681187093257904,0.3833291530609131,-0.1003715768456459,0.6067691445350647,0.4253367185592651,-0.1170845925807952,0.556532084941864,0.4664600491523742,-0.1234247907996177,0.8016027808189392,0.4970323145389557,-0.0839040651917457,0.6860957741737366,0.4915240406990051,-0.1180688068270683,0.6212663650512695,0.5038731694221497,-0.1309763342142105,0.5725542902946472,0.5133772492408752,-0.1348774582147598
2023-08-01 16:05:59.073614,46,605,0.7168442606925964,0.2000463455915451,-0.0790431126952171,0.6632253527641296,-0.4189453125,0.86474609375,0.1279296875,0.8152611255645752,0.7174702286720276,-9.579109701007835e-07,0.7159391045570374,0.6237763166427612,-0.0024500333238393,0.6451069712638855,0.5410522222518921,-0.0235652327537536,0.5903847217559814,0.4924563765525818,-0.0504300892353057,0.5588451623916626,0.4472185373306274,-0.0776407122611999,0.7772505283355713,0.3645578622817993,-0.0121290609240531,0.6652066707611084,0.3354634046554565,-0.0620003715157508,0.592578649520874,0.3599663376808166,-0.1055679097771644,0.5387194156646729,0.3972045481204986,-0.1318118274211883,0.8050073981285095,0.3824024200439453,-0.0355323553085327,0.6710019707679749,0.3343209624290466,-0.0812399834394455,0.5954958200454712,0.3811231255531311,-0.1163360700011253,0.5441548228263855,0.431885153055191,-0.1374847590923309,0.8175358772277832,0.4272996485233307,-0.0618374943733215,0.6936732530593872,0.3802155256271362,-0.1042410507798194,0.6171513199806213,0.4229981303215027,-0.1242100000381469,0.5638423562049866,0.4663996696472168,-0.1323165297508239,0.8109799027442932,0.4967183768749237,-0.087809719145298,0.6989737153053284,0.4872884750366211,-0.1221134513616561,0.6360815763473511,0.4999431371688843,-0.1352709382772445,0.588776171207428,0.5113843679428101,-0.1394256353378296
2023-08-01 16:05:59.131971,47,606,0.7154678106307983,0.2039331495761871,-0.0786660835146904,0.6635726690292358,-0.4404296875,0.873046875,0.13134765625,0.8221628665924072,0.7145746946334839,-9.558071951687452e-07,0.7250843048095703,0.6246397495269775,-0.0015504278708249,0.6551035046577454,0.5421691536903381,-0.0209670849144458,0.6002147197723389,0.495382696390152,-0.0462508238852024,0.5655149221420288,0.4505910277366638,-0.0719357281923294,0.7839447259902954,0.3638109266757965,-0.0093567799776792,0.6738449335098267,0.3358060717582702,-0.0579940490424633,0.6018596887588501,0.359368622303009,-0.1006720885634422,0.5475549697875977,0.3948257565498352,-0.1263014376163482,0.8129525780677795,0.3811746835708618,-0.0325608104467392,0.6791577935218811,0.3355840444564819,-0.0763524919748306,0.60404372215271,0.3802548050880432,-0.1107147336006164,0.5522810816764832,0.4275595545768738,-0.1316182017326355,0.8256891369819641,0.4259884357452392,-0.0587454847991466,0.701592743396759,0.3825478255748749,-0.100270502269268,0.6250597834587097,0.424333244562149,-0.1203444600105285,0.5709372758865356,0.4651084244251251,-0.1285596787929535,0.818434476852417,0.4944001138210296,-0.0845468938350677,0.7071495652198792,0.4874759912490845,-0.11866956949234,0.6443344950675964,0.5005552172660828,-0.132158562541008,0.596156120300293,0.5114868879318237,-0.1364570707082748
2023-08-01 16:05:59.186876,48,607,0.7143704295158386,0.2078582048416137,-0.0793136730790138,0.6634600758552551,-0.41748046875,0.86376953125,0.13232421875,0.8296842575073242,0.7119674682617188,-9.56626081460854e-07,0.7338053584098816,0.6252893805503845,0.0004832418344449,0.6654810309410095,0.5417421460151672,-0.0170574095100164,0.6129586696624756,0.4933017790317535,-0.0406669192016124,0.5770442485809326,0.4496717751026153,-0.0648144111037254,0.7929038405418396,0.3651857674121856,-0.0085256677120924,0.6836490631103516,0.3343684077262878,-0.0553576163947582,0.6116865277290344,0.3545348048210144,-0.0957923084497451,0.5581774711608887,0.388059139251709,-0.1197418048977851,0.8209261894226074,0.3839252293109894,-0.0318972952663898,0.6881346702575684,0.3367280960083008,-0.0744758546352386,0.612557590007782,0.3794057369232178,-0.1058875694870948,0.561233401298523,0.427051305770874,-0.1241934150457382,0.8329473733901978,0.4290080070495605,-0.0580888651311397,0.7095585465431213,0.3842616975307464,-0.0986207798123359,0.6336286067962646,0.4242790341377258,-0.1160271689295768,0.5812599658966064,0.4641359150409698,-0.1219727396965026,0.825989305973053,0.4968114793300628,-0.0837989822030067,0.7163382172584534,0.4853810369968414,-0.1168320700526237,0.6542523503303528,0.4965818524360657,-0.1286073178052902,0.6077972054481506,0.5063842535018921,-0.1314193606376648
2023-08-01 16:05:59.253741,49,608,0.7137130498886108,0.2111868113279342,-0.0799090415239334,0.6630448698997498,-0.42431640625,0.86865234375,0.1201171875,0.8564594984054565,0.7151219248771667,-9.330531725026958e-07,0.7643761038780212,0.62050461769104,0.0004447417450137,0.6979295015335083,0.5335330367088318,-0.0164874549955129,0.6390106081962585,0.4861431121826172,-0.0401178337633609,0.5995814800262451,0.4400140643119812,-0.0640603676438331,0.8209164142608643,0.3675619959831238,-0.0014835934853181,0.7150728106498718,0.3347601890563965,-0.0469365715980529,0.646964430809021,0.3550571799278259,-0.0867901071906089,0.5973197221755981,0.3857392072677612,-0.1113733276724815,0.8490736484527588,0.3840626180171966,-0.0252893213182687,0.7173478007316589,0.3314165472984314,-0.0695844814181327,0.6470204591751099,0.3766744136810303,-0.1045912727713584,0.6016106605529785,0.4234474897384643,-0.1251940131187439,0.8618751764297485,0.4259573221206665,-0.0521659962832927,0.738862156867981,0.3772065937519073,-0.0947467312216758,0.6652180552482605,0.4172564744949341,-0.1153489872813224,0.6153233647346497,0.4581620693206787,-0.1230467706918716,0.8552514314651489,0.4903450310230255,-0.0784860551357269,0.746875524520874,0.478385180234909,-0.1139623671770095,0.6863569617271423,0.4882762432098388,-0.1288907080888748,0.6412093639373779,0.4981631636619568,-0.1338592618703842
2023-08-01 16:05:59.316254,50,609,0.7133095860481262,0.214382454752922,-0.0798261612653732,0.6624630093574524,-0.4326171875,0.875,0.1259765625,0.8540191650390625,0.7145492434501648,-9.505646971774696e-07,0.7613349556922913,0.6206251382827759,-0.0002959279809147,0.6944367289543152,0.5345252752304077,-0.0186375752091407,0.6399567127227783,0.4848804771900177,-0.0440684594213962,0.6052790880203247,0.4318802654743194,-0.0696633532643318,0.8204611539840698,0.3616077303886413,-3.5014687455259264e-05,0.7179795503616333,0.3347713649272918,-0.0491374172270298,0.649559497833252,0.3574118018150329,-0.0931570380926132,0.5988383293151855,0.3931028842926025,-0.1198306828737258,0.851222574710846,0.3776143193244934,-0.0249133128672838,0.7242918014526367,0.3347744643688202,-0.0717559084296226,0.6521695852279663,0.3807637989521026,-0.108940415084362,0.6051346063613892,0.4297769069671631,-0.1304652690887451,0.8666481375694275,0.4206447601318359,-0.0535384193062782,0.7491943836212158,0.3793452084064483,-0.0982504040002822,0.6736124157905579,0.4186934232711792,-0.1194274723529815,0.6228592991828918,0.4595210552215576,-0.1267741024494171,0.8628332018852234,0.4869367480278015,-0.0818416848778724,0.7579850554466248,0.4728279411792755,-0.1180744469165802,0.6973387002944946,0.4846850335597992,-0.1321619302034378,0.6525723934173584,0.4965995848178863,-0.1359436511993408
2023-08-01 16:05:59.375190,51,610,0.7126663327217102,0.2184507101774215,-0.0797871574759483,0.661830723285675,-0.408203125,0.88525390625,0.14306640625,0.8619257211685181,0.7089122533798218,-9.425395433027006e-07,0.7693408727645874,0.6199150085449219,-0.0006849769270047,0.7008650302886963,0.5341333746910095,-0.0198282171040773,0.647075355052948,0.4851425886154175,-0.0459693558514118,0.6115480065345764,0.4330917596817016,-0.0725236609578132,0.8289729952812195,0.3648468852043152,-0.0048274085856974,0.726653516292572,0.3313901424407959,-0.0541978776454925,0.6580470204353333,0.3526875078678131,-0.0979272797703743,0.606985330581665,0.3876778483390808,-0.1245857402682304,0.8594614863395691,0.3823637962341308,-0.0295269545167684,0.7314922213554382,0.3345479667186737,-0.077148787677288,0.6592835187911987,0.3799513280391693,-0.1149886697530746,0.6125386953353882,0.4274579584598541,-0.1374772787094116,0.8734496235847473,0.4242901802062988,-0.0577049516141414,0.7555355429649353,0.3799993991851806,-0.1025606095790863,0.6791024208068848,0.4176746606826782,-0.1256119608879089,0.6273616552352905,0.458128809928894,-0.1349533647298813,0.8676984310150146,0.4874480664730072,-0.0854149907827377,0.7641148567199707,0.4714242815971374,-0.1216484680771827,0.7029345035552979,0.4822395741939544,-0.1375421285629272,0.6568399667739868,0.4943479895591736,-0.1433860957622528
2023-08-01 16:05:59.432753,52,611,0.7119202017784119,0.2211141884326934,-0.0800777748227119,0.6617141962051392,-0.431640625,0.87890625,0.11181640625,0.8834109306335449,0.7136061191558838,-9.020274660542782e-07,0.7937660217285156,0.6233646273612976,-0.0039465865120291,0.7267522215843201,0.5392652750015259,-0.0241703875362873,0.6667417287826538,0.4909721910953522,-0.0503746643662452,0.6319589614868164,0.436716765165329,-0.0764033868908882,0.8514916896820068,0.3730626702308655,-0.0089903194457292,0.7499053478240967,0.3369955718517303,-0.0562590509653091,0.683056652545929,0.3601976931095123,-0.0962722972035408,0.6365278959274292,0.3931747078895569,-0.1214193925261497,0.8809707164764404,0.3898307085037231,-0.0325588546693325,0.7548254728317261,0.3287326693534851,-0.080759197473526,0.6841519474983215,0.3726127743721008,-0.1165950819849968,0.6404994130134583,0.4211462736129761,-0.1372953653335571,0.8948395252227783,0.4309493005275726,-0.0594752207398414,0.7778159379959106,0.3806792497634887,-0.1060194373130798,0.7042016386985779,0.4173352122306824,-0.1272968798875808,0.6558504104614258,0.4569170773029327,-0.135070338845253,0.8887982368469238,0.4925176501274109,-0.0861106216907501,0.785365641117096,0.4798215925693512,-0.1255401223897934,0.724638819694519,0.4890158474445343,-0.1420313268899917,0.6798375248908997,0.498851865530014,-0.1477994918823242
2023-08-01 16:05:59.491612,53,612,0.7114729285240173,0.2229089438915252,-0.0811570659279823,0.661461591720581,-0.4296875,0.87890625,0.1416015625,0.8827582597732544,0.7183599472045898,-9.359570185552002e-07,0.793743371963501,0.6246535181999207,-0.0025458894670009,0.72791987657547,0.5357735753059387,-0.0211305748671293,0.6741793155670166,0.4841287732124328,-0.0457846336066722,0.6408513784408569,0.4296112358570099,-0.0701452940702438,0.8570510745048523,0.3710443079471588,-0.0053102816455066,0.7558314800262451,0.3364102244377136,-0.0533612444996833,0.6874628067016602,0.3572166562080383,-0.094738945364952,0.6386517286300659,0.3912371397018432,-0.1197023019194603,0.8866809606552124,0.3894714713096618,-0.0284037347882986,0.7591717839241028,0.3364556431770324,-0.0742852911353111,0.6869706511497498,0.3789934813976288,-0.109141319990158,0.6423918604850769,0.4259072840213775,-0.1294170618057251,0.9007773995399476,0.4312508404254913,-0.055190771818161,0.7820417881011963,0.3837172389030456,-0.0996187329292297,0.706903874874115,0.4192214608192444,-0.1202854290604591,0.6581128239631653,0.4571705460548401,-0.1278142184019088,0.8954604268074036,0.4937160909175873,-0.0817094445228576,0.7901082634925842,0.4772283136844635,-0.1185333281755447,0.7299282550811768,0.4879573285579681,-0.1332519352436065,0.6864005923271179,0.4993770122528076,-0.1377903670072555
2023-08-01 16:05:59.563113,54,613,0.7109447121620178,0.2254483699798584,-0.0824267789721489,0.6610116362571716,-0.41552734375,0.865234375,0.126953125,0.8826990127563477,0.7168510556221008,-8.88954048150481e-07,0.7980887293815613,0.627450704574585,-0.0029922588728368,0.7320628762245178,0.5386576652526855,-0.0214815940707921,0.675308108329773,0.4861272871494293,-0.0462879613041877,0.6425047516822815,0.4295412600040436,-0.0703016892075538,0.8624110817909241,0.3762635886669159,-0.0022656321525573,0.7659987211227417,0.331443041563034,-0.0488631688058376,0.6987040638923645,0.3498998880386352,-0.0889457911252975,0.6524098515510559,0.3845556974411011,-0.1130981519818306,0.8917093873023987,0.3927918970584869,-0.0243078526109457,0.7684815526008606,0.3330883383750915,-0.0697001516819,0.6972382664680481,0.3749262690544128,-0.1027077138423919,0.6548366546630859,0.423075258731842,-0.1208807006478309,0.9052914381027222,0.4328719973564148,-0.050420843064785,0.7892637848854065,0.3807773292064667,-0.0932397171854972,0.7140830159187317,0.4151849448680877,-0.1114491075277328,0.6659641861915588,0.4535351693630218,-0.1169015541672706,0.8986873030662537,0.4928781688213348,-0.0765813440084457,0.7958500385284424,0.4745518565177917,-0.1117092370986938,0.7355432510375977,0.4839614927768707,-0.1257264912128448,0.6922053098678589,0.4957598447799682,-0.1294942796230316
2023-08-01 16:05:59.619067,55,614,0.7099091410636902,0.2299095392227172,-0.0810557231307029,0.6607576012611389,-0.43896484375,0.88232421875,0.11083984375,0.8921214938163757,0.7133270502090454,-9.301526802119042e-07,0.8043790459632874,0.6252739429473877,-0.0064229941926896,0.7380687594413757,0.5386605858802795,-0.0265014972537755,0.6836827397346497,0.4883792400360107,-0.0522144138813018,0.6485062837600708,0.4367977380752563,-0.0773682668805122,0.866544246673584,0.3718008399009704,-0.0072332336567342,0.7652437686920166,0.3318360447883606,-0.0564749352633953,0.6963803172111511,0.354076087474823,-0.0991731435060501,0.6470880508422852,0.3910844624042511,-0.1245572492480278,0.8949628472328186,0.389097511768341,-0.0280098933726549,0.7664010524749756,0.3313596844673157,-0.0755223557353019,0.6942722201347351,0.3786313533782959,-0.1121503487229347,0.6508995294570923,0.4292759001255035,-0.1325720101594925,0.9086949229240416,0.4304583370685577,-0.0527919009327888,0.7922192215919495,0.3812015652656555,-0.0979364514350891,0.7147283554077148,0.416279524564743,-0.1212462708353996,0.663689136505127,0.4557980597019195,-0.1296425610780716,0.9027849435806274,0.4920507073402405,-0.0774955675005912,0.8004047870635986,0.4724470973014831,-0.1138939708471298,0.7390727400779724,0.4802612364292145,-0.1300565302371978,0.6931183338165283,0.4920343458652496,-0.1352744400501251
2023-08-01 16:05:59.680790,56,615,0.709237277507782,0.2324779778718948,-0.0811568722128868,0.6605678796768188,-0.435546875,0.861328125,0.05908203125,0.8983404040336609,0.7093287110328674,-8.98047062491969e-07,0.8133253455162048,0.6199106574058533,-0.0074753384105861,0.7509868144989014,0.5350005030632019,-0.0268620029091835,0.6965753436088562,0.4846262633800506,-0.0516422428190708,0.6635973453521729,0.4272149503231048,-0.0758038386702537,0.8757893443107605,0.3717566430568695,-0.0052307308651506,0.7874569296836853,0.331281840801239,-0.0519063211977481,0.7220091223716736,0.3496086895465851,-0.0926321521401405,0.6746962070465088,0.3796587586402893,-0.1176707819104194,0.9084587097167968,0.3884422481060028,-0.0246397294104099,0.7942279577255249,0.3334246873855591,-0.0711815282702446,0.7240355014801025,0.3752487301826477,-0.1066260337829589,0.6794391870498657,0.4202598929405212,-0.1264754980802536,0.925657033920288,0.4288091957569122,-0.04815024882555,0.8163549304008484,0.380809485912323,-0.0932040587067604,0.7415208220481873,0.4153708219528198,-0.114609308540821,0.6900568008422852,0.4531583786010742,-0.1219305917620658,0.9227330684661864,0.489806056022644,-0.0717538595199585,0.8216023445129395,0.4765926003456116,-0.1091520339250564,0.7610414028167725,0.4868771135807037,-0.1247092559933662,0.715420663356781,0.49813973903656,-0.1292881369590759
2023-08-01 16:05:59.746117,57,616,0.7098603844642639,0.2320807874202728,-0.0822978019714355,0.6598968505859375,-0.4443359375,0.869140625,0.1015625,0.9046274423599244,0.7073287963867188,-8.979998824543145e-07,0.8209113478660583,0.6192142963409424,-0.0107489805668592,0.757284939289093,0.5331428050994873,-0.0328483879566192,0.7034620046615601,0.4830463826656341,-0.0597763806581497,0.6712069511413574,0.4273602366447449,-0.0856474265456199,0.883827805519104,0.3695939481258392,-0.0105686048045754,0.7922936677932739,0.3259150385856628,-0.0616795383393764,0.7254548072814941,0.3461367189884186,-0.1053328439593315,0.675848662853241,0.3818973898887634,-0.1313446313142776,0.914921760559082,0.3869827389717102,-0.0294985733926296,0.7955209016799927,0.3283394873142242,-0.0799361765384674,0.7253413200378418,0.3730195462703705,-0.1178651079535484,0.6819856762886047,0.421832412481308,-0.1386915296316146,0.9314336776733398,0.4282497763633728,-0.0529050938785076,0.8214327096939087,0.376009076833725,-0.1014602705836296,0.7451373934745789,0.4115571081638336,-0.125690072774887,0.6936134099960327,0.4515631198883056,-0.1339711993932724,0.9291906356811525,0.4901737570762634,-0.0765115916728973,0.8298953771591187,0.473686009645462,-0.1167399883270263,0.7670695185661316,0.4822457134723663,-0.134707510471344,0.7192355394363403,0.4933081269264221,-0.1404809653759002
