Timestamp,Index,Frame ID,w,x,y,z,ax,ay,az,x_0,y_0,z_0,x_1,y_1,z_1,x_2,y_2,z_2,x_3,y_3,z_3,x_4,y_4,z_4,x_5,y_5,z_5,x_6,y_6,z_6,x_7,y_7,z_7,x_8,y_8,z_8,x_9,y_9,z_9,x_10,y_10,z_10,x_11,y_11,z_11,x_12,y_12,z_12,x_13,y_13,z_13,x_14,y_14,z_14,x_15,y_15,z_15,x_16,y_16,z_16,x_17,y_17,z_17,x_18,y_18,z_18,x_19,y_19,z_19,x_20,y_20,z_20
2023-08-01 16:06:06.873026,0,724,0.7143430709838867,0.2310944497585296,-0.0718250200152397,0.6566203832626343,-0.44775390625,0.8828125,0.08154296875,0.9249970316886902,0.7119940519332886,-9.398580118613608e-07,0.8502712845802307,0.62941974401474,-0.0119298147037625,0.7904476523399353,0.5397372245788574,-0.0321918465197086,0.737786591053009,0.4848127663135528,-0.0567490197718143,0.6987114548683167,0.4280007183551788,-0.0801861733198165,0.9125818610191344,0.3681789040565491,-0.0073663173243403,0.8227864503860474,0.3281716108322143,-0.05552289634943,0.7561805248260498,0.3501234650611877,-0.0964081734418869,0.7074125409126282,0.3848125040531158,-0.1202563643455505,0.947102189064026,0.3843306303024292,-0.0240898802876472,0.8300690650939941,0.329125314950943,-0.0694673135876655,0.7581044435501099,0.3689981698989868,-0.1018976420164108,0.7111231088638306,0.414043664932251,-0.118605837225914,0.96668803691864,0.4246177673339844,-0.0456966571509838,0.8576105237007141,0.3750890493392944,-0.0914282798767089,0.7832672595977783,0.4096498787403106,-0.1105115637183189,0.7325522899627686,0.4458523988723755,-0.1149671077728271,0.9668998122215272,0.4851759076118469,-0.067899465560913,0.8619725704193115,0.471454918384552,-0.1079770103096962,0.7993963956832886,0.4830976724624634,-0.1236092746257782,0.753014326095581,0.4954743385314941,-0.1265665888786316
2023-08-01 16:06:06.937536,1,725,0.7149018049240112,0.2272215634584427,-0.0693101063370704,0.6576335430145264,-0.43701171875,0.8720703125,0.0615234375,0.9205742478370668,0.7106905579566956,-9.133204343925172e-07,0.8389450907707214,0.6272983551025391,-0.0107236886397004,0.7788867354393005,0.5374462008476257,-0.0287501104176044,0.7243814468383789,0.4843201637268066,-0.0508157461881637,0.6870654225349426,0.4276078343391418,-0.0715246871113777,0.90473610162735,0.3673574030399322,-0.008157723583281,0.8112627863883972,0.3204954862594604,-0.0523268580436706,0.7453195452690125,0.3440978527069092,-0.0890410467982292,0.7010768055915833,0.379425436258316,-0.1106241047382354,0.9356766939163208,0.3860158920288086,-0.0245367716997861,0.8180761933326721,0.3310980796813965,-0.0680301710963249,0.7468843460083008,0.3731563687324524,-0.0985964089632034,0.7021328806877136,0.4194142818450928,-0.1139506623148918,0.9523553848266602,0.4288093745708465,-0.045234989374876,0.8423780202865601,0.3772121369838714,-0.0898040235042572,0.7676091194152832,0.4134872853755951,-0.1084123700857162,0.717382550239563,0.4510588943958282,-0.1124283820390701,0.9499423503875732,0.4910541176795959,-0.0662489980459213,0.8441678285598755,0.4772518277168274,-0.1059384793043136,0.7803147435188293,0.4863450229167938,-0.1216383725404739,0.7336325645446777,0.496389776468277,-0.1244395822286605
2023-08-01 16:06:06.992720,2,726,0.7155243158340454,0.2232406139373779,-0.0673614889383316,0.6585218906402588,-0.453125,0.87109375,0.06787109375,0.9083158373832704,0.7135072350502014,-9.365380151393764e-07,0.8299295902252197,0.6244821548461914,-0.0118875531479716,0.7698429822921753,0.535075306892395,-0.0323903188109397,0.7149298191070557,0.4828653931617737,-0.0569940879940986,0.6749156713485718,0.4310065507888794,-0.0804584845900535,0.8966704607009888,0.3622168600559234,-0.0108692655339837,0.7986488938331604,0.3246051073074341,-0.0603145100176334,0.7312859892845154,0.3475947976112366,-0.1020048856735229,0.683628499507904,0.3812347650527954,-0.1267016530036926,0.927518904209137,0.3803251981735229,-0.0285658463835716,0.804414689540863,0.3281547725200653,-0.0758906230330467,0.7330986261367798,0.3733110427856445,-0.1089293882250785,0.6872181296348572,0.4210750758647918,-0.1258531510829925,0.943477213382721,0.4245807528495788,-0.0508247688412666,0.8280516862869263,0.3734902143478393,-0.0979832559823989,0.7543907761573792,0.412971168756485,-0.1165442615747451,0.704439103603363,0.4515463709831238,-0.1202251687645912,0.94046151638031,0.4902215003967285,-0.0736063569784164,0.8330445289611816,0.4756667613983154,-0.1145741268992424,0.7711848020553589,0.4854191541671753,-0.1297136694192886,0.7252556085586548,0.4950722455978393,-0.131983682513237
2023-08-01 16:06:07.054112,3,727,0.7162800431251526,0.2174335718154907,-0.0638913661241531,0.6599874496459961,-0.45263671875,0.89208984375,0.05810546875,0.9084421396255492,0.7125684022903442,-9.244906209460168e-07,0.8245135545730591,0.6215692758560181,-0.0075695235282182,0.7624741196632385,0.5325899720191956,-0.0272864047437906,0.7071111798286438,0.4821610152721405,-0.0525347776710987,0.6666442155838013,0.4303372800350189,-0.0770352184772491,0.8917737603187561,0.3648864030838012,-0.0058742854744195,0.7942426204681396,0.3236979246139526,-0.0549883469939231,0.7251160740852356,0.3427223861217499,-0.0974364280700683,0.6740987300872803,0.3740118741989136,-0.1227473095059394,0.9217295050621032,0.3827057480812073,-0.0261497572064399,0.7969743609428406,0.3251546621322632,-0.0742550790309906,0.723456859588623,0.3672180473804474,-0.1096443310379982,0.675464928150177,0.4141566455364227,-0.1281453818082809,0.9368834495544434,0.4255299866199493,-0.0506692565977573,0.8208175301551819,0.3729769587516784,-0.097442589700222,0.7460373640060425,0.4110740721225738,-0.1178756430745124,0.6948744058609009,0.4500064849853515,-0.1228875666856765,0.9332066774368286,0.489245742559433,-0.0754233673214912,0.8274377584457397,0.4731659293174743,-0.1147158443927764,0.7656344771385193,0.4822314083576202,-0.1299016922712326,0.7189026474952698,0.4927145540714264,-0.1327261626720428
2023-08-01 16:06:07.123003,4,728,0.7167080640792847,0.2104725092649459,-0.0593444295227527,0.6622002124786377,-0.4365234375,0.88427734375,0.06005859375,0.901563286781311,0.7087780833244324,-9.278252264266484e-07,0.8181058168411255,0.6169335246086121,-0.0071958326734602,0.7557756304740906,0.5291094183921814,-0.0270210355520248,0.6995344758033752,0.477923721075058,-0.0519730672240257,0.6617008447647095,0.4254130721092224,-0.0758182108402252,0.888428807258606,0.3616087734699249,-0.0075593395158648,0.7864046096801758,0.3209578394889831,-0.0545614808797836,0.718562662601471,0.3458963632583618,-0.0950025618076324,0.6713685393333435,0.3811668157577514,-0.1192785054445266,0.9167546033859252,0.3800974488258362,-0.0271024592220783,0.7884060144424438,0.322418749332428,-0.0723505169153213,0.7170838117599487,0.3688965439796448,-0.104992464184761,0.6717005968093872,0.4186902940273285,-0.1222204193472862,0.9300358891487122,0.4236481189727783,-0.0504796765744686,0.8120616674423218,0.3687599599361419,-0.0942763537168502,0.7378992438316345,0.4091052711009979,-0.1116010844707489,0.6877229809761047,0.449939876794815,-0.1152122691273689,0.9236958622932434,0.4882588386535644,-0.0740991532802581,0.8166682124137878,0.472846508026123,-0.1114947944879531,0.7547198534011841,0.4811932444572449,-0.1252900213003158,0.7080816626548767,0.4910276234149933,-0.1274193823337555
2023-08-01 16:06:07.209046,5,729,0.7181630730628967,0.1977830082178115,-0.0583619736135005,0.6646183729171753,-0.39599609375,0.8798828125,0.11767578125,0.8770309686660767,0.7056130766868591,-9.181425184578984e-07,0.7889106869697571,0.6159988641738892,-0.0056800786405801,0.7260711193084717,0.5284276604652405,-0.0245566833764314,0.6725519299507141,0.4799924790859222,-0.048173289746046,0.631426215171814,0.4381981790065765,-0.0717904046177864,0.8558695912361145,0.3571221828460693,-0.0102257365360856,0.7521132230758667,0.3165456652641296,-0.0555529966950416,0.682197093963623,0.344302773475647,-0.0945513844490051,0.6341385841369629,0.3815788030624389,-0.1179693415760994,0.8860998749732971,0.373346745967865,-0.0297562032938003,0.759492039680481,0.3238881826400757,-0.0704221129417419,0.6844227313995361,0.3654414415359497,-0.1003510281443595,0.6350135803222656,0.4098078906536102,-0.1177083253860473,0.8994196653366089,0.4175838232040405,-0.05291248857975,0.7835952043533325,0.3697086870670318,-0.0937634035944938,0.7063024044036865,0.4040789008140564,-0.111676275730133,0.6532057523727417,0.4387332499027252,-0.1179501861333847,0.8920784592628479,0.4830542802810669,-0.0759931281208992,0.7853868007659912,0.4725569784641266,-0.1122269853949546,0.7228228449821472,0.4824703931808471,-0.1261114329099655,0.6756018996238708,0.491168349981308,-0.1295555830001831
2023-08-01 16:06:07.278362,6,730,0.7205135226249695,0.1893536299467086,-0.0574075765907764,0.6646125316619873,-0.44970703125,0.84423828125,0.12646484375,0.8606270551681519,0.7053039073944092,-9.809218681766652e-07,0.7745833992958069,0.6115905046463013,-0.0016051720594987,0.7129156589508057,0.521040141582489,-0.0182216055691242,0.6602635383605957,0.4700115025043487,-0.0408441536128521,0.6175972819328308,0.4248636066913605,-0.0632898733019828,0.8413897156715393,0.3488741517066955,-0.0042770253494381,0.7377180457115173,0.3127063810825348,-0.0506571494042873,0.6684115529060364,0.3392342627048492,-0.0908274799585342,0.6207278966903687,0.3748563528060913,-0.1149554774165153,0.8722396492958069,0.3677207231521606,-0.0265526957809925,0.7446981072425842,0.3241857290267944,-0.0685493126511573,0.6722676157951355,0.3690147995948791,-0.0987070202827453,0.625372052192688,0.4140696227550506,-0.1158148869872093,0.886354386806488,0.4136514961719513,-0.0527094826102256,0.7670776844024658,0.3697771728038788,-0.0942535400390625,0.6912417411804199,0.4059863984584808,-0.1110613793134689,0.6388124823570251,0.4402144253253937,-0.1161479651927948,0.8806047439575195,0.4812633395195007,-0.0787164345383644,0.7705082893371582,0.4668958187103271,-0.1147905886173248,0.7075735330581665,0.4762572348117828,-0.1277776956558227,0.6604341864585876,0.4844418466091156,-0.1304937452077865
2023-08-01 16:06:07.338767,7,731,0.7253739833831787,0.1751209497451782,-0.0556159391999244,0.6633793711662292,-0.4833984375,0.86181640625,0.09423828125,0.828839123249054,0.6965947151184082,-9.350192726742534e-07,0.725665807723999,0.6084581017494202,-0.0015481519512832,0.6613970994949341,0.5201244354248047,-0.0195895619690418,0.613702654838562,0.4676487743854522,-0.0433041453361511,0.5773726105690002,0.4291566610336303,-0.06855408847332,0.7876294851303101,0.3400284349918365,-0.0121064176782965,0.6693312525749207,0.3033534288406372,-0.0566068366169929,0.5981294512748718,0.3391972184181213,-0.0946343392133712,0.5515580773353577,0.3824637830257416,-0.117703303694725,0.8155822157859802,0.3581317365169525,-0.0346106775104999,0.6755968928337097,0.3059381246566772,-0.0744282454252243,0.6007540822029114,0.355497807264328,-0.1034164875745773,0.5547853708267212,0.4060995578765869,-0.1206722483038902,0.826550304889679,0.4050013422966003,-0.0600265264511108,0.6968708038330078,0.3524642884731293,-0.0994119346141815,0.6188511252403259,0.3936688899993896,-0.1180396378040313,0.5682210922241211,0.4334613382816314,-0.1256584525108337,0.8194115161895752,0.4755900204181671,-0.0851041823625564,0.7018529176712036,0.4661479592323303,-0.1204954460263252,0.6363235712051392,0.4761906862258911,-0.1356708407402038,0.5878886580467224,0.4856471717357635,-0.1409537196159362
2023-08-01 16:06:07.400673,8,732,0.7279345393180847,0.1665226072072982,-0.0518464259803295,0.6630938649177551,-0.47265625,0.86865234375,0.07080078125,0.8012387156486511,0.7026400566101074,-9.810308938540402e-07,0.6999173164367676,0.6074055433273315,0.0006559863686561,0.630242109298706,0.5181424617767334,-0.0185714419931173,0.5736367702484131,0.4693012237548828,-0.0440716631710529,0.5344704389572144,0.4272029995918274,-0.070202924311161,0.766486406326294,0.336440771818161,-0.0113489050418138,0.6430557370185852,0.3073590993881225,-0.0583436153829097,0.5677826404571533,0.3427288830280304,-0.0989673137664794,0.5187827348709106,0.3856406807899475,-0.1242795139551162,0.7906517386436462,0.3546843230724334,-0.0368277058005332,0.6460683941841125,0.3087486922740936,-0.0815543085336685,0.5685738921165466,0.3628214299678802,-0.1151573583483696,0.5188950300216675,0.4181397259235382,-0.1353590339422226,0.7990697622299194,0.4032569527626037,-0.0647172629833221,0.6631075739860535,0.3564825356006622,-0.1056233122944831,0.5841867923736572,0.4034722745418548,-0.1250754594802856,0.5306863784790039,0.4464462101459503,-0.1336672604084015,0.7894910573959351,0.4771761894226074,-0.0921122655272483,0.6732936501502991,0.4686868488788605,-0.1279332190752029,0.6082683801651001,0.4798820614814758,-0.1432785093784332,0.5596151351928711,0.4876252710819244,-0.1490872651338577
2023-08-01 16:06:07.466352,9,733,0.729569673538208,0.1586104035377502,-0.0489180572330951,0.6634589433670044,-0.44921875,0.88134765625,0.10400390625,0.7960913181304932,0.695041298866272,-9.801863143366063e-07,0.6875929236412048,0.6029359102249146,0.0003076497523579,0.6137939691543579,0.5211547017097473,-0.0194405801594257,0.556035041809082,0.4731287062168121,-0.0452579408884048,0.5131344199180603,0.4296990931034088,-0.0714257061481475,0.7572855949401855,0.3353241682052612,-0.0134282195940613,0.6327956318855286,0.3020860552787781,-0.0588474795222282,0.5565553307533264,0.3378562331199646,-0.0970584452152252,0.5088275671005249,0.3841391503810882,-0.1208144351840019,0.7812386155128479,0.3539780378341675,-0.0374443382024765,0.6319334506988525,0.3059189319610595,-0.0806067958474159,0.5549045205116272,0.3617202937602997,-0.1112298592925071,0.5076338052749634,0.4182544350624084,-0.1296087205410003,0.7875831723213196,0.4020977616310119,-0.0637512430548667,0.6488884091377258,0.3565752208232879,-0.1038276404142379,0.5704178810119629,0.4036327600479126,-0.1207113936543464,0.5177487134933472,0.4472089111804962,-0.1278404146432876,0.7756990194320679,0.4742181599140167,-0.0895316749811172,0.6590990424156189,0.4680931568145752,-0.124820590019226,0.5945138931274414,0.4818088114261627,-0.1388967633247375,0.5463178753852844,0.4914802014827728,-0.1439310610294342
2023-08-01 16:06:07.521706,10,734,0.7309128642082214,0.1525148153305053,-0.0478126145899295,0.663490355014801,-0.48583984375,0.845703125,0.17626953125,0.7856200933456421,0.6904977560043335,-9.76764567894861e-07,0.6759526133537292,0.6006683707237244,-0.0006967028020881,0.6040948033332825,0.5203126072883606,-0.0209585037082433,0.5491176247596741,0.4704072773456573,-0.0468871258199214,0.5086416602134705,0.4263749420642853,-0.072700634598732,0.7452821135520935,0.332262247800827,-0.016979755833745,0.6203484535217285,0.2986686527729034,-0.0637849122285842,0.5450844168663025,0.3363479971885681,-0.1024346277117729,0.499679684638977,0.3840108215808868,-0.1260049194097519,0.7682298421859741,0.3518314063549042,-0.040311649441719,0.6195794939994812,0.3056774139404297,-0.082498624920845,0.5434983968734741,0.3605614900588989,-0.1109976395964622,0.4983750581741333,0.4158541858196258,-0.1284741014242172,0.7741915583610535,0.4006071388721466,-0.0661356002092361,0.6359171271324158,0.3561152815818786,-0.1048480942845344,0.5579414367675781,0.401529997587204,-0.1194150447845459,0.5063178539276123,0.4445549249649048,-0.1256254613399505,0.7618783712387085,0.4735991954803467,-0.0917318537831306,0.6455970406532288,0.4670828580856323,-0.1257802546024322,0.5804598927497864,0.4800321161746979,-0.138523057103157,0.5316388607025146,0.489855408668518,-0.1429176330566406
2023-08-01 16:06:07.585139,11,735,0.733456552028656,0.146257072687149,-0.0439705587923526,0.6623570919036865,-0.51416015625,0.83349609375,0.109375,0.7422686815261841,0.6934276819229126,-1.002392536975094e-06,0.6249485015869141,0.5992759466171265,0.0142451487481594,0.5600979328155518,0.5064308643341064,0.0028237549122422,0.5096278190612793,0.4448534548282623,-0.0157413613051176,0.4686629176139831,0.3998337686061859,-0.0363854169845581,0.6963633894920349,0.333021342754364,-0.0164703670889139,0.5619001388549805,0.3001466691493988,-0.0493856109678745,0.4864118099212646,0.3405939936637878,-0.0748772025108337,0.4397957324981689,0.3839364647865295,-0.0919356867671012,0.7119307518005371,0.3550050854682922,-0.0435491763055324,0.5567888617515564,0.3102782964706421,-0.073756068944931,0.4778187870979309,0.3617139458656311,-0.0928206667304039,0.4282611310482025,0.4121915400028229,-0.1079190447926521,0.7078394889831543,0.406206727027893,-0.0702732428908348,0.5587252974510193,0.365539938211441,-0.0993077233433723,0.4817589521408081,0.4092434644699096,-0.1118761599063873,0.4315441250801086,0.4505226016044616,-0.1211600825190544,0.6880595684051514,0.4800441265106201,-0.0953790619969368,0.5687307119369507,0.4724687933921814,-0.1249073296785354,0.5010814666748047,0.4827600419521332,-0.1399563997983932,0.4504177868366241,0.4924839437007904,-0.1492830514907837
2023-08-01 16:06:07.651620,12,736,0.736258864402771,0.1395201236009597,-0.039687979966402,0.6609703898429871,-0.49169921875,0.84716796875,0.0947265625,0.7317366600036621,0.6969186067581177,-1.0327192967451992e-06,0.613374650478363,0.6004625558853149,0.0196727141737937,0.5437355041503906,0.507906973361969,0.0085569070652127,0.4855368137359619,0.4528125524520874,-0.0109308725222945,0.4388102889060974,0.4106565415859222,-0.0328228548169136,0.6793257594108582,0.3279504179954529,-0.0129932146519422,0.5374956130981445,0.3038077652454376,-0.0461298786103725,0.46206995844841,0.3454911708831787,-0.071362555027008,0.4182159006595611,0.3901772499084472,-0.0885602682828903,0.6929410696029663,0.3490830659866333,-0.043969739228487,0.5305021405220032,0.3083415627479553,-0.0785237252712249,0.4555103778839111,0.368461549282074,-0.1003479659557342,0.4107098877429962,0.4301471412181854,-0.1156792268157005,0.6894941926002502,0.4022544026374817,-0.0738861113786697,0.5336257815361023,0.3622850477695465,-0.1064376533031463,0.4574980735778808,0.4157199263572693,-0.1210613399744033,0.4087605476379394,0.4653273224830627,-0.1307286769151687,0.6701440811157227,0.4791814386844635,-0.1013787984848022,0.547308623790741,0.478875458240509,-0.13489530980587,0.4780054688453674,0.4937090873718261,-0.1529337167739868,0.4256949424743652,0.5056245923042297,-0.1638024449348449
2023-08-01 16:06:07.709809,13,737,0.7379810810089111,0.1330603063106537,-0.0382034108042717,0.6604690551757812,-0.49658203125,0.853515625,0.150390625,0.6861912608146667,0.693762481212616,-1.0128452458957329e-06,0.5692586898803711,0.6000136137008667,0.0224362332373857,0.5063582062721252,0.5034292340278625,0.012948652729392,0.4534802436828613,0.439782977104187,-0.0049980524927377,0.4085404276847839,0.3957680165767669,-0.025695115327835,0.6405518054962158,0.3270857334136963,-0.0139701496809721,0.4902491569519043,0.2988525629043579,-0.0449896454811096,0.4118204116821289,0.3453988432884216,-0.0685580670833587,0.3690596222877502,0.3900164663791656,-0.0847931578755378,0.6524711847305298,0.3446082174777984,-0.045404877513647,0.4840337336063385,0.2996496558189392,-0.0733319967985153,0.4064838290214538,0.3541691601276397,-0.0911349803209304,0.3612047433853149,0.4091585576534271,-0.1057329922914505,0.6460763812065125,0.3955417573451996,-0.0753121599555015,0.4864105880260467,0.3477554321289062,-0.1036232411861419,0.4106448292732239,0.3994256854057312,-0.1162608042359352,0.3626341819763183,0.4469169378280639,-0.1262610554695129,0.6229310035705566,0.4718267321586609,-0.1026374623179435,0.4999182224273681,0.4733696579933166,-0.1352845728397369,0.4299920201301574,0.4939852356910705,-0.1528851985931396,0.376741886138916,0.5111171007156372,-0.1638761311769485
2023-08-01 16:06:07.795369,14,738,0.7399210333824158,0.1236979663372039,-0.0355996266007423,0.6602638363838196,-0.51171875,0.8408203125,0.14013671875,0.6601368188858032,0.701111376285553,-9.805721674638337e-07,0.5422484874725342,0.6125191450119019,0.0179235711693763,0.4752335548400879,0.5165039300918579,0.0055076284334063,0.4166344106197357,0.4557128846645355,-0.0146427480503916,0.3662264347076416,0.4154382944107055,-0.0370691306889057,0.6082856059074402,0.33203125,-0.0201004073023796,0.4617348313331604,0.2854167819023132,-0.0548170730471611,0.3834372460842132,0.3291694521903991,-0.0802424699068069,0.3406702280044555,0.377200186252594,-0.096321053802967,0.6187340617179871,0.3522298336029053,-0.048746071755886,0.4521349668502807,0.2943889796733856,-0.0797708705067634,0.3748627305030823,0.3502057790756225,-0.0961974114179611,0.33256796002388,0.4106127321720123,-0.1081271842122078,0.6104510426521301,0.4041919410228729,-0.0763910189270973,0.4516224563121795,0.3499156832695007,-0.1043057069182396,0.3765430450439453,0.4004423320293426,-0.1138129755854606,0.3321679830551147,0.4509887099266052,-0.1205317303538322,0.5860899090766907,0.4798583090305328,-0.1021523177623748,0.4655845761299133,0.4735307395458221,-0.1312201172113418,0.3962404727935791,0.4883159697055816,-0.1457765698432922,0.3451840877532959,0.504033088684082,-0.1542966514825821
2023-08-01 16:06:07.869398,15,739,0.7410696148872375,0.116792045533657,-0.03260488063097,0.6603880524635315,-0.48388671875,0.8564453125,0.08984375,0.6480307579040527,0.7066002488136292,-1.018119405671314e-06,0.5333430171012878,0.6187375783920288,0.0224054213613271,0.4633891582489013,0.5288442969322205,0.009671488776803,0.39873206615448,0.473341703414917,-0.011890229769051,0.3424084782600403,0.4341447055339813,-0.0357038974761962,0.598426342010498,0.3362933099269867,-0.0155259640887379,0.4540376663208008,0.2816248536109924,-0.0498220808804035,0.3730571269989013,0.3230773210525512,-0.0742794796824455,0.3309058845043182,0.3722831010818481,-0.089125208556652,0.6055827736854553,0.3575111627578735,-0.045558925718069,0.4355407953262329,0.2955253720283508,-0.075390838086605,0.3600241541862488,0.3519209027290344,-0.0909140408039093,0.321437269449234,0.4140485823154449,-0.1024327874183654,0.5944404006004333,0.4098299443721771,-0.0742420554161071,0.4320918917655945,0.3569436967372894,-0.0994505956768989,0.3582553267478943,0.4054937362670898,-0.1063471212983131,0.3146863579750061,0.4544596970081329,-0.1121218875050544,0.5666190385818481,0.4831634759902954,-0.1006404981017112,0.4467630684375763,0.4709135293960571,-0.1243213191628456,0.3814297020435333,0.4836779534816742,-0.1344566643238067,0.3333978652954101,0.4955882132053375,-0.1407839059829712
2023-08-01 16:06:07.943899,16,740,0.7418904900550842,0.108533851802349,-0.0302315801382064,0.660987913608551,-0.482421875,0.8447265625,0.11474609375,0.6351402997970581,0.702042818069458,-1.046534976012481e-06,0.5167084336280823,0.6140298247337341,0.0227948576211929,0.4490715861320495,0.5277210474014282,0.0097510293126106,0.3858082592487335,0.4741987586021423,-0.0117361936718225,0.3296845257282257,0.4377228021621704,-0.0357755906879901,0.5849648714065552,0.3329949975013733,-0.0192421115934848,0.4373379647731781,0.2821292877197265,-0.0516297370195388,0.359096497297287,0.33090740442276,-0.0729897320270538,0.3236494660377502,0.3832895159721374,-0.0860339701175689,0.5929885506629944,0.3549704253673553,-0.0488847531378269,0.4188911914825439,0.2958980798721313,-0.0785492360591888,0.3438696265220642,0.3574461936950683,-0.0911912694573402,0.3092369437217712,0.421824187040329,-0.100750058889389,0.5816131830215454,0.4083171188831329,-0.0769364535808563,0.4171991348266601,0.357122391462326,-0.1023241356015205,0.3439515233039856,0.4051863551139831,-0.1078884154558181,0.3029457032680511,0.4528870582580566,-0.1131250113248825,0.5534170269966125,0.4820262789726257,-0.1025266945362091,0.4344376921653747,0.4696550965309143,-0.1267724186182022,0.3681024014949798,0.4822014570236206,-0.1367900967597961,0.3191796243190765,0.492942065000534,-0.1433965861797332
2023-08-01 16:06:08.012363,17,741,0.7427617311477661,0.1021279320120811,-0.0314117148518562,0.6609752178192139,-0.47412109375,0.8505859375,0.1435546875,0.5997199416160583,0.7046372294425964,-9.673985914560037e-07,0.4780102074146271,0.6163361072540283,0.024812813848257,0.403867244720459,0.5312883853912354,0.0132482908666133,0.3360092639923095,0.4869783520698547,-0.0074047255329787,0.2795047760009765,0.4599482715129852,-0.0309056360274553,0.5378230214118958,0.3352446556091308,-0.0139066763222217,0.3895520865917206,0.2926046252250671,-0.0455129295587539,0.3115927278995514,0.345814973115921,-0.0682783871889114,0.2687011957168579,0.3992480337619781,-0.0826603844761848,0.5414230227470398,0.353007972240448,-0.0444717854261398,0.3669003844261169,0.2952809035778045,-0.0712844654917717,0.2892448902130127,0.3555651009082794,-0.0842244401574134,0.2478746473789215,0.4194504618644714,-0.0948113948106765,0.5268276929855347,0.4052887260913849,-0.0735449194908142,0.3607799708843231,0.3523227274417877,-0.0970043689012527,0.2847267985343933,0.4015323519706726,-0.1039153710007667,0.2398960590362548,0.4500000476837158,-0.1103528216481208,0.496855080127716,0.4797688722610473,-0.1001412272453308,0.3728879690170288,0.466871827840805,-0.1259989142417907,0.3031755089759826,0.4828728139400482,-0.1380356550216674,0.2522564530372619,0.4980096220970154,-0.1455444246530532
2023-08-01 16:06:08.067342,18,742,0.7436520457267761,0.0983248651027679,-0.0301353670656681,0.6606100797653198,-0.517578125,0.8388671875,0.14404296875,0.5845150351524353,0.7050047516822815,-1.0747738770078286e-06,0.4627882838249206,0.6129653453826904,0.0327747166156768,0.3866182565689087,0.5293503999710083,0.024465313181281,0.3156428039073944,0.4841123223304748,0.0056824781931936,0.2577325105667114,0.4554227590560913,-0.0161925386637449,0.5235631465911865,0.3291190266609192,-0.0100789004936814,0.370726466178894,0.2914265990257263,-0.0350972302258014,0.2953730523586273,0.347123920917511,-0.0518728010356426,0.2586713135242462,0.4052527844905853,-0.0634389072656631,0.5286733508110046,0.3455759584903717,-0.0437036119401454,0.3520845472812652,0.2968756556510925,-0.0660675391554832,0.2778193950653076,0.3585362434387207,-0.0777156949043273,0.2396410703659057,0.4257335066795349,-0.0888965427875518,0.5160812735557556,0.3990218341350555,-0.0742531418800354,0.34490767121315,0.3517504334449768,-0.0955389589071273,0.273208349943161,0.4055552780628204,-0.1016748771071434,0.2318896949291229,0.4588618576526642,-0.1090305745601654,0.4869593977928161,0.4772465825080871,-0.1012650951743125,0.3582930862903595,0.4709866642951965,-0.1282459199428558,0.2894123196601867,0.4900341033935547,-0.1407420784235,0.2393929362297058,0.5073848962783813,-0.1490763425827026
2023-08-01 16:06:08.130927,19,743,0.7439044713973999,0.0941593870520591,-0.030753893777728,0.660904049873352,-0.54541015625,0.81396484375,0.177734375,0.5723628997802734,0.7046366333961487,-1.0590135843813189e-06,0.452789694070816,0.6084392070770264,0.0353253260254859,0.3773869276046753,0.524206817150116,0.0294757988303899,0.3064800500869751,0.4822185039520263,0.0123060373589396,0.2485336512327194,0.4569296836853027,-0.0080274585634469,0.5123938918113708,0.328151524066925,-0.0003447472408879,0.3600736856460571,0.2952793538570404,-0.0218153893947601,0.2852497696876526,0.3481726050376892,-0.0387043803930282,0.2467492073774337,0.4045738279819488,-0.0502819679677486,0.5152164101600647,0.3452947735786438,-0.0334366597235202,0.3420234322547912,0.3028783202171325,-0.0494046472012996,0.2666254043579101,0.3593861758708954,-0.0615059062838554,0.2256537824869156,0.4226264953613281,-0.0745294541120529,0.500832200050354,0.3976102471351623,-0.0634262934327125,0.3330051898956299,0.3583256304264068,-0.0782181099057197,0.260807603597641,0.4077062010765075,-0.085205540060997,0.2179509103298187,0.458882600069046,-0.0946095585823059,0.468818187713623,0.4747443199157715,-0.0899863168597221,0.3408586680889129,0.4690963625907898,-0.1095570400357246,0.2761232852935791,0.4880385994911194,-0.1192484125494957,0.2294541001319885,0.5071313381195068,-0.1268349289894104
2023-08-01 16:06:08.193928,20,744,0.7439504265785217,0.0927034243941307,-0.0295498128980398,0.6611130833625793,-0.52392578125,0.87255859375,0.134765625,0.5433637499809265,0.7023027539253235,-1.0467816764503368e-06,0.4204093217849731,0.6108896136283875,0.0456968136131763,0.3451439440250397,0.5254071950912476,0.0477264337241649,0.2774098515510559,0.479879230260849,0.0373762808740139,0.2218499332666397,0.4602612555027008,0.0220197178423404,0.4631204307079315,0.3259687423706054,0.0083606159314513,0.3058101236820221,0.3088637888431549,-0.0043735508807003,0.2342350929975509,0.3703058063983917,-0.0138213690370321,0.1982232183218002,0.4230268895626068,-0.0214829612523317,0.4634012281894684,0.3398903608322143,-0.0289746820926666,0.2899006903171539,0.3052969574928283,-0.0398761183023452,0.2171323299407959,0.3675989508628845,-0.0470079369843006,0.177717313170433,0.4318183660507202,-0.0555496849119663,0.4489453732967376,0.3934085667133331,-0.0618021748960018,0.281099408864975,0.3599178791046142,-0.0731104761362075,0.2084203511476516,0.4126860797405243,-0.0776470005512237,0.1637689173221588,0.4591597020626068,-0.0851529240608215,0.4198229908943176,0.4759117066860199,-0.0901117920875549,0.2889360189437866,0.472890704870224,-0.1073556840419769,0.2253905087709427,0.4962818026542663,-0.1145059242844581,0.180445447564125,0.5131215453147888,-0.1199249029159545
2023-08-01 16:06:08.258738,21,745,0.7430116534233093,0.0904318019747734,-0.0296659171581268,0.6624768376350403,-0.486328125,0.82373046875,0.15478515625,0.52995765209198,0.7026070356369019,-1.1115621418866797e-06,0.4278366267681122,0.6076014041900635,0.0507050566375255,0.3560757935047149,0.5207656621932983,0.0539719499647617,0.2892043888568878,0.464727371931076,0.0446104630827903,0.2335227578878402,0.4417928755283355,0.0311060100793838,0.4533744156360626,0.3206695914268493,0.0119466390460729,0.2951936721801758,0.3058363497257232,0.0016575910849496,0.2247138321399688,0.3657120764255523,-0.0061593097634613,0.1913875937461853,0.4168962836265564,-0.0128129627555608,0.4550704956054687,0.3335723280906677,-0.0250630695372819,0.2778948843479156,0.3070618212223053,-0.0308808889240026,0.2112461924552917,0.3714609742164612,-0.0342211201786994,0.1779657155275344,0.4359080791473388,-0.0417344942688941,0.4410924315452575,0.3858023285865783,-0.0569110102951526,0.2703664600849151,0.3543150126934051,-0.0624836683273315,0.2043912261724472,0.4133822917938232,-0.0623690076172351,0.1664845198392868,0.465930312871933,-0.0685824602842331,0.411310464143753,0.4676061868667602,-0.0839720964431762,0.278760552406311,0.4746115803718567,-0.097745269536972,0.218309223651886,0.4975845515727997,-0.1036488190293312,0.1747805327177047,0.5123366117477417,-0.1091532632708549
2023-08-01 16:06:08.328264,22,746,0.7427173852920532,0.0884623527526855,-0.033069685101509,0.6629115343093872,-0.48779296875,0.80615234375,0.15283203125,0.5298150777816772,0.697821319103241,-1.1371905657142634e-06,0.4230118989944458,0.6028316020965576,0.0548750162124633,0.3507793247699737,0.519557774066925,0.0594039298593997,0.2836440503597259,0.4662935137748718,0.0500181391835212,0.2293581366539001,0.4408387541770935,0.0359321273863315,0.4443432688713074,0.3163685798645019,0.015645271167159,0.2859554886817932,0.3057558238506317,0.0043913586996495,0.2150833755731582,0.3684574961662292,-0.0042765201069414,0.1815181523561477,0.4219774603843689,-0.0111314300447702,0.4469029605388641,0.3303043842315674,-0.0240807812660932,0.2688613831996918,0.3069589138031006,-0.0312029514461755,0.2019355446100235,0.3730744123458862,-0.0349219441413879,0.1694174855947494,0.4406056404113769,-0.0420570857822895,0.4346417486667633,0.3840435147285461,-0.0585232377052307,0.2636476457118988,0.3575746417045593,-0.0644574016332626,0.1970346271991729,0.4163782596588135,-0.0638835653662681,0.1591130346059799,0.4683591723442077,-0.0693989992141723,0.4066939651966095,0.4674625694751739,-0.0879287645220756,0.2729954123497009,0.4737164676189422,-0.1011035963892936,0.2115024626255035,0.4961958825588226,-0.1060331836342811,0.167970523238182,0.5110435485839844,-0.1106094568967819
2023-08-01 16:06:08.399412,23,747,0.7429019808769226,0.0880687087774276,-0.0328102298080921,0.6627699732780457,-0.5107421875,0.82421875,0.1484375,0.5054041147232056,0.6850484609603882,-1.0980219258271973e-06,0.4722104966640472,0.5590478181838989,0.0648004338145256,0.432429701089859,0.4528796076774597,0.0772709250450134,0.399073839187622,0.3694911599159241,0.0739007145166397,0.3684573769569397,0.3305904865264892,0.06378685683012,0.4312962591648102,0.3089247047901153,0.021162137389183,0.2803009152412414,0.2907334566116333,0.0067621399648487,0.2107076495885849,0.34884113073349,-0.0017128403997048,0.1771992444992065,0.3942495882511139,-0.0067201666533946,0.424158364534378,0.3270667791366577,-0.0215654671192169,0.2517111897468567,0.2980677187442779,-0.0309066902846097,0.187342420220375,0.3617583215236664,-0.0301466807723045,0.1583133935928344,0.4271962344646454,-0.032221682369709,0.4052762985229492,0.3823214471340179,-0.0587204992771148,0.2439984679222107,0.3485377728939056,-0.0638028532266616,0.1762917339801788,0.4047408699989319,-0.0584521256387233,0.1378509551286697,0.4568646848201751,-0.0599010363221168,0.3774109184741974,0.4628500044345855,-0.090122178196907,0.2504022121429443,0.4674139320850372,-0.101929061114788,0.1936563551425933,0.4844599366188049,-0.1047584563493728,0.1521356105804443,0.4922356307506561,-0.1072604283690452
2023-08-01 16:06:08.454704,24,748,0.7432631254196167,0.0889114364981651,-0.0338953658938407,0.6621977090835571,-0.50634765625,0.849609375,0.17138671875,0.5015792846679688,0.6745997667312622,-1.1233462373638758e-06,0.4269287288188934,0.5645565390586853,0.0557438991963863,0.3740518093109131,0.4725324809551239,0.0606254525482654,0.3289345800876617,0.3966932296752929,0.0518446005880832,0.2904272079467773,0.3566345572471618,0.0377423949539661,0.4242800176143646,0.3005695343017578,0.0067559177987277,0.2660503983497619,0.2880288362503052,-0.0073545766063034,0.1970087885856628,0.3517541289329529,-0.0145894270390272,0.166795328259468,0.4062296748161316,-0.0189528372138738,0.4238679707050323,0.3185686469078064,-0.0324037224054336,0.2459372580051422,0.2944587171077728,-0.0417310930788517,0.1807900667190551,0.3620290756225586,-0.0422096587717533,0.1520523875951767,0.4293433129787445,-0.0464403517544269,0.4096852838993072,0.3743029832839966,-0.0657781362533569,0.2399004399776458,0.3465324640274048,-0.0721666291356086,0.1743448227643966,0.4068541824817657,-0.0686723068356514,0.1403974592685699,0.4607020318508148,-0.0723259225487709,0.3823364078998565,0.4573625326156616,-0.0939149856567382,0.2489212155342102,0.4634726345539093,-0.1072311550378799,0.1903307288885116,0.4850997626781463,-0.1114061698317527,0.1494535505771637,0.4970719814300537,-0.1155706271529197
2023-08-01 16:06:08.522729,25,749,0.7429624199867249,0.0910124704241752,-0.0354283899068832,0.6621695160865784,-0.4921875,0.85009765625,0.1923828125,0.5004531145095825,0.6695655584335327,-1.1391380212444346e-06,0.4186419248580932,0.5675656795501709,0.0528937429189682,0.3583555221557617,0.4773851633071899,0.0575328059494495,0.3051805198192596,0.4064928889274597,0.0495103001594543,0.2581890523433685,0.3719260990619659,0.0366283133625984,0.4229084253311157,0.3040133714675903,0.007154828403145,0.2648248970508575,0.2859661281108856,-0.0090236226096749,0.1940785348415374,0.3484992384910583,-0.0192225836217403,0.1652028262615203,0.4042783975601196,-0.0255740750581026,0.4225955903530121,0.3215259313583374,-0.030342387035489,0.2469495683908462,0.2939386963844299,-0.0398149639368057,0.1819027811288833,0.3621975779533386,-0.0423605181276798,0.1546450555324554,0.4282379746437073,-0.0483403019607067,0.4088460803031921,0.3753115832805633,-0.062660127878189,0.2415946274995803,0.341764360666275,-0.0697187930345535,0.1745775192975998,0.4024750590324402,-0.0687407553195953,0.1399916410446167,0.4561736583709717,-0.074109748005867,0.3815653026103973,0.4569460451602936,-0.0898958444595336,0.2479659020900726,0.464508056640625,-0.103418618440628,0.1884590983390808,0.4868474900722503,-0.1088182628154754,0.147254467010498,0.4993053674697876,-0.1139915511012077
2023-08-01 16:06:08.582393,26,750,0.741651177406311,0.0947797074913978,-0.0392015911638736,0.6628978252410889,-0.470703125,0.83447265625,0.19921875,0.5030760169029236,0.675304114818573,-1.217879912474018e-06,0.4396191835403442,0.563094437122345,0.0686082020401954,0.3824491500854492,0.470982939004898,0.0814432650804519,0.3265272378921509,0.4039652347564697,0.0788895934820175,0.2723039984703064,0.380977064371109,0.0700091496109962,0.4290648102760315,0.3054234981536865,0.0162573046982288,0.2687962055206299,0.2902639508247375,0.006780344992876,0.1982501894235611,0.3531294763088226,0.0033411884214729,0.1685687750577926,0.4065243303775787,0.0012676838086917,0.4263480305671692,0.3232633471488952,-0.027269409969449,0.2468932569026947,0.2978746891021728,-0.0304122008383274,0.1810234785079956,0.3654741644859314,-0.0263824723660945,0.153325468301773,0.4344229400157928,-0.0279020201414823,0.4102656543254852,0.3795041739940643,-0.063890665769577,0.2399810701608657,0.3492234945297241,-0.0645157545804977,0.1733335256576538,0.4094454050064087,-0.0577846020460128,0.1392248719930648,0.4632500410079956,-0.0599911138415336,0.3809794187545776,0.464303582906723,-0.0942200124263763,0.2498646527528762,0.4685023725032806,-0.1044743582606315,0.1908048391342163,0.4878498315811157,-0.1071681529283523,0.1495359092950821,0.4989098310470581,-0.1103673055768013
2023-08-01 16:06:08.649774,27,751,0.7406160235404968,0.100180834531784,-0.0413323529064655,0.6631312966346741,-0.48828125,0.83544921875,0.1650390625,0.5096701979637146,0.6750207543373108,-1.1358544043105212e-06,0.4262124896049499,0.5707716941833496,0.0553620569407939,0.361857533454895,0.4796148836612701,0.061556626111269,0.3020989298820495,0.4137480854988098,0.0542781576514244,0.2491631507873535,0.3837710618972778,0.0419644340872764,0.4283364713191986,0.3019065260887146,0.0137716196477413,0.2685043215751648,0.2912242412567138,0.0002018044760916,0.1971639692783355,0.3546915054321289,-0.009649951942265,0.1665303707122802,0.4093653261661529,-0.0163730792701244,0.4275075793266296,0.3190515041351318,-0.0250836741179227,0.2510415315628052,0.2970136702060699,-0.0316748134791851,0.1857796609401703,0.3659111857414245,-0.0340271927416324,0.1569072902202606,0.4326347708702087,-0.0401765927672386,0.4129506349563598,0.3737630248069763,-0.05869010835886,0.2453736960887909,0.3440032005310058,-0.0636982545256614,0.1790690720081329,0.4057628512382507,-0.0623075328767299,0.1439058035612106,0.4597468674182892,-0.0675917938351631,0.384206473827362,0.4582346975803375,-0.0871446132659912,0.2521739602088928,0.4672314822673797,-0.0999408513307571,0.1938464939594268,0.4902413487434387,-0.1046711951494216,0.1530870050191879,0.5043219327926636,-0.1091801449656486
2023-08-01 16:06:08.707183,28,752,0.7395802736282349,0.1068888083100318,-0.0433486625552177,0.6631113290786743,-0.48095703125,0.83642578125,0.15771484375,0.5135130882263184,0.6775829792022705,-1.1349663964210777e-06,0.4260833859443664,0.5835492610931396,0.0536280535161495,0.3607427179813385,0.4993728697299957,0.059940543025732,0.2996008992195129,0.4390921592712402,0.0528581999242305,0.2492229044437408,0.411203920841217,0.0408596992492675,0.4308530986309051,0.3049720823764801,0.0148024447262287,0.2753922939300537,0.2937417924404144,0.0018830201588571,0.2029541730880737,0.3563840985298157,-0.0085838614031672,0.1690087765455246,0.4113683402538299,-0.0157313663512468,0.4307347238063812,0.318451464176178,-0.0224724039435386,0.2573665380477905,0.2949146926403045,-0.0284605249762535,0.1897506415843963,0.3612618148326874,-0.0318491123616695,0.157399833202362,0.4275576174259186,-0.0387448891997337,0.4175955355167389,0.3721874058246612,-0.054630372673273,0.2526301145553589,0.3442018330097198,-0.0595198608934879,0.1853368133306503,0.4026070833206177,-0.0587349906563758,0.1471869200468063,0.4554812610149383,-0.0641348287463188,0.388816088438034,0.4577477574348449,-0.0818294063210487,0.2590457201004028,0.4653594195842743,-0.0935516133904457,0.1992782354354858,0.488167256116867,-0.097703643143177,0.1561364382505417,0.503456711769104,-0.1017990633845329
2023-08-01 16:06:08.771695,29,753,0.7381958961486816,0.1144593954086303,-0.0460879877209663,0.6632056832313538,-0.48486328125,0.8310546875,0.14111328125,0.5446181297302246,0.6820479035377502,-1.119456328524393e-06,0.4237405061721802,0.5953719019889832,0.0350698828697204,0.34458988904953,0.5105385780334473,0.0291485302150249,0.2761044204235077,0.4660218954086303,0.0124889826402068,0.2218620479106903,0.434609055519104,-0.0070686782710254,0.470890462398529,0.3081246614456177,-0.0050646741874516,0.3152267336845398,0.2931072115898132,-0.0289960913360118,0.2413403987884521,0.3476655781269073,-0.0463987849652767,0.202873945236206,0.4003413021564483,-0.05778019875288,0.4748128652572632,0.3254974782466888,-0.0384349860250949,0.2987405359745025,0.2936868965625763,-0.0585735067725181,0.2249590307474136,0.3575502932071686,-0.0690982937812805,0.1867000162601471,0.4250176846981048,-0.0793854147195816,0.4622470438480377,0.3784838914871216,-0.0685812830924987,0.2943481802940368,0.343919575214386,-0.0866094157099723,0.2236306369304657,0.3976169526576996,-0.0899981707334518,0.1835581511259079,0.4491705596446991,-0.0953628420829773,0.4340103566646576,0.4573671221733093,-0.0951748266816139,0.3056448698043823,0.4487561285495758,-0.1167472153902053,0.2383455038070678,0.471233993768692,-0.124456375837326,0.1905472725629806,0.4912457764148712,-0.1296473890542984
2023-08-01 16:06:08.833211,30,754,0.7368521094322205,0.1215493977069854,-0.0480240695178508,0.6633011698722839,-0.47021484375,0.849609375,0.16015625,0.552972137928009,0.6828576922416687,-1.1056597486458486e-06,0.4351171255111694,0.5939453840255737,0.0382959507405757,0.3584334850311279,0.512287974357605,0.033370666205883,0.2904452979564667,0.4675480723381042,0.0174391716718673,0.2365752607583999,0.4368389546871185,-0.0014818108174949,0.485795646905899,0.3130104541778564,-0.0062283556908369,0.3323083221912384,0.2886492609977722,-0.0284291189163923,0.2597323060035705,0.3475506007671356,-0.0440766550600528,0.2233964800834655,0.4061164855957031,-0.0545982979238033,0.4902389645576477,0.3250433206558227,-0.0406471453607082,0.3124328851699829,0.2858570218086242,-0.0581325069069862,0.2430652678012848,0.3478998839855194,-0.0659390240907669,0.2083578705787658,0.4171827733516693,-0.0748042911291122,0.4780722558498382,0.376255065202713,-0.0712837502360344,0.3071531057357788,0.3403123617172241,-0.0863861814141273,0.2395304441452026,0.3913050889968872,-0.0882717370986938,0.2005257904529571,0.4441503286361694,-0.0936996489763259,0.4497868418693542,0.4543617069721222,-0.0982180535793304,0.3201461434364319,0.451597660779953,-0.119637481868267,0.2526886463165283,0.4736529886722564,-0.1280928552150726,0.2035930007696151,0.4944799244403839,-0.1340597718954086
2023-08-01 16:06:08.893019,31,755,0.7352926731109619,0.1289326548576355,-0.0507241338491439,0.6634365916252136,-0.48388671875,0.83642578125,0.16357421875,0.5703765153884888,0.680517315864563,-1.1116153473267332e-06,0.4498912096023559,0.5941587686538696,0.037198968231678,0.375549167394638,0.5129470229148865,0.030379856005311,0.3086593747138977,0.4686844050884247,0.0123435780405998,0.2550889849662781,0.4375965595245361,-0.0088172387331724,0.500469982624054,0.3114816546440124,-0.0080596515908837,0.3484764993190765,0.2870968580245971,-0.0338750481605529,0.2738063931465149,0.3416708111763,-0.0518373288214206,0.2330178171396255,0.3981276750564575,-0.0635332986712455,0.5035374164581299,0.3262852430343628,-0.0432011075317859,0.3260517120361328,0.2864269018173218,-0.0647412464022636,0.2541751265525818,0.3475212156772613,-0.0745622515678405,0.2164500504732132,0.4160445034503937,-0.084473967552185,0.4907227158546448,0.3793481588363647,-0.0749644264578819,0.3204718828201294,0.3437385857105255,-0.0936441868543624,0.2513825893402099,0.3930006027221679,-0.0965664088726043,0.2110409289598465,0.4429551959037781,-0.1022421643137931,0.4632441401481628,0.4569154381752014,-0.1031966060400009,0.3374698758125305,0.4487368166446686,-0.1269439160823822,0.2690446674823761,0.4661833345890045,-0.136633425951004,0.2180502563714981,0.4817909002304077,-0.143486350774765
2023-08-01 16:06:08.955984,32,756,0.734399676322937,0.1370178312063217,-0.0527491904795169,0.6626467704772949,-0.47216796875,0.84765625,0.16015625,0.5779518485069275,0.6760581731796265,-1.0919292208200204e-06,0.4591917097568512,0.5909819006919861,0.0311249867081642,0.3853137493133545,0.5126177668571472,0.0218236204236745,0.318349689245224,0.4702572226524353,0.0026764057110995,0.2643763124942779,0.439839631319046,-0.0189736317843198,0.5150312781333923,0.3106749057769775,-0.0155406231060624,0.3656940162181854,0.2785012423992157,-0.0452355742454528,0.2897531390190124,0.3340694606304168,-0.0650467574596405,0.2497719824314117,0.3923876881599426,-0.0779077634215354,0.5186886191368103,0.3255196213722229,-0.0485199876129627,0.3422263860702514,0.2804296612739563,-0.0752675831317901,0.2694641351699829,0.3436752557754516,-0.0877669528126716,0.2324559390544891,0.4117841124534607,-0.0989084914326667,0.5060411095619202,0.377942144870758,-0.0786967352032661,0.3353632986545563,0.340582013130188,-0.1031807512044906,0.2649779319763183,0.3927401602268219,-0.109833039343357,0.2243343740701675,0.4444191455841064,-0.1170451194047927,0.4788672029972076,0.4545564949512481,-0.1054776608943939,0.353811651468277,0.4505615234375,-0.1341843158006668,0.2832012176513672,0.4701087176799774,-0.1477724760770797,0.2303489446640014,0.4871244430541992,-0.1570010930299759
2023-08-01 16:06:09.010723,33,757,0.7338184118270874,0.146009936928749,-0.0536235198378562,0.6612988114356995,-0.4814453125,0.8564453125,0.11328125,0.6334143877029419,0.6834375262260437,-1.1112483662145678e-06,0.5145102143287659,0.6029030084609985,0.0184237863868474,0.4376155734062195,0.5127788782119751,0.0050798594020307,0.3704184889793396,0.4583930373191833,-0.016229985281825,0.3142440915107727,0.4211315810680389,-0.0387704968452453,0.566038191318512,0.3148595988750458,-0.0199373513460159,0.4202562868595123,0.264274001121521,-0.0594199709594249,0.3434850573539734,0.3134544789791107,-0.0860394686460495,0.307373046875,0.3694648146629333,-0.1018143221735954,0.5779411792755127,0.3310733735561371,-0.0488644167780876,0.4063920974731445,0.2710830271244049,-0.085469014942646,0.3350329399108886,0.3366947770118713,-0.1012652069330215,0.3023503422737121,0.4036263227462768,-0.1108894720673561,0.5718002319335938,0.3816726207733154,-0.0773934721946716,0.4089184999465942,0.3279750943183899,-0.1090497076511383,0.3358121216297149,0.3808588087558746,-0.1160089671611785,0.2940254807472229,0.4318155944347381,-0.1197587475180625,0.54865562915802,0.4576750695705414,-0.1038202866911888,0.4316731691360473,0.4495065212249756,-0.1330138593912124,0.3656928539276123,0.4627683162689209,-0.1455634981393814,0.3169510662555694,0.4719967842102051,-0.1524596214294433
2023-08-01 16:06:09.079971,34,758,0.7329705953598022,0.1558077931404113,-0.0554147250950336,0.6598538756370544,-0.4677734375,0.861328125,0.13330078125,0.6526691317558289,0.6847931146621704,-1.068618530553067e-06,0.531511664390564,0.5945889949798584,0.0256165973842144,0.4560589790344238,0.5038619041442871,0.0131706781685352,0.3897388875484466,0.4490455985069275,-0.0091060157865285,0.3353007733821869,0.4061731100082397,-0.0331396870315074,0.5852025747299194,0.3095589280128479,-0.0148585056886076,0.4367505311965942,0.2613663077354431,-0.0519239418208599,0.3558160662651062,0.3050433993339538,-0.0777610763907432,0.3121781051158905,0.3553129732608795,-0.0932435169816017,0.5968154072761536,0.3300684094429016,-0.0480276867747306,0.4237770140171051,0.2704395651817322,-0.0792741477489471,0.3481497764587402,0.3313853740692138,-0.0936929136514663,0.3106086850166321,0.3936733305454254,-0.104515217244625,0.5915088057518005,0.3843445777893066,-0.0799782425165176,0.4276543855667114,0.3325507342815399,-0.1059037446975708,0.3529442250728607,0.3830688893795013,-0.1111817583441734,0.308954656124115,0.4319483041763305,-0.1161045208573341,0.5700663924217224,0.4611440300941467,-0.1096184030175209,0.4521052241325378,0.4463756680488586,-0.133857324719429,0.3833830952644348,0.4595971405506134,-0.1437382847070694,0.3316668272018432,0.4715547859668731,-0.1501767933368683
2023-08-01 16:06:09.141634,35,759,0.7321621179580688,0.1632302552461624,-0.0564696304500103,0.6588669419288635,-0.45703125,0.8671875,0.115234375,0.6680470705032349,0.6832605004310608,-1.0474536793481093e-06,0.5457055568695068,0.5932612419128418,0.0262883156538009,0.4746403098106384,0.5048872232437134,0.0146872019395232,0.4117313325405121,0.4502085149288177,-0.0070492499507963,0.3595985174179077,0.4081502854824066,-0.0308138690888881,0.6007587909698486,0.3126009404659271,-0.0116666117683053,0.4518126547336578,0.259448230266571,-0.0481650605797767,0.3705278038978576,0.2985594272613525,-0.0746383890509605,0.3266955018043518,0.3470501601696014,-0.0900619849562645,0.6122997999191284,0.3331508040428161,-0.0437180362641811,0.4407905340194702,0.2721323668956756,-0.0723987892270088,0.3628160357475281,0.3278259038925171,-0.087690070271492,0.3231182694435119,0.3865830898284912,-0.099941000342369,0.6071457862854004,0.3851456046104431,-0.0745265483856201,0.4475246667861938,0.3350075483322143,-0.0981306359171867,0.3727107048034668,0.3852720856666565,-0.1047156155109405,0.3290802836418152,0.4352308213710785,-0.1110456213355064,0.5862413644790649,0.4586789011955261,-0.1031079739332199,0.4709928333759308,0.4459985494613647,-0.1244828030467033,0.4036862552165985,0.4623549580574035,-0.1337200254201889,0.3536204993724823,0.4789452254772186,-0.1401135921478271
2023-08-01 16:06:09.219141,36,760,0.7311803698539734,0.1723792105913162,-0.0581402704119682,0.6574802994728088,-0.47021484375,0.859375,0.1044921875,0.7236286997795105,0.6960185766220093,-1.193702132695762e-06,0.6000147461891174,0.5959488153457642,0.0210127923637628,0.5260440111160278,0.5105818510055542,0.0047879703342914,0.4593992531299591,0.4634771347045898,-0.0222046356648206,0.4046946167945862,0.4228648543357849,-0.0521790646016597,0.656099259853363,0.3087744116783142,-0.0086431112140417,0.5071051120758057,0.2832648158073425,-0.0512338913977146,0.4278388917446136,0.3235951066017151,-0.0863559022545814,0.3813371658325195,0.3690968751907348,-0.1099358275532722,0.6766681671142578,0.324757307767868,-0.0443956069648265,0.5038541555404663,0.286329984664917,-0.0836440399289131,0.4268065094947815,0.347834438085556,-0.1124282851815223,0.3797034919261932,0.4039645493030548,-0.134806141257286,0.6802297830581665,0.3767383396625519,-0.0798577740788459,0.5229267477989197,0.3288929760456085,-0.1178541406989097,0.4440558552742004,0.3856046795845032,-0.1342063695192337,0.3908647894859314,0.4367920458316803,-0.1457057744264602,0.666317343711853,0.4560074508190155,-0.1128258779644966,0.5428887605667114,0.4541141986846924,-0.1487252414226532,0.4731947481632232,0.469070553779602,-0.1657794266939163,0.4181922078132629,0.4769788384437561,-0.1767493635416031
2023-08-01 16:06:09.299394,37,761,0.7301599383354187,0.180692508816719,-0.0601469054818153,0.6562003493309021,-0.498046875,0.8544921875,0.1044921875,0.7381772994995117,0.6868789792060852,-1.0511223536013858e-06,0.6170011758804321,0.5831998586654663,0.0203355886042118,0.5422353148460388,0.4945064783096313,0.0062354016117751,0.4796826243400574,0.4434374272823334,-0.0171721298247575,0.4323859214782715,0.4006530940532684,-0.0427702777087688,0.6765832901000977,0.3105330467224121,-0.0097486833110451,0.5343092679977417,0.2875824570655823,-0.0471242293715477,0.4598729610443115,0.3324973583221435,-0.078032873570919,0.4187360405921936,0.3795040547847748,-0.0985703542828559,0.6922125220298767,0.3287022411823272,-0.0424054041504859,0.5300971865653992,0.2869969606399536,-0.0760088711977005,0.4540272653102875,0.3464009761810303,-0.100252978503704,0.4090563654899597,0.4042099714279175,-0.1185704320669174,0.6917651295661926,0.3809305131435394,-0.0743284299969673,0.5421967506408691,0.3327208757400512,-0.1050648763775825,0.4637680649757385,0.3809731602668762,-0.1190942749381065,0.4120460748672485,0.4275159537792206,-0.1294529438018798,0.6741441488265991,0.460047960281372,-0.1039123088121414,0.5530742406845093,0.4571143984794616,-0.1332825273275375,0.4849609136581421,0.4718316793441772,-0.1472945809364318,0.4331178069114685,0.48141610622406,-0.1561715304851532
2023-08-01 16:06:09.380838,38,762,0.7289251089096069,0.1905728131532669,-0.0626440644264221,0.6545425057411194,-0.4921875,0.84619140625,0.107421875,0.7743837833404541,0.6889601945877075,-1.1178580052728648e-06,0.6597612500190735,0.5925672054290771,0.0078413896262645,0.5804435610771179,0.5071824193000793,-0.010605645366013,0.5159041285514832,0.4606860280036926,-0.0361692383885383,0.4697264432907104,0.4154388308525085,-0.0629217699170112,0.7235749959945679,0.312233418226242,-0.0183912683278322,0.5893522500991821,0.289413183927536,-0.0629905760288238,0.5140644311904907,0.3323316574096679,-0.0983149334788322,0.4704504609107971,0.3800873756408691,-0.1209445223212242,0.7472212314605713,0.3321554064750671,-0.0468258410692215,0.5899423956871033,0.2929379343986511,-0.0902668088674545,0.5139675736427307,0.3527806103229522,-0.1194510385394096,0.467651903629303,0.4127282798290252,-0.1385812759399414,0.7539446353912354,0.3852596580982208,-0.0761316642165184,0.607376217842102,0.3432194888591766,-0.1165258288383483,0.5283751487731934,0.3887852132320404,-0.1326784640550613,0.4746372699737549,0.4340198636054992,-0.1410697996616363,0.7430015802383423,0.4643765985965729,-0.1038175597786903,0.6224871873855591,0.4608035683631897,-0.1404469162225723,0.5542724132537842,0.4707318246364593,-0.1557487547397613,0.5010402798652649,0.4750653803348541,-0.1629555374383926
2023-08-01 16:06:09.458215,39,763,0.727583110332489,0.197244256734848,-0.0622369907796382,0.6540979146957397,-0.48486328125,0.84423828125,0.1103515625,0.7814258337020874,0.6895344257354736,-1.0446458418300608e-06,0.667778730392456,0.5963897705078125,0.0034646587446331,0.5906502604484558,0.5122650861740112,-0.0157473273575305,0.5303992629051208,0.4630273282527923,-0.0416716933250427,0.4938052892684936,0.4176870286464691,-0.0678719580173492,0.7380324006080627,0.3205089569091797,-0.0172697212547063,0.6122115850448608,0.2893358170986175,-0.0629735961556434,0.5366219878196716,0.3272134065628052,-0.1001856848597526,0.488599419593811,0.3733562529087066,-0.1232103481888771,0.76097172498703,0.3397578597068786,-0.0427700020372867,0.6082239747047424,0.2950682640075683,-0.0854530334472656,0.5312336683273315,0.3485999703407287,-0.1159670799970626,0.4839385151863098,0.4036154150962829,-0.1356317996978759,0.7665568590164185,0.3883801698684692,-0.06986915320158,0.6201629042625427,0.3488419950008392,-0.1079677268862724,0.5414701104164124,0.3920871019363403,-0.1254473328590393,0.4890263080596924,0.4362002313137054,-0.1344358026981353,0.7537620663642883,0.4621663987636566,-0.096152164041996,0.6315779089927673,0.4561662971973419,-0.1286463737487793,0.5648811459541321,0.4673963487148285,-0.143183097243309,0.5153977870941162,0.478179395198822,-0.1497910171747207
2023-08-01 16:06:09.536307,40,764,0.7259388566017151,0.2055839449167251,-0.0645953640341758,0.6531274914741516,-0.447265625,0.8466796875,0.1181640625,0.7914336919784546,0.6930334568023682,-1.0472479061718332e-06,0.6813923716545105,0.5993547439575195,0.001337555469945,0.6035714149475098,0.5144763588905334,-0.0203220210969448,0.5416533946990967,0.4679192006587982,-0.0488121435046196,0.4994161128997803,0.4259542226791382,-0.0775583460927009,0.7457068562507629,0.3247968554496765,-0.0172613337635993,0.6202166676521301,0.2919961214065552,-0.067765861749649,0.5445250272750854,0.330750435590744,-0.109421469271183,0.4951084852218628,0.3797720670700073,-0.1350393146276474,0.7706090807914734,0.3419451415538788,-0.0438314862549304,0.6183373928070068,0.29328253865242,-0.0913988202810287,0.5407427549362183,0.3539918959140777,-0.125218316912651,0.4936287999153137,0.4152180552482605,-0.1458878815174102,0.7789457440376282,0.3898963034152984,-0.0726220682263374,0.6374660134315491,0.3404921889305115,-0.1141977161169052,0.5584803223609924,0.3908578157424927,-0.1325582414865493,0.5066306591033936,0.4408555030822754,-0.1409697085618972,0.7688201665878296,0.4642264246940613,-0.1009185463190078,0.6510456204414368,0.4563309848308563,-0.1362875550985336,0.5847029089927673,0.4680598974227905,-0.1517954766750335,0.5357391834259033,0.4781512916088104,-0.1584052890539169
2023-08-01 16:06:09.594089,41,765,0.7246906757354736,0.2118627429008484,-0.066606231033802,0.6523045301437378,-0.4306640625,0.8525390625,0.12548828125,0.8198007941246033,0.6994022727012634,-1.099242695090652e-06,0.7247859239578247,0.6059741973876953,-0.0013337591663002,0.6542177796363831,0.5160182118415833,-0.0199705846607685,0.5927636027336121,0.4654398262500763,-0.0449663624167442,0.5465730428695679,0.4211523830890655,-0.0699934661388397,0.7843838334083557,0.327572226524353,-0.0097710182890295,0.6657474637031555,0.2932451665401459,-0.0569080226123333,0.5899432897567749,0.3256230652332306,-0.0969742611050605,0.5411012768745422,0.3678717017173767,-0.1217247545719146,0.8141396045684814,0.3427550494670868,-0.0338006280362606,0.6700471043586731,0.2961319386959076,-0.0781842768192291,0.5905128121376038,0.3517243862152099,-0.111167587339878,0.5396472811698914,0.4077613353729248,-0.1309288889169693,0.8275949954986572,0.3893978595733642,-0.0607792399823665,0.691510796546936,0.3407829403877258,-0.1034697070717811,0.6116920709609985,0.3897792100906372,-0.1213576421141624,0.5587320923805237,0.4370882213115692,-0.1281110346317291,0.8211183547973633,0.4621155261993408,-0.0873956233263015,0.7027555704116821,0.4541537165641784,-0.1252536475658416,0.6376360654830933,0.4677703082561493,-0.1398035883903503,0.5897007584571838,0.479909598827362,-0.1443402916193008
2023-08-01 16:06:09.651744,42,766,0.7237155437469482,0.2146884500980377,-0.066746100783348,0.6524490118026733,-0.5126953125,0.84521484375,0.07275390625,0.8424317240715027,0.696155846118927,-1.0190257171416306e-06,0.7380300760269165,0.6051197648048401,-0.0016873148269951,0.6642850637435913,0.5158237218856812,-0.0215852428227663,0.6051390767097473,0.4654476344585418,-0.0477106422185897,0.5637727379798889,0.4171034097671509,-0.0739948451519012,0.8012012243270874,0.3273609280586242,-0.0107793128117918,0.6810320615768433,0.2917051911354065,-0.060389444231987,0.6052377820014954,0.3211544454097748,-0.1026722341775894,0.5528897047042847,0.3618057370185852,-0.127968743443489,0.8305676579475403,0.34698486328125,-0.0347644388675689,0.6853217482566833,0.2930796146392822,-0.0803059786558151,0.6056314706802368,0.3441316187381744,-0.1136858686804771,0.5549072027206421,0.3973967730998993,-0.1335431039333343,0.8418089747428894,0.3946687579154968,-0.0620328560471534,0.7083495855331421,0.3421293497085571,-0.1050720810890197,0.627446711063385,0.3867541253566742,-0.1240899562835693,0.57325279712677,0.4310431778430938,-0.1315265893936157,0.832065999507904,0.4656448066234588,-0.0889527201652526,0.716575562953949,0.4514836072921753,-0.1248671188950538,0.6505930423736572,0.463797003030777,-0.1390222311019897,0.6012678742408752,0.4747308194637298,-0.1436968296766281
2023-08-01 16:06:09.717085,43,767,0.7222874164581299,0.2208661437034607,-0.0691057443618774,0.6517234444618225,-0.427734375,0.86181640625,0.10498046875,0.8456432819366455,0.7002151012420654,-9.980594768421724e-07,0.7454780340194702,0.6041033267974854,-0.0027818568050861,0.6731331944465637,0.514907717704773,-0.0230289250612258,0.614126980304718,0.4649888277053833,-0.0491577088832855,0.576118528842926,0.4132649600505829,-0.0751373842358589,0.808546245098114,0.3275359272956848,-0.0103174028918147,0.6924147009849548,0.2963233292102813,-0.0611676350235939,0.6171461343765259,0.3223211765289306,-0.1049827486276626,0.5626408457756042,0.3610144853591919,-0.131308376789093,0.8387820720672607,0.3445528447628021,-0.0343679040670394,0.6973815560340881,0.2934595942497253,-0.0801600143313407,0.6176296472549438,0.3373199999332428,-0.1151354163885116,0.5635107159614563,0.386515736579895,-0.1364771574735641,0.8522905111312866,0.3910925090312958,-0.0619085691869258,0.7206633687019348,0.3429337441921234,-0.1055905222892761,0.6406904458999634,0.3834975063800812,-0.1255583614110946,0.5849298238754272,0.42442786693573,-0.1337319463491439,0.8449733853340149,0.4631572365760803,-0.0892840325832367,0.7295696139335632,0.4537336230278015,-0.1261254101991653,0.6648743152618408,0.4657542109489441,-0.1405850350856781,0.6161189079284668,0.4760024845600128,-0.145376369357109
2023-08-01 16:06:09.779570,44,768,0.7215555310249329,0.2269369810819625,-0.0699009075760841,0.6503622531890869,-0.40185546875,0.8720703125,0.10888671875,0.8587511777877808,0.698689341545105,-1.0020975196312063e-06,0.7586154937744141,0.604707658290863,-0.0011534019140526,0.6852256059646606,0.5156349539756775,-0.020736364647746,0.6264956593513489,0.4654553532600403,-0.046628788113594,0.5869186520576477,0.4111358523368835,-0.0725454911589622,0.8200979828834534,0.3294081389904022,-0.0095689138397574,0.702959418296814,0.2966204285621643,-0.0589902102947235,0.6284247636795044,0.3221576809883117,-0.101358063519001,0.5759780406951904,0.3599936962127685,-0.126791626214981,0.8508369326591492,0.3477362096309662,-0.0339926518499851,0.7079102396965027,0.2961206436157226,-0.078399121761322,0.6282649040222168,0.3406900465488434,-0.1119189038872718,0.5762008428573608,0.3891578912734985,-0.1324411481618881,0.8641456365585327,0.39484903216362,-0.0618236549198627,0.7326948642730713,0.3455173373222351,-0.1045825630426406,0.6515275239944458,0.3842180073261261,-0.1239486113190651,0.5961987376213074,0.4242527484893799,-0.131887212395668,0.8560181856155396,0.4659599661827087,-0.0893128886818885,0.7426004409790039,0.4524403214454651,-0.125743493437767,0.6769753694534302,0.4627061188220978,-0.1402368247509002,0.6273462176322937,0.4729556441307068,-0.1450928151607513
2023-08-01 16:06:09.837145,45,769,0.7214080691337585,0.231347769498825,-0.0694542899727821,0.6490182876586914,-0.4482421875,0.86083984375,0.06005859375,0.8874021768569946,0.7052546143531799,-1.031580040944391e-06,0.7979191541671753,0.6067703366279602,-0.0048098932020366,0.7300564646720886,0.5177515745162964,-0.0257672276347875,0.6712610721588135,0.4670215249061584,-0.0525973923504352,0.6305851340293884,0.4186839759349823,-0.0793113484978675,0.8611320853233337,0.3371230065822601,-0.0125704407691955,0.7492772936820984,0.304848700761795,-0.0616919621825218,0.6775133013725281,0.3333470225334167,-0.1034343093633651,0.6301513314247131,0.3705666363239288,-0.1295917928218841,0.8927587866783142,0.3534239530563354,-0.0360844507813453,0.7581716775894165,0.3082348704338074,-0.0828597843647003,0.6816184520721436,0.3550922572612762,-0.1175296604633331,0.6324341893196106,0.4053115248680115,-0.1383436024188995,0.9083464741706848,0.4001964330673218,-0.0630869567394256,0.7828729152679443,0.3554140329360962,-0.1094132140278816,0.7048956155776978,0.3947750926017761,-0.1289152652025222,0.6535700559616089,0.4354878067970276,-0.136136382818222,0.9044475555419922,0.4709734618663788,-0.0899153426289558,0.7931988835334778,0.4624916613101959,-0.1312304586172104,0.7311124205589294,0.4733274579048157,-0.1469040960073471,0.6861274838447571,0.4826250970363617,-0.1515898257493972
2023-08-01 16:06:09.898310,46,770,0.7212945818901062,0.2359530627727508,-0.0697210803627967,0.6474559307098389,-0.46728515625,0.8642578125,0.0849609375,0.9045121669769288,0.704448401927948,-9.467995596423862e-07,0.8084030151367188,0.6087672710418701,-0.004389826208353,0.7368036508560181,0.5175023674964905,-0.0250752605497837,0.678101122379303,0.4681145846843719,-0.0517315976321697,0.6414310932159424,0.414985716342926,-0.078241541981697,0.8706074953079224,0.339419424533844,-0.0104584190994501,0.7613842487335205,0.304197609424591,-0.0612348094582557,0.6899317502975464,0.3268540501594543,-0.1047671809792518,0.6376202702522278,0.3630022704601288,-0.1310505419969558,0.9026025533676147,0.3595109581947326,-0.0340960957109928,0.7675427794456482,0.303286612033844,-0.0822734981775283,0.6921692490577698,0.3470657169818878,-0.1182915940880775,0.644305408000946,0.3970985412597656,-0.1392045021057129,0.9178797006607056,0.406992644071579,-0.0615012645721435,0.7940893173217773,0.3574151694774627,-0.1086135059595108,0.7161036729812622,0.3948427438735962,-0.1305286884307861,0.6643434166908264,0.4353007972240448,-0.1385411024093628,0.912253201007843,0.4761686027050018,-0.0886178016662597,0.8038381934165955,0.460241287946701,-0.1285006254911422,0.739022433757782,0.4708261489868164,-0.1443251967430114,0.6904510855674744,0.4831686317920685,-0.14910988509655
2023-08-01 16:06:09.963512,47,771,0.7210561037063599,0.2405676841735839,-0.0710497200489044,0.6458771228790283,-0.43017578125,0.857421875,0.10107421875,0.9203369617462158,0.7090764045715332,-9.769207736098906e-07,0.8330531716346741,0.6134523153305054,-0.0095288641750812,0.7667093276977539,0.5266007781028748,-0.0309474691748619,0.7060046792030334,0.4754641652107239,-0.0574538893997669,0.6667104959487915,0.4214713871479034,-0.0827930718660354,0.8974785208702087,0.3497826159000397,-0.0097827855497598,0.7947825193405151,0.3104783296585083,-0.0572800450026989,0.7269325256347656,0.3370620012283325,-0.0981612876057624,0.6816058158874512,0.3731582760810852,-0.1237863898277282,0.9304727911949158,0.3652257025241852,-0.0291629303246736,0.8022264242172241,0.3166079521179199,-0.0759150832891464,0.7307241559028625,0.3605896234512329,-0.111763946712017,0.6838847994804382,0.4062314927577972,-0.1327185183763504,0.9487268328666688,0.4081841707229614,-0.0524793043732643,0.8264749050140381,0.3628480434417724,-0.0989248156547546,0.7512339949607849,0.3998280167579651,-0.1197306215763092,0.6987200975418091,0.4385762214660644,-0.1269716173410415,0.946528434753418,0.473794162273407,-0.0760940164327621,0.8377522826194763,0.4653308689594269,-0.1170855984091758,0.7764531970024109,0.4758880138397217,-0.1337669342756271,0.7299090623855591,0.4865056276321411,-0.1385809481143951
2023-08-01 16:06:10.028146,48,772,0.7207217812538147,0.2444479018449783,-0.0709250941872596,0.6448060870170593,-0.46826171875,0.87548828125,0.0791015625,0.9262917041778564,0.704818844795227,-9.625414350011852e-07,0.839306116104126,0.6163811087608337,-0.012723327614367,0.773357093334198,0.5264840722084045,-0.0351593382656574,0.717432975769043,0.4728287160396576,-0.0611686073243618,0.6836636662483215,0.4165143370628357,-0.0860937014222145,0.9076975584030152,0.3484606742858886,-0.0182620100677013,0.8049476742744446,0.3079083263874054,-0.0666104033589363,0.7358562350273132,0.3321321606636047,-0.107191614806652,0.6882384419441223,0.3679453730583191,-0.1317276656627655,0.9414695501327516,0.370006799697876,-0.0352554507553577,0.8106583952903748,0.3159781098365783,-0.0801418423652648,0.7387186884880066,0.3599037528038025,-0.1126633062958717,0.6950147151947021,0.4058454930782318,-0.1314905881881714,0.9584667682647704,0.4168930053710937,-0.0562091358006,0.8374750018119812,0.3663702607154846,-0.1014329493045806,0.7607020139694214,0.4011257290840149,-0.1209578439593315,0.7096010446548462,0.4384833574295044,-0.1275752931833267,0.9545888304710388,0.4853523373603821,-0.0774779915809631,0.8454855680465698,0.4691183865070343,-0.1171590611338615,0.7812040448188782,0.4788713157176971,-0.1323724538087844,0.7331575155258179,0.4914520382881164,-0.1363774836063385
2023-08-01 16:06:10.089936,49,773,0.7201601266860962,0.2472099065780639,-0.0713574662804603,0.6443327069282532,-0.48681640625,0.86572265625,0.06982421875,0.931294560432434,0.7097349166870117,-9.44679300118878e-07,0.844775915145874,0.6203866004943848,-0.0145500730723142,0.777512788772583,0.5298928022384644,-0.0388040915131568,0.7195988893508911,0.474337488412857,-0.0666717290878295,0.6865184903144836,0.4160420894622803,-0.0927223712205886,0.915437638759613,0.3549364805221557,-0.017344819381833,0.8163532018661499,0.3099854290485382,-0.0673954263329505,0.7470371723175049,0.3318395018577575,-0.1088407784700393,0.6988987922668457,0.3678670227527618,-0.1338499933481216,0.9484398365020752,0.3743762671947479,-0.034056931734085,0.8198524117469788,0.3191056549549103,-0.0816616937518119,0.7477677464485168,0.3626576662063598,-0.1149952784180641,0.7046923637390137,0.4084441363811493,-0.1335409730672836,0.965431272983551,0.41923588514328,-0.0552960485219955,0.8442087769508362,0.367191880941391,-0.1026069000363349,0.7677274346351624,0.4023097157478332,-0.121404156088829,0.7171627879142761,0.4401594996452331,-0.1265933364629745,0.9622134566307068,0.4853214621543884,-0.0772053599357605,0.8534825444221497,0.4683595895767212,-0.1188361570239067,0.7892062067985535,0.4746147394180298,-0.1351338326930999,0.7408380508422852,0.483183890581131,-0.1391062438488006
2023-08-01 16:06:10.152849,50,774,0.7194045782089233,0.2487135529518127,-0.0723097994923591,0.6444920301437378,-0.4580078125,0.86376953125,0.087890625,0.9345526695251464,0.7150254249572754,-9.89333784673363e-07,0.8635595440864563,0.6281012892723083,-0.0206786599010229,0.8053703308105469,0.538216769695282,-0.0443620719015598,0.7489212155342102,0.4826686084270477,-0.0701703950762748,0.7138941287994385,0.4229199588298797,-0.0940080061554908,0.9339100122451782,0.3601498603820801,-0.0206737127155065,0.8384677767753601,0.3178826570510864,-0.0703887045383453,0.7699127197265625,0.343076229095459,-0.1110465005040168,0.7241542339324951,0.3791526556015014,-0.1353670805692672,0.9708582162857056,0.3768403828144073,-0.0330301523208618,0.8502038717269897,0.3270408809185028,-0.0811012238264083,0.7779970169067383,0.3730485141277313,-0.113537885248661,0.7326326370239258,0.4182717204093933,-0.1306914091110229,0.9918597936630248,0.4209766983985901,-0.0502928420901298,0.8779149055480957,0.3697011172771454,-0.0994508266448974,0.800023078918457,0.4071938991546631,-0.1178187578916549,0.7473137378692627,0.4463713765144348,-0.1217414289712905,0.9924113154411316,0.4866903722286224,-0.0686327442526817,0.8853257298469543,0.4723653197288513,-0.1125127002596855,0.8195710182189941,0.4799818396568298,-0.1294228583574295,0.7713115811347961,0.4890115261077881,-0.1328093409538269
2023-08-01 16:06:10.247017,51,775,0.7191518545150757,0.2491519302129745,-0.0724644213914871,0.6445873379707336,-0.44091796875,0.86474609375,0.06103515625,0.9385190606117249,0.7151238918304443,-9.420539299753728e-07,0.865779459476471,0.6261205673217773,-0.0233612563461065,0.8072112798690796,0.5320062041282654,-0.0479391440749168,0.7501434683799744,0.4731387495994568,-0.074488565325737,0.7234153151512146,0.4141215085983276,-0.0984557121992111,0.9414955377578736,0.3655812442302704,-0.018195504322648,0.8519412279129028,0.3185146450996399,-0.0703723430633544,0.782985270023346,0.3394409418106079,-0.1138452440500259,0.7298790812492371,0.3728194534778595,-0.1386863589286804,0.9733628034591676,0.3838086128234863,-0.0290122833102941,0.8576959371566772,0.3228602111339569,-0.0783608257770538,0.7845572829246521,0.363826036453247,-0.1133795976638794,0.7353169322013855,0.4108677506446838,-0.1310600936412811,0.9930244088172911,0.426626443862915,-0.0454345382750034,0.884604811668396,0.3726248741149902,-0.0940945297479629,0.8044344186782837,0.4052081704139709,-0.1160041838884353,0.746566116809845,0.4447768926620483,-0.1212823167443275,0.9940049648284912,0.4919131398200989,-0.0633746683597564,0.8876588940620422,0.4727681279182434,-0.1046475768089294,0.8207454681396484,0.4792411029338836,-0.1221250370144844,0.7676621675491333,0.4932976961135864,-0.1257481426000595
2023-08-01 16:06:10.317606,52,776,0.7195772528648376,0.2481038868427276,-0.0728758126497268,0.6444705128669739,-0.4462890625,0.857421875,0.07666015625,0.9434350728988647,0.7142620086669922,-9.199902706313878e-07,0.8678234815597534,0.6248548626899719,-0.022113237529993,0.809345006942749,0.531584620475769,-0.0458972044289112,0.7517094612121582,0.4728566110134125,-0.0722439512610435,0.7262136340141296,0.4116571247577667,-0.0960510969161987,0.9404056072235109,0.3674010038375854,-0.016980929300189,0.8540503978729248,0.3147988319396972,-0.0682762861251831,0.785539448261261,0.33539879322052,-0.1108171045780181,0.7327657341957092,0.3703606724739074,-0.1346806585788726,0.9716181755065918,0.3861775398254394,-0.0278830602765083,0.8587653040885925,0.3223116099834442,-0.0757172182202339,0.7869812846183777,0.3608748018741607,-0.1098210215568542,0.7390106916427612,0.4075466990470886,-0.1269266158342361,0.9908304810523988,0.428103506565094,-0.0443008281290531,0.8827579021453857,0.3701312243938446,-0.0906488001346588,0.8039830327033997,0.4018121063709259,-0.111025184392929,0.7480539679527283,0.4427544176578522,-0.1154970526695251,0.9912780523300172,0.4918814897537231,-0.0622825920581817,0.8832062482833862,0.4686723947525024,-0.1009703129529953,0.8169924020767212,0.4737960696220398,-0.116837203502655,0.7655360698699951,0.4896497726440429,-0.1194641143083572
