Timestamp,Index,Frame ID,w,x,y,z,ax,ay,az,x_0,y_0,z_0,x_1,y_1,z_1,x_2,y_2,z_2,x_3,y_3,z_3,x_4,y_4,z_4,x_5,y_5,z_5,x_6,y_6,z_6,x_7,y_7,z_7,x_8,y_8,z_8,x_9,y_9,z_9,x_10,y_10,z_10,x_11,y_11,z_11,x_12,y_12,z_12,x_13,y_13,z_13,x_14,y_14,z_14,x_15,y_15,z_15,x_16,y_16,z_16,x_17,y_17,z_17,x_18,y_18,z_18,x_19,y_19,z_19,x_20,y_20,z_20
2023-08-01 16:06:14.223252,0,837,0.7270916700363159,0.2213322818279266,-0.0671852827072143,0.6464022994041443,-0.46630859375,0.85107421875,0.1064453125,0.8920048475265503,0.7146652936935425,-9.538214271742618e-07,0.8005156517028809,0.6189898252487183,-0.0107228709384799,0.7322232127189636,0.5281901359558105,-0.0351367779076099,0.6748901009559631,0.4772631824016571,-0.0639941915869712,0.6341030597686768,0.4303610920906067,-0.0921663120388984,0.871781051158905,0.3492598831653595,-0.0188507828861475,0.7610806226730347,0.3116618394851684,-0.073004201054573,0.6882810592651367,0.3377588987350464,-0.1185319945216178,0.6353353261947632,0.3778035640716553,-0.1457293629646301,0.901634156703949,0.371472030878067,-0.0395158007740974,0.762268602848053,0.3156516551971435,-0.0910335630178451,0.687228798866272,0.3659366369247436,-0.128187671303749,0.6408650875091553,0.4190242886543274,-0.1493292897939682,0.915189564228058,0.4210565388202667,-0.0641042739152908,0.7877116799354553,0.3691576719284057,-0.1135382279753685,0.7096630334854126,0.4126724004745483,-0.1341906785964965,0.6587410569190979,0.4565989375114441,-0.1405260860919952,0.9090821146965028,0.4920643866062164,-0.088881529867649,0.798292875289917,0.472695916891098,-0.1300273239612579,0.7354668378829956,0.4834911823272705,-0.1453624814748764,0.6898768544197083,0.494931012392044,-0.149239644408226
2023-08-01 16:06:14.289677,1,838,0.7273893356323242,0.2207337468862533,-0.067439429461956,0.6462455987930298,-0.48291015625,0.85400390625,0.10302734375,0.8941313624382019,0.7160539031028748,-9.21106732221233e-07,0.8000972270965576,0.620194137096405,-0.0128189641982316,0.7322125434875488,0.5305797457695007,-0.0385132916271686,0.6745954155921936,0.4811136126518249,-0.0685367137193679,0.6336595416069031,0.4353622794151306,-0.0981651023030281,0.8687962293624878,0.3489642739295959,-0.0202792398631572,0.7605687975883484,0.3137410879135132,-0.0768709555268287,0.6889086961746216,0.3388513922691345,-0.1240530759096145,0.6343790292739868,0.379951000213623,-0.151906743645668,0.899285614490509,0.3714969158172607,-0.0415290221571922,0.7641714811325073,0.3128827214241028,-0.096831627190113,0.6878742575645447,0.3608203530311584,-0.1373807787895202,0.6388517022132874,0.4145273864269256,-0.1599312424659729,0.9135860800743104,0.4216721951961517,-0.0670071467757225,0.7905609011650085,0.3701327443122864,-0.1207993626594543,0.7105424404144287,0.410071313381195,-0.1461328268051147,0.6566846966743469,0.4520943164825439,-0.1546370834112167,0.9080902338027954,0.4937299191951751,-0.09255001693964,0.8004369139671326,0.4746717810630798,-0.1367018222808838,0.735871434211731,0.4850510060787201,-0.154361143708229,0.6871938705444336,0.4963141679763794,-0.1594949513673782
2023-08-01 16:06:14.359891,2,839,0.7277863621711731,0.2203229069709777,-0.0664123371243476,0.6460451483726501,-0.509765625,0.87255859375,0.1015625,0.8936168551445007,0.7162113189697266,-9.55716245698568e-07,0.7999968528747559,0.6194041967391968,-0.0096097011119127,0.7308186292648315,0.5292449593544006,-0.0336859412491321,0.6723893284797668,0.4789605140686035,-0.0625913515686988,0.633358359336853,0.4300898909568786,-0.0909134671092033,0.8701762557029724,0.34996297955513,-0.0163797214627265,0.7580810785293579,0.3140029907226562,-0.0704686045646667,0.6844789385795593,0.33882936835289,-0.1165346056222915,0.6305029988288879,0.3777627348899841,-0.1441131681203842,0.898693323135376,0.3717179894447326,-0.0377874448895454,0.7588537931442261,0.3162439167499542,-0.0894191265106201,0.6835322380065918,0.3648841381072998,-0.1277841031551361,0.6359609961509705,0.4170884490013122,-0.1497845500707626,0.911797821521759,0.4204743206501007,-0.0630672499537468,0.7844879031181335,0.3705728054046631,-0.1125393658876419,0.7069590091705322,0.4133929312229156,-0.134388193488121,0.6556315422058105,0.4566432237625122,-0.1415079087018966,0.9060458540916444,0.4912061095237732,-0.0884451866149902,0.7948600649833679,0.4733545482158661,-0.1290975511074066,0.7322975993156433,0.4843580722808838,-0.1445890069007873,0.6866242289543152,0.4958935976028442,-0.1486876457929611
2023-08-01 16:06:14.418727,3,840,0.7276487350463867,0.2199126034975052,-0.0664987936615943,0.6463308930397034,-0.47802734375,0.86376953125,0.13818359375,0.8923100829124451,0.7163943648338318,-9.71410372585524e-07,0.7986061573028564,0.6195901036262512,-0.0088021103292703,0.7297285795211792,0.5274189710617065,-0.0322707518935203,0.6723146438598633,0.4783028662204742,-0.0607560276985168,0.633079469203949,0.429356038570404,-0.0890245214104652,0.8688062429428101,0.3474904894828796,-0.0155237894505262,0.7561830282211304,0.3147101700305938,-0.0699101984500885,0.6829202771186829,0.3407034873962402,-0.1166777908802032,0.6284900903701782,0.3787175416946411,-0.1449368745088577,0.8986949920654297,0.3695500493049621,-0.0376997888088226,0.7584936618804932,0.3180524408817291,-0.090981550514698,0.682945966720581,0.3694891929626465,-0.1313552260398864,0.634724497795105,0.4225209951400757,-0.1544187217950821,0.912429928779602,0.4190687835216522,-0.0636200904846191,0.7849385738372803,0.3695828020572662,-0.115050122141838,0.7067904472351074,0.4134124517440796,-0.1392248719930648,0.6543182730674744,0.4568884372711181,-0.1474755108356475,0.9068180322647096,0.4905411601066589,-0.0893831327557563,0.7971763610839844,0.4726054966449737,-0.1321799606084823,0.7348639369010925,0.4843443036079407,-0.1494615226984024,0.6884645223617554,0.4957607686519623,-0.1545559763908386
2023-08-01 16:06:14.471977,4,841,0.7271406054496765,0.2200913727283477,-0.0666148662567138,0.6468297839164734,-0.45703125,0.8544921875,0.1064453125,0.8931607007980347,0.7183437347412109,-9.497875907982234e-07,0.7983723282814026,0.6207149624824524,-0.0098496526479721,0.7297359108924866,0.5299334526062012,-0.0341403819620609,0.6719472408294678,0.4807439744472503,-0.0631135180592536,0.6331688761711121,0.4346445798873901,-0.0917084664106369,0.8693512082099915,0.3514665961265564,-0.0176753681153059,0.7574110627174377,0.3162178695201874,-0.0719161927700042,0.6840551495552063,0.3423251509666443,-0.1178203821182251,0.6292657852172852,0.3821352124214172,-0.1451891660690307,0.898357093334198,0.3738260269165039,-0.0389261171221733,0.7592613101005554,0.3190688490867615,-0.0913400128483772,0.6829624772071838,0.3673743605613708,-0.1305708736181259,0.6337383985519409,0.4196274578571319,-0.153154119849205,0.9110646843910216,0.4226765632629394,-0.0639152228832244,0.7843000888824463,0.3728830218315124,-0.114047884941101,0.705338716506958,0.4138146936893463,-0.1376167833805084,0.6523407697677612,0.4563717544078827,-0.1459689885377884,0.904224693775177,0.4928774535655975,-0.0888500809669494,0.7929542064666748,0.4752365946769714,-0.1300546526908874,0.7291742563247681,0.4863500297069549,-0.1465823352336883,0.6818216443061829,0.4981335401535034,-0.1515291035175323
2023-08-01 16:06:14.534188,5,842,0.7268220782279968,0.2194642573595047,-0.0663002431392669,0.6474329829216003,-0.486328125,0.85400390625,0.1064453125,0.8883926272392273,0.7140586972236633,-9.629836767999225e-07,0.7959785461425781,0.6181409358978271,-0.00795145239681,0.7264871597290039,0.5284703373908997,-0.0312936902046203,0.6676889061927795,0.4790262877941131,-0.0599012970924377,0.6287776231765747,0.4301316142082214,-0.0879160165786743,0.8649333715438843,0.348722755908966,-0.0137074999511241,0.7541571855545044,0.3140911161899566,-0.066223606467247,0.6816088557243347,0.3404237926006317,-0.1107895448803901,0.6309177875518799,0.3784028589725494,-0.1377966254949569,0.8944344520568848,0.3700725138187408,-0.0359681062400341,0.7560479044914246,0.3186521828174591,-0.0869878754019737,0.6809362173080444,0.3693558573722839,-0.1241775229573249,0.6349995136260986,0.4209823906421661,-0.1451294124126434,0.9082466959953308,0.4186545014381408,-0.0621363259851932,0.7806667685508728,0.370560735464096,-0.1113408058881759,0.7017284035682678,0.4135835766792297,-0.1324742138385772,0.6500380039215088,0.4552757143974304,-0.139017105102539,0.9030479788780212,0.4887940585613251,-0.0882608741521835,0.7912161946296692,0.4709721505641937,-0.1292958855628967,0.7282437682151794,0.4816650152206421,-0.1449383944272995,0.6824138164520264,0.4919271469116211,-0.1489138156175613
2023-08-01 16:06:14.597628,6,843,0.7267749905586243,0.2194776833057403,-0.0669070556759834,0.6474188566207886,-0.4970703125,0.841796875,0.12451171875,0.8883911371231079,0.7139126658439636,-9.45356021020416e-07,0.7956372499465942,0.6177572011947632,-0.0083117354661226,0.7267600297927856,0.5278206467628479,-0.0318168140947818,0.6682637333869934,0.4783957600593567,-0.0603992901742458,0.6287544965744019,0.4307750761508941,-0.0887349992990493,0.8638858795166016,0.3478875160217285,-0.0152983786538243,0.7517219185829163,0.3160028457641601,-0.0691343992948532,0.6787059903144836,0.3413770496845245,-0.1148582398891449,0.6246263980865479,0.3801443576812744,-0.1422659307718277,0.8935133218765259,0.3686059117317199,-0.0376557931303978,0.7545037269592285,0.3138687908649444,-0.0893844440579414,0.6780729293823242,0.3614379465579986,-0.1277826130390167,0.6289873719215393,0.41400808095932,-0.149766206741333,0.9068968296051024,0.4173146188259125,-0.0638350546360015,0.779100775718689,0.3685787618160248,-0.1139612048864364,0.699832558631897,0.4115095138549804,-0.1366963982582092,0.6472121477127075,0.4547756910324096,-0.1443501859903335,0.9003155827522278,0.4880026578903198,-0.0898836478590965,0.7884984016418457,0.470812439918518,-0.1312981694936752,0.7256885766983032,0.4827385544776916,-0.1475659608840942,0.6796333193778992,0.4946513175964355,-0.152265727519989
2023-08-01 16:06:14.660105,7,844,0.7266936302185059,0.2192363142967224,-0.0670539215207099,0.6475767493247986,-0.4501953125,0.85498046875,0.12060546875,0.8882952332496643,0.7127358913421631,-9.427401437278604e-07,0.7953079342842102,0.6162810921669006,-0.0083958432078361,0.7259083390235901,0.5263400673866272,-0.0323917791247367,0.6666932702064514,0.4773489534854889,-0.0614678263664245,0.6275050044059753,0.4305258095264435,-0.0902205631136894,0.8643553256988525,0.3463819622993469,-0.0158400181680917,0.7526261210441589,0.3134879469871521,-0.0696229413151741,0.6794827580451965,0.3388029336929321,-0.1154611259698867,0.6249133944511414,0.3766501545906067,-0.1431312561035156,0.8940452337265015,0.3669328093528747,-0.0382700115442276,0.7544960379600525,0.3125275373458862,-0.0903549343347549,0.6785451173782349,0.3605013191699981,-0.1290662139654159,0.6294431686401367,0.4123952090740204,-0.1512396335601806,0.9075326919555664,0.4154545366764068,-0.0644344538450241,0.779076874256134,0.3667818903923034,-0.1144158020615577,0.6999828815460205,0.4087035357952118,-0.1372675597667694,0.6468580961227417,0.4511678814888,-0.1451093107461929,0.9010735750198364,0.485825628042221,-0.0904825180768966,0.7889800667762756,0.4690956771373749,-0.1319252401590347,0.7253905534744263,0.4804827868938446,-0.1483379751443863,0.6782077550888062,0.4924225211143493,-0.1531272679567337
2023-08-01 16:06:14.726938,8,845,0.7266830801963806,0.2192507088184356,-0.0669776573777198,0.6475916504859924,-0.47900390625,0.85400390625,0.10302734375,0.8879484534263611,0.7115815281867981,-9.41230098305823e-07,0.7952130436897278,0.6152411103248596,-0.0091947270557284,0.7250839471817017,0.5253923535346985,-0.0334891453385353,0.6642993092536926,0.476405382156372,-0.0627642720937728,0.6275311708450317,0.4258943498134613,-0.0914617106318473,0.864990234375,0.3459562957286834,-0.0141027104109525,0.7535274624824524,0.3120246827602386,-0.0675431117415428,0.6802159547805786,0.335726797580719,-0.1143163740634918,0.6248713135719299,0.3722414672374725,-0.1427239626646042,0.8933514356613159,0.3665431439876556,-0.0355895161628723,0.7535707354545593,0.3099755644798279,-0.0874927267432212,0.6784341931343079,0.358096718788147,-0.1274988800287246,0.6291341185569763,0.4109134972095489,-0.1504293382167816,0.9063569903373718,0.4138184785842895,-0.0608482621610164,0.7796323895454407,0.3638353645801544,-0.1098689138889312,0.7011294364929199,0.4046527743339538,-0.1337863653898239,0.6472972631454468,0.4480962753295898,-0.1422386318445205,0.8996309638023376,0.4827624559402466,-0.0861274823546409,0.7883224487304688,0.4658979177474975,-0.126630038022995,0.7245154976844788,0.4764915406703949,-0.1437300890684127,0.6760925650596619,0.4889264702796936,-0.1489890962839126
2023-08-01 16:06:14.781551,9,846,0.7266035079956055,0.219452753663063,-0.067230723798275,0.6475861668586731,-0.43017578125,0.85498046875,0.107421875,0.8881263136863708,0.7119609117507935,-9.688137652119622e-07,0.7956201434135437,0.6154849529266357,-0.006758214905858,0.7261698246002197,0.5238422751426697,-0.0288056265562772,0.6667956113815308,0.4738402962684631,-0.0563565157353878,0.6277653574943542,0.4261711537837982,-0.0835764855146408,0.8649256825447083,0.3428035378456116,-0.010843108408153,0.7518600225448608,0.3095600605010986,-0.0624918527901172,0.6782301068305969,0.3370867669582367,-0.1074891686439514,0.6247696280479431,0.3777226209640503,-0.134568989276886,0.8940073251724243,0.3635797500610351,-0.033024750649929,0.7550656199455261,0.3089475035667419,-0.0819680020213127,0.6781333088874817,0.3568894267082214,-0.1201008111238479,0.6283690929412842,0.4090605080127716,-0.1423077881336212,0.9065952301025392,0.4115509390830993,-0.0589492470026016,0.7797529101371765,0.3621029257774353,-0.1060613840818405,0.6988597512245178,0.4031325578689575,-0.1293588131666183,0.6443573832511902,0.44593146443367,-0.1380036175251007,0.8987736701965332,0.4814596772193908,-0.0847139284014701,0.7869310975074768,0.4632124006748199,-0.1239169612526893,0.7225922346115112,0.4744166135787964,-0.1402366757392883,0.6747261881828308,0.4873809814453125,-0.1452444344758987
2023-08-01 16:06:14.851878,10,847,0.7265652418136597,0.2191461771726608,-0.0675301104784011,0.6477018594741821,-0.43359375,0.85693359375,0.11328125,0.890842616558075,0.7115188241004944,-9.461830927648408e-07,0.796893835067749,0.6135598421096802,-0.0076275151222944,0.7268394231796265,0.5241608023643494,-0.0313979238271713,0.6658869981765747,0.4766012728214264,-0.0607431381940841,0.6255376935005188,0.4281702935695648,-0.0898657888174057,0.8655389547348022,0.3443883657455444,-0.0130581622943282,0.7514318823814392,0.3112879991531372,-0.066217303276062,0.6786916255950928,0.33709317445755,-0.1121625676751136,0.6250573396682739,0.3755322098731994,-0.1399968862533569,0.8941197395324707,0.3645761609077453,-0.0358159579336643,0.7527415752410889,0.3085230886936188,-0.0884644091129303,0.6774862408638,0.3574234247207641,-0.1292294561862945,0.6286793947219849,0.4108423292636871,-0.1525646746158599,0.9066267013549804,0.4124185740947723,-0.0621789172291755,0.7775880694389343,0.3627764880657196,-0.1122133806347847,0.6984573006629944,0.4046460688114166,-0.1372445821762085,0.6451526880264282,0.4482298791408539,-0.1462906002998352,0.8995569348335266,0.4818513989448547,-0.08830226957798,0.7873061299324036,0.4638563692569732,-0.129394069314003,0.7239792943000793,0.474658727645874,-0.1470213681459427,0.6768892407417297,0.4865314662456512,-0.1526987552642822
2023-08-01 16:06:14.918152,11,848,0.7272152304649353,0.21909861266613,-0.0676358044147491,0.6469770669937134,-0.49755859375,0.86279296875,0.13134765625,0.8871994614601135,0.7102320194244385,-9.487328043178422e-07,0.7939104437828064,0.6132239103317261,-0.0078622559085488,0.724111020565033,0.5229777097702026,-0.0315411351621151,0.6641261577606201,0.4730893075466156,-0.0609373562037944,0.6241287589073181,0.4225324690341949,-0.0898502916097641,0.8604493141174316,0.3429666459560394,-0.0129518788307905,0.7504286170005798,0.3089958727359772,-0.0680892840027809,0.6779424548149109,0.3351668119430542,-0.1148536950349807,0.6246743202209473,0.3747916519641876,-0.1426893025636673,0.891240119934082,0.3629683256149292,-0.0357556939125061,0.753053605556488,0.3098195493221283,-0.0891250297427177,0.6772337555885315,0.3580488562583923,-0.1282111555337906,0.629030168056488,0.4103996157646179,-0.1501412540674209,0.9056788682937622,0.4107351005077362,-0.0627120062708854,0.7777318358421326,0.3625973463058471,-0.1133921891450882,0.6986140608787537,0.4048231244087219,-0.1358342766761779,0.6461299657821655,0.448059469461441,-0.1429013311862945,0.9002792835235596,0.4803279638290405,-0.0896841287612915,0.7887723445892334,0.4628085196018219,-0.1310400813817978,0.7252686023712158,0.4732610881328583,-0.1473685652017593,0.6786388158798218,0.4845147430896759,-0.1518020033836364
2023-08-01 16:06:15.005122,12,849,0.727234959602356,0.2195529639720916,-0.0679139494895935,0.6467715501785278,-0.5068359375,0.85595703125,0.111328125,0.8825726509094238,0.7113710045814514,-9.555997166899033e-07,0.7906369566917419,0.6143075823783875,-0.007638877723366,0.7228299379348755,0.5231180787086487,-0.0302980635315179,0.663827657699585,0.4733319282531738,-0.0584996938705444,0.6242181062698364,0.4243776202201843,-0.0862771719694137,0.8584042191505432,0.3435614705085754,-0.0121738659217953,0.7493532299995422,0.308652400970459,-0.0654585883021354,0.6772167086601257,0.336110919713974,-0.1109190806746482,0.6255010366439819,0.3762438297271728,-0.1380859017372131,0.8891376256942749,0.3642208278179168,-0.0345759540796279,0.7527478337287903,0.3111066222190857,-0.0857399329543113,0.6767187118530273,0.3585479259490967,-0.1239161640405654,0.6283788084983826,0.4107590615749359,-0.1454763561487198,0.9040934443473816,0.4124655723571777,-0.0610246136784553,0.7772918939590454,0.3642458319664001,-0.1105110496282577,0.6974908709526062,0.4057728052139282,-0.1332131177186966,0.6445131301879883,0.4483236670494079,-0.1406906694173813,0.8988661766052246,0.4829146265983581,-0.0873835235834121,0.7865776419639587,0.4653759896755218,-0.1284380108118057,0.7225726842880249,0.4764141738414764,-0.1446860134601593,0.6756833791732788,0.4885371923446655,-0.1490878313779831
2023-08-01 16:06:15.080826,13,850,0.727020800113678,0.2196222990751266,-0.0685603246092796,0.6469206809997559,-0.5,0.8447265625,0.10986328125,0.8843539953231812,0.7132732272148132,-9.80666300165467e-07,0.790300726890564,0.6156861186027527,-0.0067466702312231,0.7225635051727295,0.5242671966552734,-0.0286357756704092,0.6652866005897522,0.4731588065624237,-0.056056410074234,0.6262929439544678,0.4245232939720154,-0.08327516913414,0.8598833084106445,0.343330979347229,-0.0119325509294867,0.748733401298523,0.3095649480819702,-0.0647900104522705,0.6759368181228638,0.3371076881885528,-0.1096716001629829,0.6229397654533386,0.3775883615016937,-0.1362545192241668,0.890731930732727,0.3643507659435272,-0.034414105117321,0.7529195547103882,0.3121647238731384,-0.0851222425699234,0.6757450699806213,0.3629486262798309,-0.122739128768444,0.6265773177146912,0.4167943894863128,-0.1437985599040985,0.9048497676849364,0.4130517244338989,-0.0607561543583869,0.7772342562675476,0.3645680546760559,-0.1099711060523986,0.6961162090301514,0.4089558720588684,-0.1324223130941391,0.6421948671340942,0.4532347619533539,-0.1396415382623672,0.8984227180480957,0.4835619628429413,-0.0868851393461227,0.7855797410011292,0.4679126739501953,-0.1274744272232055,0.7216744422912598,0.480417788028717,-0.1435312330722808,0.6748375296592712,0.4926081001758575,-0.1477988064289093
2023-08-01 16:06:15.152855,14,851,0.7266935706138611,0.2206570208072662,-0.0699823573231697,0.6467838287353516,-0.44189453125,0.8623046875,0.12060546875,0.8870483636856079,0.7119225263595581,-9.550434469929314e-07,0.7923583984375,0.6131737232208252,-0.0058815795928239,0.7231482863426208,0.5248218178749084,-0.0290061924606561,0.6642603874206543,0.4768176972866058,-0.0581579320132732,0.6222764253616333,0.4295727014541626,-0.0872819423675537,0.8591563701629639,0.3437556028366089,-0.0113699305802583,0.7478101253509521,0.3117980659008026,-0.0647597759962081,0.6756892800331116,0.3379542827606201,-0.1106711030006408,0.6225229501724243,0.376613587141037,-0.1383499354124069,0.8897085785865784,0.3636985421180725,-0.0353030897676944,0.7520533204078674,0.3116738200187683,-0.0873270481824874,0.6756914258003235,0.3595015704631805,-0.1266971379518509,0.6255837678909302,0.4119740724563598,-0.1491946578025818,0.9041241407394408,0.4116966724395752,-0.0630377754569053,0.777601957321167,0.363798588514328,-0.1131673902273178,0.6974122524261475,0.4068407416343689,-0.1366085261106491,0.6433858275413513,0.4501425921916961,-0.1446472555398941,0.8991298675537109,0.4819933176040649,-0.0905248746275901,0.787383496761322,0.4652201533317566,-0.1320850849151611,0.7230595350265503,0.4771962463855743,-0.148836612701416,0.675258994102478,0.488567978143692,-0.1537448316812515
2023-08-01 16:06:15.229561,15,852,0.7268586754798889,0.2206367552280426,-0.0698288828134536,0.6466218829154968,-0.45263671875,0.85693359375,0.12060546875,0.884863018989563,0.7113627791404724,-9.64195464803197e-07,0.7921029329299927,0.6147229671478271,-0.0050866026431322,0.7224981784820557,0.5239378809928894,-0.0268606282770633,0.6628856062889099,0.4757948517799377,-0.0545739568769931,0.6236553192138672,0.4284400343894958,-0.0821498557925224,0.8609970211982727,0.3452307879924774,-0.0111091583967208,0.7486763000488281,0.3129037618637085,-0.0627483651041984,0.6756914854049683,0.3402178883552551,-0.1068484112620353,0.6241251230239868,0.3789291381835937,-0.1334662586450576,0.890679657459259,0.3656288087368011,-0.0345041640102863,0.7518261075019836,0.313663512468338,-0.0843343138694763,0.6756242513656616,0.3604768216609955,-0.121368758380413,0.6271805167198181,0.4114038944244385,-0.1427202373743057,0.903636634349823,0.4128435552120209,-0.061612132936716,0.7738445997238159,0.3671144843101501,-0.1090399175882339,0.694707453250885,0.4078357815742492,-0.1310108006000518,0.6422444581985474,0.4490949809551239,-0.1389220952987671,0.8967645168304443,0.4814690053462982,-0.0884978324174881,0.7827278971672058,0.4647593796253204,-0.1276125162839889,0.7197127342224121,0.4757029414176941,-0.1435465365648269,0.6735746264457703,0.486522376537323,-0.1485090106725692
2023-08-01 16:06:15.292915,16,853,0.7272693514823914,0.2193574607372284,-0.0676759630441665,0.646824300289154,-0.5126953125,0.86181640625,0.0986328125,0.8849577307701111,0.7106160521507263,-9.492438834968198e-07,0.7917461395263672,0.6149333715438843,-0.0067836898379027,0.7214854955673218,0.5252489447593689,-0.0309143159538507,0.6622679233551025,0.4779305756092071,-0.0608698390424251,0.621781587600708,0.4274583458900451,-0.0908072367310524,0.8583778142929077,0.3444826006889343,-0.0155033702030777,0.7470733523368835,0.3103071749210357,-0.0714978948235511,0.6745198965072632,0.3346621394157409,-0.1188708692789077,0.6194013357162476,0.3717496991157532,-0.1472766399383545,0.8901665806770325,0.3640659153461456,-0.0395851843059062,0.7518230080604553,0.3093716502189636,-0.0950856357812881,0.675578236579895,0.3584551513195038,-0.1357543915510177,0.625583291053772,0.4118694365024566,-0.1581850200891494,0.904921531677246,0.4120788872241974,-0.0674309954047203,0.7771039009094238,0.3619360029697418,-0.1204010397195816,0.6971614360809326,0.4059959948062897,-0.1450129300355911,0.6435020565986633,0.4506201148033142,-0.1529111862182617,0.899297833442688,0.4818694591522217,-0.0949551984667778,0.7875162959098816,0.4668351113796234,-0.1399151533842086,0.7221542596817017,0.478325217962265,-0.1590634137392044,0.6735596656799316,0.4902636706829071,-0.1648624837398529
2023-08-01 16:06:15.354993,17,854,0.7271380424499512,0.2197298407554626,-0.0680715441703796,0.6468039751052856,-0.490234375,0.85107421875,0.09375,0.8845747709274292,0.7105164527893066,-9.656348538555903e-07,0.7914420366287231,0.6154608726501465,-0.0104129780083894,0.7222240567207336,0.5248883366584778,-0.0341127030551433,0.6635231971740723,0.474516212940216,-0.0626610517501831,0.6240618824958801,0.4243891835212707,-0.0906304121017456,0.8569468259811401,0.3419324159622192,-0.0166567526757717,0.7479764223098755,0.3096427917480469,-0.0717120096087455,0.6761928796768188,0.3372399806976318,-0.1177994459867477,0.6227575540542603,0.3773359060287475,-0.145165354013443,0.8890830278396606,0.3632536828517914,-0.0380032658576965,0.7523056864738464,0.3139033615589142,-0.0909436717629432,0.6763442158699036,0.3638612031936645,-0.1296764612197876,0.6277710199356079,0.4164699912071228,-0.1514729261398315,0.9048269987106324,0.4126376509666443,-0.063576340675354,0.7775947451591492,0.3664095997810364,-0.1151763424277305,0.6976432800292969,0.4097046554088592,-0.1386576294898986,0.6442286968231201,0.4531603157520294,-0.1463190913200378,0.9006958603858948,0.4842194318771362,-0.0892147570848465,0.7893315553665161,0.468801200389862,-0.1325451582670211,0.7254948616027832,0.4802140593528747,-0.1501792818307876,0.6783931255340576,0.4918927252292633,-0.1552290320396423
2023-08-01 16:06:15.423070,18,855,0.72711181640625,0.2202752977609634,-0.0686383321881294,0.6465880274772644,-0.44677734375,0.85791015625,0.13720703125,0.884337842464447,0.7125048041343689,-9.786238024389604e-07,0.7916104793548584,0.6160500049591064,-0.0090980697423219,0.722964346408844,0.5245887637138367,-0.0319984219968318,0.6655486822128296,0.4746004939079284,-0.0596623234450817,0.6255567073822021,0.4274583160877228,-0.0869303122162818,0.8591858148574829,0.343230128288269,-0.0169900842010974,0.74859619140625,0.3107724785804748,-0.0700236856937408,0.6764848232269287,0.3387204706668854,-0.1143860667943954,0.6232244968414307,0.3779270052909851,-0.1407642066478729,0.8909347057342529,0.3656916618347168,-0.0380163304507732,0.7540424466133118,0.319166898727417,-0.0884974822402,0.6779140830039978,0.3691520690917969,-0.1254425048828125,0.6286417245864868,0.4202339053153991,-0.1467269957065582,0.9057479500770568,0.4155701100826263,-0.0628925487399101,0.7789640426635742,0.3685291409492492,-0.1120897158980369,0.6987572908401489,0.411169946193695,-0.1342250257730484,0.6446388363838196,0.4536858797073364,-0.1418163925409317,0.9004673957824707,0.4872774481773376,-0.0876717120409011,0.7889034748077393,0.4693217575550079,-0.1288449019193649,0.7247549295425415,0.4810370802879333,-0.1449667066335678,0.677447497844696,0.4927342534065246,-0.1495095193386078
2023-08-01 16:06:15.481664,19,856,0.727207362651825,0.2197228223085403,-0.0679931789636612,0.6467366218566895,-0.4990234375,0.8603515625,0.1123046875,0.8854840993881226,0.7148782014846802,-9.785286465557874e-07,0.793097198009491,0.6176170110702515,-0.0055884742178022,0.7251314520835876,0.5259045958518982,-0.026530297473073,0.6657254099845886,0.4753310084342956,-0.0529838465154171,0.6238541007041931,0.4297948479652405,-0.0793825015425682,0.8628256916999817,0.3463461697101593,-0.0123095251619815,0.7492932081222534,0.3118140697479248,-0.0628219246864318,0.6763215661048889,0.3389526009559631,-0.1055913195014,0.6240483522415161,0.3780920803546905,-0.1311878263950348,0.892095148563385,0.3684110641479492,-0.0348299667239189,0.7527393102645874,0.3147286772727966,-0.0830034241080284,0.6774306893348694,0.364534854888916,-0.1185357198119163,0.6296160221099854,0.4169862270355224,-0.1387416571378708,0.904496133327484,0.4177403748035431,-0.0608863309025764,0.7748778462409973,0.36868816614151,-0.1079558432102203,0.6967417597770691,0.4131796061992645,-0.1288270503282547,0.6452065110206604,0.4563279449939728,-0.1355646103620529,0.896622896194458,0.4884779751300812,-0.0866387039422988,0.7810988426208496,0.4706600606441498,-0.1259894520044326,0.7182191014289856,0.4817642569541931,-0.1413109451532364,0.6727684140205383,0.492741048336029,-0.1454122215509414
2023-08-01 16:06:15.544759,20,857,0.7271326184272766,0.2199407815933227,-0.0681491717696189,0.6467302441596985,-0.51708984375,0.85546875,0.09423828125,0.8885700106620789,0.7115741968154907,-9.588002285454422e-07,0.7946322560310364,0.6145794987678528,-0.0082942135632038,0.7244774103164673,0.5248225927352905,-0.0318479724228382,0.6644427180290222,0.4763551354408264,-0.0606476701796054,0.624693751335144,0.4288477003574371,-0.0891344770789146,0.8611549735069275,0.3415327668190002,-0.0138454940170049,0.7483482956886292,0.3113456964492798,-0.0667392611503601,0.6764672994613647,0.3404111266136169,-0.1124304756522178,0.6234912276268005,0.3799825310707092,-0.1401431262493133,0.8917274475097656,0.3619124293327331,-0.0357087329030036,0.7518936395645142,0.310896635055542,-0.0874654352664947,0.6766719818115234,0.361479252576828,-0.1266441643238067,0.627955973148346,0.4150364398956299,-0.1490993350744247,0.9054927229881288,0.4101337790489197,-0.0613555982708931,0.7781406044960022,0.3633488416671753,-0.1109286546707153,0.6984215378761292,0.4063733220100403,-0.134831503033638,0.6446946859359741,0.4503750801086426,-0.1433798372745514,0.8991626501083374,0.480228990316391,-0.0868621319532394,0.7864657640457153,0.4648527503013611,-0.1283405274152755,0.7216879725456238,0.4770892560482025,-0.1458893865346908,0.6732973456382751,0.4894309043884277,-0.1514257192611694
2023-08-01 16:06:15.599652,21,858,0.7268415689468384,0.2202011346817016,-0.0692451372742652,0.6468523144721985,-0.4423828125,0.85546875,0.13623046875,0.8863111138343811,0.7064902186393738,-9.450224638385408e-07,0.794613778591156,0.6123250126838684,-0.0097836311906576,0.7243998646736145,0.5241738557815552,-0.0341000594198703,0.6637532711029053,0.476937472820282,-0.0633472725749015,0.6240808963775635,0.4294068515300751,-0.0922068133950233,0.8605835437774658,0.3411924242973327,-0.01712710224092,0.7496381998062134,0.3090773224830627,-0.0703179240226745,0.677056074142456,0.3366814255714416,-0.1155827194452285,0.6246185898780823,0.3755170106887817,-0.1429520100355148,0.8915081024169922,0.3620883226394653,-0.0380750633776187,0.7533602714538574,0.3136281371116638,-0.0889259278774261,0.6772441267967224,0.3605745136737823,-0.127160295844078,0.6282541751861572,0.4100264310836792,-0.1496644616127014,0.9057657718658448,0.4109459519386291,-0.0628849640488624,0.7776119709014893,0.3668007254600525,-0.11187744140625,0.6975138187408447,0.407134085893631,-0.13504558801651,0.643470287322998,0.4484575092792511,-0.1436177194118499,0.8999882340431213,0.4816696643829345,-0.087672010064125,0.7880997657775879,0.4648098945617676,-0.1283816844224929,0.7243562936782837,0.4748938977718353,-0.1451493501663208,0.6766895651817322,0.4859240055084228,-0.1504471004009246
2023-08-01 16:06:15.671015,22,859,0.7270097136497498,0.2201685309410095,-0.0699381232261657,0.6465998291969299,-0.44677734375,0.8623046875,0.125,0.883708119392395,0.7087122201919556,-9.738231483424895e-07,0.7929260730743408,0.6160385012626648,-0.009154861792922,0.7253192663192749,0.5240783095359802,-0.0314446613192558,0.6667479872703552,0.4741574823856354,-0.0583640225231647,0.6264269351959229,0.42452073097229,-0.0848030596971511,0.8614286780357361,0.3421303033828735,-0.0171687025576829,0.7500356435775757,0.3063055276870727,-0.069257453083992,0.678777277469635,0.3358176946640014,-0.1121980920433998,0.628484308719635,0.3771035373210907,-0.137672871351242,0.8931516408920288,0.3644255995750427,-0.0380492098629474,0.7553430199623108,0.3131527900695801,-0.0876013711094856,0.6798803806304932,0.3627551198005676,-0.1231511682271957,0.6323654651641846,0.414298802614212,-0.1433914899826049,0.9076451063156128,0.4142385721206665,-0.0627829506993293,0.7792146801948547,0.3646456003189087,-0.1119298264384269,0.6993415951728821,0.4077781438827514,-0.1330980956554412,0.6467452049255371,0.4501854479312897,-0.1399935185909271,0.901366114616394,0.4853514730930328,-0.0873890742659568,0.7880668044090271,0.4691618084907532,-0.1298699080944061,0.7229734659194946,0.4813112020492553,-0.1464794278144836,0.6756178140640259,0.4930215179920196,-0.1510791331529617
2023-08-01 16:06:15.728318,23,860,0.7269605994224548,0.2202713340520858,-0.0696607157588005,0.6466500759124756,-0.49755859375,0.8427734375,0.11181640625,0.8847089409828186,0.709434986114502,-9.694073241917067e-07,0.7931796908378601,0.6132135391235352,-0.007471511606127,0.7242220640182495,0.5234184861183167,-0.030701708048582,0.6660336852073669,0.4737855494022369,-0.0588889010250568,0.6243123412132263,0.4275189936161041,-0.086847223341465,0.859412431716919,0.3411121964454651,-0.016689695417881,0.7454087138175964,0.3083491623401642,-0.0686562210321426,0.6738701462745667,0.3340631127357483,-0.1120081394910812,0.6221815347671509,0.3709337413311004,-0.1380682438611984,0.8902220129966736,0.3607315719127655,-0.0391313694417476,0.7494510412216187,0.3103992342948913,-0.0889841169118881,0.6748644709587097,0.3597764074802398,-0.125001847743988,0.6267228126525879,0.4112776517868042,-0.1455342024564743,0.9047867655754088,0.4090539813041687,-0.0651375874876976,0.7762027978897095,0.36251962184906,-0.114409290254116,0.6974138617515564,0.4060184359550476,-0.1362536251544952,0.6440966129302979,0.4480499923229217,-0.1436091363430023,0.8996325731277466,0.4801854193210602,-0.0909152701497078,0.7866906523704529,0.4673841893672943,-0.1331776976585388,0.7223353385925293,0.4810883104801178,-0.1499098092317581,0.6742141842842102,0.4936410784721374,-0.1547670513391494
2023-08-01 16:06:15.797101,24,861,0.7265709042549133,0.2202924489974975,-0.0693704336881637,0.6471118927001953,-0.474609375,0.8583984375,0.13037109375,0.8888959288597107,0.7107834815979004,-9.446582680538996e-07,0.7957237958908081,0.6132182478904724,-0.0079775694757699,0.7259029746055603,0.522713840007782,-0.031258750706911,0.6649982929229736,0.4736974239349365,-0.0597627684473991,0.6254842877388,0.424596220254898,-0.0878231972455978,0.8620441555976868,0.3411223888397217,-0.0143898781388998,0.7496434450149536,0.3060203492641449,-0.0667203292250633,0.6774908900260925,0.3334929049015045,-0.1111763641238212,0.6252532005310059,0.3732001781463623,-0.1378029882907867,0.8919522762298584,0.362295389175415,-0.0361014902591705,0.7526413798332214,0.3073396682739258,-0.0870659425854682,0.6766387820243835,0.3558443784713745,-0.1253944635391235,0.6278873682022095,0.4086634814739227,-0.1470638513565063,0.905576467514038,0.4110059738159179,-0.0614171363413333,0.7789112329483032,0.3609535694122314,-0.1105326116085052,0.6984190940856934,0.4022576808929443,-0.1339806914329528,0.6444826126098633,0.4457676112651825,-0.1419382393360138,0.8987918496131897,0.4813924133777618,-0.0864952355623245,0.7868369221687317,0.4640813767910003,-0.1279917359352111,0.7219381332397461,0.4750504195690155,-0.145251989364624,0.6739310026168823,0.4877305626869201,-0.1502115279436111
2023-08-01 16:06:15.856686,25,862,0.7263490557670593,0.2204426378011703,-0.0698337331414222,0.6472598910331726,-0.45556640625,0.85888671875,0.125,0.8856719136238098,0.7067445516586304,-9.488008458902186e-07,0.7937051653862,0.6102127432823181,-0.0105921234935522,0.7236343622207642,0.5219063758850098,-0.0352433808147907,0.662935197353363,0.4734481871128082,-0.0644639432430267,0.6226793527603149,0.4238018095493316,-0.0932247713208198,0.859254777431488,0.336627334356308,-0.0180723331868648,0.746631383895874,0.3069366812705993,-0.0723276361823082,0.6738159656524658,0.3327330350875854,-0.1179489716887474,0.6197830438613892,0.3697460293769836,-0.1452779322862625,0.8910315036773682,0.3567772209644317,-0.0391054973006248,0.7513716220855713,0.3054380416870117,-0.0920988023281097,0.6755356788635254,0.3556326627731323,-0.1303418278694152,0.6270748972892761,0.4087455570697784,-0.1517107337713241,0.9058236479759216,0.4062340855598449,-0.0640190094709396,0.7772752046585083,0.3600442409515381,-0.1156283393502235,0.697934627532959,0.4048626124858856,-0.1385890692472458,0.6450773477554321,0.4493187367916107,-0.1457329988479614,0.9003714919090271,0.4781800210475921,-0.0888590887188911,0.7879670262336731,0.4633878767490387,-0.1320706456899643,0.7237597703933716,0.4760233163833618,-0.1491657197475433,0.6763394474983215,0.488712728023529,-0.1537296175956726
