Timestamp,Index,Frame ID,w,x,y,z,ax,ay,az,x_0,y_0,z_0,x_1,y_1,z_1,x_2,y_2,z_2,x_3,y_3,z_3,x_4,y_4,z_4,x_5,y_5,z_5,x_6,y_6,z_6,x_7,y_7,z_7,x_8,y_8,z_8,x_9,y_9,z_9,x_10,y_10,z_10,x_11,y_11,z_11,x_12,y_12,z_12,x_13,y_13,z_13,x_14,y_14,z_14,x_15,y_15,z_15,x_16,y_16,z_16,x_17,y_17,z_17,x_18,y_18,z_18,x_19,y_19,z_19,x_20,y_20,z_20
2023-08-01 16:05:59.819686,0,617,0.7106563448905945,0.2314698696136474,-0.081389382481575,0.6593672633171082,-0.44873046875,0.87841796875,0.12646484375,0.9058305621147156,0.7121538519859314,-9.25671145068918e-07,0.8234898447990417,0.6245662569999695,-0.0079044736921787,0.7623111009597778,0.5346487760543823,-0.0265001039952039,0.709571361541748,0.4802894294261932,-0.0500382967293262,0.677410364151001,0.4255168735980987,-0.0725359246134758,0.8888667225837708,0.3713532388210296,-0.0050235241651535,0.7979892492294312,0.3265345394611358,-0.0512417517602443,0.7305511832237244,0.347135454416275,-0.0913270935416221,0.6830701231956482,0.3841810226440429,-0.1152582615613937,0.920464038848877,0.3895401954650879,-0.0235132910311222,0.8022361397743225,0.3298627734184265,-0.066923588514328,0.7299213409423828,0.3716465830802917,-0.0996284782886505,0.6861188411712646,0.4185825884342193,-0.1179211661219596,0.9367878437042236,0.4308787882328033,-0.0463136099278926,0.8265331387519836,0.3762410283088684,-0.0887529551982879,0.7502778172492981,0.4099819362163543,-0.10773716121912,0.7008833289146423,0.4475532174110412,-0.113876573741436,0.9324735403060912,0.4928845167160034,-0.0693761929869651,0.8290656208992004,0.4743055999279022,-0.105272501707077,0.7672898173332214,0.4838173389434814,-0.1192874312400817,0.7229834794998169,0.4959057867527008,-0.1228638291358947
2023-08-01 16:05:59.906102,1,618,0.7107272148132324,0.2306469827890396,-0.0805047154426574,0.6596876978874207,-0.4384765625,0.8779296875,0.10595703125,0.9084259867668152,0.716032862663269,-9.365257938043214e-07,0.8273681402206421,0.6298781037330627,-0.0101200547069311,0.763745903968811,0.5407025218009949,-0.0297167785465717,0.7108017206192017,0.4865608513355255,-0.0536408498883247,0.6788979172706604,0.4317173957824707,-0.0763082653284072,0.8904000520706177,0.3717573285102844,-0.0083261765539646,0.7958808541297913,0.332339882850647,-0.0551314279437065,0.7294410467147827,0.3561656177043915,-0.0953217148780822,0.6833275556564331,0.392311692237854,-0.1194161027669906,0.9214860200881958,0.3889799118041992,-0.02600640617311,0.8010936975479126,0.3345391452312469,-0.0697372034192085,0.7301026582717896,0.3791739046573639,-0.1018674150109291,0.68780118227005,0.4263126850128174,-0.1196661368012428,0.9374189972877502,0.4311381578445434,-0.0481179691851139,0.8253206014633179,0.3791855275630951,-0.0917135030031204,0.7512087821960449,0.4166324138641357,-0.1104657799005508,0.7035610675811768,0.4553529024124145,-0.1159829497337341,0.933809757232666,0.4943235218524933,-0.0706346854567527,0.8305135369300842,0.4778430759906769,-0.1080363541841507,0.7703161239624023,0.487765908241272,-0.1225333884358406,0.7265040874481201,0.498599499464035,-0.1258753687143325
2023-08-01 16:05:59.975191,2,619,0.7110337615013123,0.2284307479858398,-0.0795565173029899,0.6602432727813721,-0.43017578125,0.875,0.0869140625,0.9083518981933594,0.716942548751831,-9.151303856924642e-07,0.8256860375404358,0.6273666620254517,-0.0095257638022303,0.7627332210540771,0.5388464331626892,-0.0302833653986454,0.7093551754951477,0.4872051477432251,-0.0558400340378284,0.676580548286438,0.432959496974945,-0.080539122223854,0.8925560116767883,0.3722735345363617,-0.0080530662089586,0.7980272769927979,0.3333109319210052,-0.0581662692129612,0.7296286225318909,0.3529821038246155,-0.1014566794037818,0.6783401966094971,0.3865187764167785,-0.1269949227571487,0.922455906867981,0.3920843005180359,-0.0270882882177829,0.8019480109214783,0.3333007097244262,-0.0755126178264617,0.7295641303062439,0.3758581876754761,-0.1117347106337547,0.6839461922645569,0.4234158396720886,-0.1310966908931732,0.9373998641967772,0.4354535043239593,-0.0505139827728271,0.8268812894821167,0.3834134638309479,-0.0973777249455452,0.7514550685882568,0.4185459315776825,-0.1192017197608947,0.7017346024513245,0.4565971493721008,-0.1255314946174621,0.9332142472267152,0.4990750849246979,-0.0741261467337608,0.8311383128166199,0.4805033206939697,-0.112794242799282,0.7698102593421936,0.4891537427902221,-0.1283262372016906,0.7247071266174316,0.5000483989715576,-0.1319106966257095
2023-08-01 16:06:00.049066,3,620,0.711398184299469,0.224379688501358,-0.0764615908265113,0.661604106426239,-0.4384765625,0.8828125,0.0546875,0.9000608921051025,0.7144460082054138,-9.171108672489936e-07,0.8182650208473206,0.6243028044700623,-0.0085093518719077,0.758015513420105,0.5363615155220032,-0.0288145430386066,0.7056475281715393,0.4849819839000702,-0.0544316582381725,0.6682727336883545,0.4325971901416778,-0.0792906284332275,0.8846122026443481,0.3722427785396576,-0.0063290116377174,0.7932547330856323,0.3327646255493164,-0.0563693419098854,0.7253609299659729,0.3553745746612549,-0.0991889163851738,0.6755975484848022,0.3913855850696563,-0.1243227794766426,0.915196418762207,0.3902739882469177,-0.0258551035076379,0.797863245010376,0.3339070677757263,-0.0741713866591453,0.7242767810821533,0.3768432736396789,-0.1093432381749153,0.6768692135810852,0.4245530962944031,-0.1276577264070511,0.9310476183891296,0.4323793053627014,-0.0498822666704654,0.8211805820465088,0.3806224167346954,-0.0967217460274696,0.7457996010780334,0.4189920425415039,-0.1169373095035553,0.6953504085540771,0.4583597481250763,-0.1218996718525886,0.928341269493103,0.4946834146976471,-0.0741539746522903,0.8255581259727478,0.4778790771961212,-0.1130692362785339,0.7651936411857605,0.4887271821498871,-0.1278816610574722,0.7210124135017395,0.5000145435333252,-0.1305879354476928
2023-08-01 16:06:00.103049,4,621,0.7115966081619263,0.2204213589429855,-0.074426382780075,0.6629520654678345,-0.4208984375,0.88037109375,0.0693359375,0.8988305926322937,0.7152712345123291,-9.0696278221003e-07,0.8174076080322266,0.6263518929481506,-0.0087066832929849,0.7558383941650391,0.5378202199935913,-0.0288649350404739,0.7026489973068237,0.4861051440238952,-0.053907111287117,0.6668534874916077,0.4342098832130432,-0.0780734792351722,0.8840701580047607,0.373009979724884,-0.0079196477308869,0.7918201088905334,0.3300665616989136,-0.0570456124842166,0.7243316769599915,0.3506198227405548,-0.0993014276027679,0.6742595434188843,0.3858453929424286,-0.1242305636405944,0.9137355089187622,0.3924375176429748,-0.026806466281414,0.7946118116378784,0.3347048759460449,-0.0734425857663154,0.7215833067893982,0.3759810030460357,-0.1079406961798667,0.6743656396865845,0.4230281114578247,-0.1264000833034515,0.9284383058547974,0.4359047412872314,-0.0499822311103343,0.8175908923149109,0.3818428516387939,-0.0953264907002449,0.7418200373649597,0.4178090691566467,-0.1151741370558738,0.690558671951294,0.456311970949173,-0.1205011680722236,0.923781156539917,0.4997522234916687,-0.0733858570456504,0.8204917907714844,0.4826958179473877,-0.1118615195155143,0.7590664625167847,0.4923986494541168,-0.1267048865556717,0.7136368155479431,0.5039176940917969,-0.1296869963407516
2023-08-01 16:06:00.184258,5,622,0.712720513343811,0.2117373496294021,-0.071222499012947,0.664924144744873,-0.41748046875,0.8701171875,0.10595703125,0.8922950625419617,0.7130410671234131,-9.000058867059124e-07,0.8096489906311035,0.619580090045929,-0.0075515690259635,0.7496595978736877,0.5323185920715332,-0.0278823487460613,0.6979552507400513,0.4817238450050354,-0.0535635203123092,0.6599843502044678,0.4311861097812652,-0.0785834491252899,0.8776794075965881,0.3708778917789459,-0.0081322211772203,0.7842804193496704,0.3298363089561462,-0.0575827360153198,0.7175138592720032,0.3495494425296783,-0.0995594635605812,0.6687848567962646,0.3826732933521271,-0.1246089711785316,0.908658504486084,0.388857901096344,-0.0283845122903585,0.7896988987922668,0.333550214767456,-0.076423279941082,0.7163628935813904,0.3743507266044616,-0.1105192527174949,0.6677218675613403,0.4207340776920318,-0.1285414844751358,0.9242474436759948,0.4318243861198425,-0.0529279708862304,0.8130785822868347,0.3791167736053467,-0.0996795073151588,0.7378844618797302,0.4157098829746246,-0.1185537502169609,0.6861939430236816,0.4533750712871551,-0.1230249553918838,0.9202711582183838,0.4956215620040893,-0.0777187496423721,0.8183106184005737,0.4801164865493774,-0.1173207536339759,0.7579619884490967,0.4893113076686859,-0.1321196407079696,0.712705671787262,0.4979678690433502,-0.1350235491991043
2023-08-01 16:06:00.263464,6,623,0.715121328830719,0.2016529440879821,-0.0685339868068695,0.6657631993293762,-0.44140625,0.86279296875,0.10302734375,0.8719591498374939,0.7082570791244507,-8.969959708338138e-07,0.7838139533996582,0.6199319958686829,-0.0044265906326472,0.722442090511322,0.5349701642990112,-0.0226208977401256,0.6691487431526184,0.4857673346996307,-0.046357586979866,0.6270294189453125,0.4429754614830017,-0.0700607895851135,0.8481884002685547,0.3670342266559601,-0.0054647540673613,0.7496993541717529,0.324622243642807,-0.0494522675871849,0.6813517808914185,0.3526424467563629,-0.0876400917768478,0.6339978575706482,0.3927789330482483,-0.1104492619633674,0.8787769079208374,0.3831681311130523,-0.0252826493233442,0.7584452629089355,0.3313524127006531,-0.0651986300945282,0.6827895045280457,0.3723869621753692,-0.0945946797728538,0.633489727973938,0.4186201095581054,-0.1111850589513778,0.8924548625946045,0.4265272915363312,-0.0489581562578678,0.7814967036247253,0.375909686088562,-0.0886996611952781,0.7037254571914673,0.4095465540885925,-0.105944700539112,0.6510477066040039,0.4455116689205169,-0.1116325482726097,0.8851025700569153,0.4904779493808746,-0.0726444646716117,0.7826482057571411,0.4775995016098022,-0.1077914834022522,0.7203510403633118,0.4865663051605224,-0.1212394759058952,0.6741377115249634,0.4965401291847229,-0.1244309842586517
2023-08-01 16:06:00.333191,7,624,0.7173373699188232,0.19212706387043,-0.0653477534651756,0.6665162444114685,-0.44677734375,0.8759765625,0.09814453125,0.855979323387146,0.7074159979820251,-9.472993838244292e-07,0.771643877029419,0.6158971190452576,-0.0025720766279846,0.7100136876106262,0.5292596817016602,-0.0200700890272855,0.6577121019363403,0.4797407388687134,-0.0434952229261398,0.6167137026786804,0.4340236485004425,-0.0668175220489502,0.8340960144996643,0.3582246303558349,-0.0052923401817679,0.7333769798278809,0.3260116875171661,-0.0529446974396705,0.6649770736694336,0.349892258644104,-0.0940364375710487,0.6168373227119446,0.3839324712753296,-0.1185447126626968,0.8647453784942627,0.3765687346458435,-0.0275703035295009,0.7398700714111328,0.3335736989974975,-0.0714267343282699,0.6692963242530823,0.3778079152107239,-0.1029905080795288,0.6245688796043396,0.4237198531627655,-0.1204629093408584,0.8793657422065735,0.4225271940231323,-0.0537803992629051,0.7625839114189148,0.3798605799674988,-0.0973608046770095,0.6894676685333252,0.4165690541267395,-0.1150008216500282,0.6399524807929993,0.4520106017589569,-0.119795985519886,0.8747442960739136,0.4902943968772888,-0.079807199537754,0.7682363390922546,0.4761818945407867,-0.1170765608549118,0.707922101020813,0.4847541451454162,-0.130486324429512,0.6631917953491211,0.4928791522979736,-0.1330918669700622
2023-08-01 16:06:00.387865,8,625,0.7190187573432922,0.1842270493507385,-0.0618866942822933,0.6672649383544922,-0.42236328125,0.87841796875,0.09619140625,0.8464482426643372,0.7059335708618164,-9.986893019231502e-07,0.7589072585105896,0.6181965470314026,-0.0016583014512434,0.698253333568573,0.5289520025253296,-0.0170792043209075,0.6482720375061035,0.4765508472919464,-0.0383484587073326,0.6070986986160278,0.4325942397117615,-0.0596512518823146,0.8247429728507996,0.3565154671669006,-0.0032422291114926,0.722156822681427,0.3229227662086487,-0.0486973114311695,0.6528271436691284,0.3506646752357483,-0.0881567671895027,0.6039758324623108,0.3878979682922363,-0.1115729287266731,0.8557964563369751,0.3748409152030945,-0.024762388318777,0.7297165989875793,0.3326593041419983,-0.0656822249293327,0.6557610630989075,0.3776561915874481,-0.0954558625817298,0.6076032519340515,0.4232810735702514,-0.1120091751217842,0.8699970841407776,0.4198549091815948,-0.0500281527638435,0.7521417737007141,0.378271073102951,-0.09116892516613,0.6758438348770142,0.416509062051773,-0.107851006090641,0.6233643293380737,0.4522746801376343,-0.1125586777925491,0.863728404045105,0.4857067465782165,-0.0751008987426757,0.7527178525924683,0.4772305786609649,-0.1110446751117706,0.6903683543205261,0.4891963899135589,-0.123978316783905,0.6443300843238831,0.4986813366413116,-0.1263969242572784
2023-08-01 16:06:00.455513,9,626,0.7210585474967957,0.1742221266031265,-0.0579380244016647,0.6681051254272461,-0.443359375,0.8779296875,0.1181640625,0.8090770840644836,0.7092505693435669,-9.567386314301984e-07,0.7096002697944641,0.6187530755996704,-0.0019889492541551,0.649230420589447,0.5292512774467468,-0.0181548167020082,0.603072464466095,0.4764775931835174,-0.0395497642457485,0.5686184167861938,0.4351098239421844,-0.0621387548744678,0.7806549668312073,0.3583902418613434,-0.0109555330127477,0.6673709750175476,0.3213365375995636,-0.053750891238451,0.5952330827713013,0.3515962064266205,-0.0907304361462593,0.545037031173706,0.3894349336624145,-0.1132804676890373,0.8074079155921936,0.377947062253952,-0.0323021002113819,0.6729235649108887,0.3263174295425415,-0.0702967718243599,0.5968382358551025,0.3710018992424011,-0.0986563116312027,0.5477375984191895,0.4164285659790039,-0.1159062832593917,0.8169795870780945,0.4251487255096435,-0.056585144251585,0.6904610395431519,0.3731823563575744,-0.0942724198102951,0.6135541200637817,0.4098071455955505,-0.112618051469326,0.561810314655304,0.4457244575023651,-0.1206849217414856,0.8087935447692871,0.496289998292923,-0.0806029364466667,0.6920613646507263,0.4878262281417846,-0.1148164793848991,0.6250221133232117,0.4967172145843506,-0.1294291168451309,0.5746046900749207,0.5056076049804688,-0.1346266120672226
2023-08-01 16:06:00.513129,10,627,0.7231469750404358,0.1655669212341308,-0.0570368021726608,0.6681263446807861,-0.4521484375,0.84375,0.14208984375,0.7968669533729553,0.7096478343009949,-9.758814485394396e-07,0.6997307538986206,0.6179969310760498,-6.850276986369863e-05,0.6329380869865417,0.5326783061027527,-0.0180594213306903,0.5784024000167847,0.4845252335071563,-0.0418502204120159,0.5374072790145874,0.4416517913341522,-0.0660205259919166,0.7679901123046875,0.3587514460086822,-0.0092701837420463,0.6530734896659851,0.3227859139442444,-0.0547246299684047,0.5796151161193848,0.3558309376239776,-0.0938397794961929,0.5326251983642578,0.397549033164978,-0.1177677512168884,0.793559193611145,0.3777839541435241,-0.0324339680373668,0.6586283445358276,0.3261764645576477,-0.0730588212609291,0.5818551778793335,0.3755059242248535,-0.1020072028040885,0.5336316227912903,0.4253244698047638,-0.1193198636174202,0.8021519184112549,0.4242554605007171,-0.0585874021053314,0.677747368812561,0.3740514516830444,-0.0979029014706611,0.5996633172035217,0.4143381714820862,-0.1143993884325027,0.5466384887695312,0.4518908858299255,-0.1210956424474716,0.7919772267341614,0.4930590093135834,-0.0842682421207428,0.6803574562072754,0.4832602739334106,-0.1186533197760582,0.615631103515625,0.4955624938011169,-0.1314174830913543,0.5669260621070862,0.5041050314903259,-0.1354166865348816
2023-08-01 16:06:00.575205,11,628,0.7261027097702026,0.1568239480257034,-0.0531180277466774,0.6673526763916016,-0.4521484375,0.8427734375,0.1455078125,0.7922117710113525,0.7075467109680176,-9.73844294094306e-07,0.6894935369491577,0.6183205842971802,-0.0011131761129945,0.6179299354553223,0.536170244216919,-0.0200681462883949,0.5609601140022278,0.4877456426620483,-0.0443155020475387,0.5168044567108154,0.4468088448047638,-0.0686056017875671,0.7556390762329102,0.3578308224678039,-0.0141701810061931,0.6383143663406372,0.3224442899227142,-0.059707585722208,0.5635315775871277,0.3564026951789856,-0.0982791185379028,0.5141668319702148,0.3998563289642334,-0.122014544904232,0.7805178165435791,0.3754653930664062,-0.0369169637560844,0.639999270439148,0.3235286176204681,-0.0780286639928817,0.5629841089248657,0.3763445615768432,-0.1059906855225563,0.5154241919517517,0.4296970963478088,-0.1227038502693176,0.7877537608146667,0.4222363531589508,-0.0623530149459838,0.6591405272483826,0.3714726865291595,-0.1015571504831314,0.5813649892807007,0.4150105118751526,-0.1168797761201858,0.5292013883590698,0.4564335644245147,-0.1227916330099105,0.7763378024101257,0.4928184449672699,-0.0874266996979713,0.6635971069335938,0.4845739901065826,-0.1221207529306411,0.5978127717971802,0.4963257014751434,-0.1350793838500976,0.547944962978363,0.5053684711456299,-0.1391850709915161
2023-08-01 16:06:00.635666,12,629,0.7285568118095398,0.1490307003259658,-0.0482690893113613,0.6668320298194885,-0.4853515625,0.859375,0.1474609375,0.7425596714019775,0.7170990705490112,-9.958083637684467e-07,0.6340770125389099,0.620521068572998,0.0114272953942418,0.5706022381782532,0.5254247784614563,0.0011608757777139,0.5218393802642822,0.4619756937026977,-0.0159165039658546,0.4832397699356079,0.4120213985443115,-0.0339725911617279,0.7024043202400208,0.362692654132843,-0.0097832446917891,0.5805798768997192,0.3251281976699829,-0.0437652356922626,0.5091636776924133,0.3620195388793945,-0.0704040974378585,0.4662182033061981,0.4043579697608948,-0.0873389616608619,0.7207703590393066,0.3826716840267181,-0.0348918437957763,0.5745243430137634,0.3369342684745788,-0.0663916617631912,0.5002789497375488,0.3872720599174499,-0.0864757299423217,0.4550891518592834,0.4375018179416656,-0.1003831773996353,0.7210271954536438,0.4305499196052551,-0.0607487708330154,0.5792433619499207,0.3878304362297058,-0.090869165956974,0.5053493976593018,0.4284099042415619,-0.1035689935088157,0.4563790559768677,0.4675016105175018,-0.111073762178421,0.7055720090866089,0.5015681982040405,-0.0852488279342651,0.5879291296005249,0.4915904998779297,-0.1143420115113258,0.5215619802474976,0.4981020092964172,-0.1286429464817047,0.4707669615745544,0.5043892860412598,-0.1361902505159378
2023-08-01 16:06:00.698964,13,630,0.7304002642631531,0.142738789319992,-0.0454607158899307,0.6663890480995178,-0.44970703125,0.88525390625,0.1376953125,0.7298097610473633,0.7208030223846436,-1.0266277286063996e-06,0.6207370758056641,0.6184448003768921,0.0144943818449974,0.5567868947982788,0.5255963206291199,0.0020380816422402,0.5063483119010925,0.4668743312358856,-0.0178158581256866,0.4661124348640442,0.4184146821498871,-0.0390810221433639,0.6931887269020081,0.359088122844696,-0.0136890336871147,0.5592631101608276,0.3279449939727783,-0.0500725768506526,0.484587162733078,0.3649660348892212,-0.0780502334237098,0.4416507482528686,0.4068307876586914,-0.0959643051028251,0.7090702652931213,0.380126416683197,-0.0414252057671546,0.5537102222442627,0.3388205468654632,-0.0772211924195289,0.4768616259098053,0.3924465179443359,-0.1002735272049903,0.4295393228530884,0.4475199580192566,-0.1161867603659629,0.7067537903785706,0.4297731518745422,-0.0690554529428482,0.5558823347091675,0.3920994699001312,-0.1019556149840354,0.4786193966865539,0.4387831389904022,-0.1169566437602043,0.427959680557251,0.4821398854255676,-0.1264141052961349,0.68753582239151,0.5017358064651489,-0.0947729721665382,0.5687854886054993,0.4972066581249237,-0.1255290210247039,0.5036579370498657,0.5084884166717529,-0.141429603099823,0.4545531272888183,0.5163511037826538,-0.1507088243961334
2023-08-01 16:06:00.761557,14,631,0.7320323586463928,0.1352227181196212,-0.0403225012123584,0.6664964556694031,-0.5029296875,0.89111328125,0.11328125,0.7164486050605774,0.7252402901649475,-1.0319575949324644e-06,0.6069805026054382,0.6238197088241577,0.0148488515987992,0.5417085886001587,0.5281037092208862,0.003764426568523,0.4913161695003509,0.4664981663227081,-0.0144598381593823,0.451038122177124,0.4157938659191131,-0.0343251153826713,0.6762017011642456,0.3610003888607025,-0.0158341117203235,0.5417948365211487,0.3298945426940918,-0.0506376661360263,0.4673376679420471,0.3658060431480407,-0.076802872121334,0.4236916899681091,0.4062292575836181,-0.093944251537323,0.6932790875434875,0.3831426799297333,-0.043278407305479,0.5379523038864136,0.3420643210411072,-0.0776745229959487,0.4616352021694183,0.3927733898162842,-0.0989007651805877,0.4149038791656494,0.4466858208179474,-0.1141539216041565,0.6912574172019958,0.4345483183860779,-0.0704177543520927,0.5402467250823975,0.3954895436763763,-0.1031870618462562,0.4633042514324188,0.4410552978515625,-0.1174189075827598,0.4135711789131164,0.4836989045143127,-0.1267320066690445,0.6724250316619873,0.5082257986068726,-0.0955695286393165,0.5543494820594788,0.5017387270927429,-0.128372922539711,0.4880170226097107,0.5122453570365906,-0.145402118563652,0.4381504654884338,0.5197372436523438,-0.1553697288036346
2023-08-01 16:06:00.825520,15,632,0.7324120402336121,0.1300284713506698,-0.0390295833349227,0.6671895384788513,-0.45166015625,0.84619140625,0.1455078125,0.6795707941055298,0.7304408550262451,-8.961883963820583e-07,0.5674152374267578,0.6417097449302673,0.0188229512423276,0.5039287805557251,0.5537364482879639,0.0054809595458209,0.4446999728679657,0.5018828511238098,-0.0159763749688863,0.3915571570396423,0.4699693322181701,-0.0404131412506103,0.6305463910102844,0.3755393326282501,-0.016452731564641,0.4947882890701294,0.3357411026954651,-0.0481682047247886,0.4201298356056213,0.3748575448989868,-0.0732344090938568,0.3766767084598541,0.4146464169025421,-0.0902402624487876,0.6404138803482056,0.3935236930847168,-0.0460661314427852,0.484583169221878,0.3382771611213684,-0.0733211189508438,0.4090514183044433,0.3862764835357666,-0.0911885425448417,0.3637011051177978,0.4345352351665497,-0.1060497239232063,0.6331229209899902,0.4439198076725006,-0.0743773579597473,0.4832059741020202,0.3930466771125793,-0.0987128317356109,0.4082211256027221,0.4336349368095398,-0.1090253889560699,0.3596501350402832,0.4711781442165375,-0.1180905848741531,0.6099931001663208,0.5167397260665894,-0.100751057267189,0.4955182671546936,0.4988990128040313,-0.1254900097846985,0.4310875236988067,0.5079566240310669,-0.1374796628952026,0.3823499679565429,0.5163323879241943,-0.1456460952758789
2023-08-01 16:06:00.904293,16,633,0.7326819896697998,0.1217914149165153,-0.0331150107085704,0.6687654852867126,-0.46484375,0.8271484375,0.11328125,0.6579422354698181,0.7226923704147339,-8.926649570639711e-07,0.5499395728111267,0.6333181858062744,0.0164342522621154,0.4817025065422058,0.5385349988937378,0.0032749031670391,0.4204888939857483,0.4804510772228241,-0.0175191182643175,0.3678417801856994,0.437826007604599,-0.0407399088144302,0.612471342086792,0.3604278564453125,-0.0140133742243051,0.4698047041893005,0.3214474320411682,-0.0479904413223266,0.3927148580551147,0.3510640561580658,-0.0740899667143821,0.351742148399353,0.3852417767047882,-0.0909096971154213,0.6245536208152771,0.3808899223804474,-0.04286789894104,0.463971883058548,0.3261305093765259,-0.0752531886100769,0.3891416788101196,0.3747636079788208,-0.0958796665072441,0.3475291728973388,0.4277859926223755,-0.1103727370500564,0.6185135245323181,0.4318966567516327,-0.0708814188838005,0.4664514660835266,0.3767163157463074,-0.1009694635868072,0.3933668732643127,0.4257291257381439,-0.113379567861557,0.3489955067634582,0.4712364971637726,-0.1215417087078094,0.5946061611175537,0.5051833987236023,-0.0967041924595832,0.4758304953575134,0.4997355341911316,-0.1271775364875793,0.4128552079200744,0.5159282684326172,-0.1417046338319778,0.3681313097476959,0.5263587832450867,-0.1497585922479629
2023-08-01 16:06:00.980940,17,634,0.7331418991088867,0.1142066791653633,-0.02817346714437,0.6698253750801086,-0.47216796875,0.85302734375,0.076171875,0.6527334451675415,0.7268143892288208,-9.424203994967684e-07,0.5419592261314392,0.6380855441093445,0.0204514190554618,0.4731055200099945,0.5461782217025757,0.0073323380202054,0.4114270210266113,0.4884002804756164,-0.0142057836055755,0.3585487902164459,0.4457489252090454,-0.0380213931202888,0.6021994352340698,0.3626917600631714,-0.0157789085060358,0.4588747918605804,0.3132972121238708,-0.0494689494371414,0.38120037317276,0.3443160057067871,-0.0729390755295753,0.3396317362785339,0.3842142820358276,-0.0872114673256874,0.6120764017105103,0.38273885846138,-0.045950099825859,0.4480191767215729,0.3213719725608825,-0.0768615156412124,0.3745025396347046,0.3728865385055542,-0.0925516262650489,0.3359635174274444,0.4299321472644806,-0.103429302573204,0.6040450930595398,0.4335863292217254,-0.0749577656388282,0.447780966758728,0.3765259385108948,-0.1022954508662223,0.3757433593273163,0.4231851398944855,-0.1100270077586174,0.3334145247936249,0.4694654047489166,-0.1155702471733093,0.5786848068237305,0.5054214000701904,-0.1017467677593231,0.4597382545471191,0.4935483932495117,-0.1290443688631057,0.3967061340808868,0.5066496729850769,-0.1409231126308441,0.3517764210700989,0.5177202224731445,-0.1475807726383209
2023-08-01 16:06:01.062178,18,635,0.7340558171272278,0.1026650294661521,-0.0249952096492052,0.6708183288574219,-0.455078125,0.83447265625,0.1806640625,0.6386517286300659,0.7133692502975464,-9.50662524701329e-07,0.5215648412704468,0.6245155334472656,0.0175120290368795,0.4551460146903991,0.5336405634880066,0.004230392165482,0.39705690741539,0.4725314378738403,-0.0166191980242729,0.3469151258468628,0.4287560284137726,-0.0395765714347362,0.5886038541793823,0.3542234897613525,-0.0197621807456016,0.4462118148803711,0.2958219647407532,-0.0532611384987831,0.3684999346733093,0.3337037265300751,-0.0765087082982063,0.3306318819522857,0.381645917892456,-0.0906025245785713,0.5994471311569214,0.3745072185993194,-0.0472056418657302,0.4358958005905151,0.3109901547431946,-0.0761978030204773,0.3599749803543091,0.3633153438568115,-0.0912912040948867,0.3214698433876037,0.421390563249588,-0.1029132232069969,0.5910395979881287,0.4254233241081238,-0.073706641793251,0.4361827969551086,0.3649082779884338,-0.101382777094841,0.3625159859657287,0.4150471091270447,-0.1102026924490928,0.3199723958969116,0.4652610123157501,-0.1169512867927551,0.5654218792915344,0.4977392554283142,-0.0979845970869064,0.4472759366035461,0.4909163117408752,-0.1267501711845398,0.3818536400794983,0.5068594217300415,-0.139976754784584,0.3347958922386169,0.5200003385543823,-0.1478238105773925
2023-08-01 16:06:01.131763,19,636,0.734513521194458,0.0961911380290985,-0.0230681505054235,0.6713456511497498,-0.48974609375,0.86083984375,0.1708984375,0.5910505652427673,0.7166280746459961,-9.046392506206756e-07,0.4756747484207153,0.6236518621444702,0.0224565751850605,0.4048525094985962,0.5354799032211304,0.0110094305127859,0.3378576636314392,0.4889796078205108,-0.0091371648013591,0.2811603844165802,0.4619178175926208,-0.0312463901937007,0.5376217365264893,0.3512918353080749,-0.0096312165260314,0.3950483500957489,0.3015555739402771,-0.0378395803272724,0.3201415240764618,0.3507294654846191,-0.0588583089411258,0.2804837822914123,0.4025673270225525,-0.0722948685288429,0.5406671166419983,0.3693116307258606,-0.0381310395896434,0.3771647214889526,0.3093716502189636,-0.0603291578590869,0.3006862998008728,0.3626527786254883,-0.0724065378308296,0.2576837539672851,0.4200021028518677,-0.0833718553185463,0.5251707434654236,0.4188155233860016,-0.06546251475811,0.3685753345489502,0.3613314926624298,-0.0853995382785797,0.2953476309776306,0.40666463971138,-0.0916693806648254,0.2511711418628692,0.4523249566555023,-0.0984424129128456,0.4941683113574981,0.4901803135871887,-0.0906116738915443,0.372622013092041,0.4750526547431946,-0.1133799031376838,0.3051037192344665,0.4900135397911072,-0.1235402002930641,0.2564464807510376,0.5049188137054443,-0.1301530301570892
2023-08-01 16:06:01.201104,20,637,0.7342787981033325,0.0925681740045547,-0.0241439118981361,0.6720734238624573,-0.5107421875,0.837890625,0.158203125,0.5604895353317261,0.7175242900848389,-9.55711357164546e-07,0.4358895421028137,0.6208266019821167,0.0343037769198417,0.3647133409976959,0.5351517796516418,0.0290546081960201,0.299207329750061,0.4897500276565552,0.0129471691325306,0.2483620643615722,0.4630197584629059,-0.0062471847049891,0.4999475181102752,0.3451983332633972,0.0017310781404376,0.3517317771911621,0.3131812810897827,-0.0183281749486923,0.2813623547554016,0.3666844367980957,-0.0341353304684162,0.2447736263275146,0.4187301993370056,-0.0447312109172344,0.502319872379303,0.3616751134395599,-0.0309326518326997,0.3352102041244507,0.3161595165729522,-0.0468563772737979,0.2636076807975769,0.3710625469684601,-0.058672122657299,0.2228333204984665,0.430167943239212,-0.0698644295334816,0.487548291683197,0.4127382934093475,-0.0605250857770442,0.3245975375175476,0.3706613183021545,-0.0752181708812713,0.2530810832977295,0.4170122146606445,-0.0814654305577278,0.2085234969854354,0.4615078866481781,-0.0888929367065429,0.4549532830715179,0.4892261624336242,-0.0867492035031318,0.3273111283779144,0.478721410036087,-0.1047142297029495,0.2631568908691406,0.4964881539344787,-0.112099677324295,0.2171894907951355,0.5116917490959167,-0.1169808432459831
2023-08-01 16:06:01.263236,21,638,0.7335322499275208,0.0902104526758194,-0.0224507562816143,0.6732670068740845,-0.5068359375,0.8681640625,0.091796875,0.5484727621078491,0.7123863697052002,-1.0553540050750598e-06,0.4343581795692444,0.6190788745880127,0.0417765118181705,0.3620176315307617,0.5355132818222046,0.04017024487257,0.2923738360404968,0.4900040030479431,0.0258946381509304,0.2344913631677627,0.4653560817241668,0.0085174860432744,0.4925799369812011,0.3416616916656494,0.0108845559880137,0.3457638621330261,0.3061357736587524,-0.0065591307356953,0.2727145552635193,0.3569698333740234,-0.0205863881856203,0.2367794960737228,0.4102183580398559,-0.0300332996994256,0.4941778481006622,0.3590902090072632,-0.0241913627833127,0.3268021941184997,0.3183287978172302,-0.0357777811586856,0.2556867599487304,0.371796578168869,-0.0454760566353797,0.2177507877349853,0.4308151602745056,-0.0564563535153865,0.4790749847888946,0.4103633165359497,-0.0560070350766181,0.3155047297477722,0.3732332289218902,-0.0671371221542358,0.2462034225463867,0.4199652075767517,-0.0722173079848289,0.2046646475791931,0.4665607511997223,-0.0801829919219017,0.4469429552555084,0.486491322517395,-0.0839711725711822,0.3181073069572449,0.4806942343711853,-0.1003200858831405,0.2558209300041199,0.4986792206764221,-0.1080035790801048,0.2121393680572509,0.5157178044319153,-0.113821156322956
2023-08-01 16:06:01.329536,22,639,0.7321262359619141,0.0868680700659751,-0.0270997155457735,0.6750635504722595,-0.46337890625,0.8037109375,0.19189453125,0.5474442839622498,0.7139348983764648,-1.050408855007845e-06,0.4341799914836883,0.6209399104118347,0.0414532721042633,0.3606199622154236,0.5367170572280884,0.0400521010160446,0.2919284701347351,0.4881296753883362,0.0262629799544811,0.2368948310613632,0.4597343802452087,0.0091822789981961,0.4848445057868957,0.3430376648902893,0.009582650847733,0.3349740505218506,0.312759131193161,-0.0073683853261172,0.2632299065589905,0.3641438782215118,-0.020991813391447,0.2275689393281936,0.4171788394451141,-0.0302419550716877,0.4852038919925689,0.3598860204219818,-0.0257876683026552,0.317355066537857,0.3182220458984375,-0.0370955467224121,0.2476375550031662,0.3727306127548218,-0.0461766049265861,0.2108203172683715,0.432909607887268,-0.0564327649772167,0.4706752002239227,0.4115625619888305,-0.057776678353548,0.3080291748046875,0.3697113394737243,-0.0691065415740013,0.2401969134807586,0.4173906147480011,-0.0732070058584213,0.2001437395811081,0.4642377495765686,-0.0801141634583473,0.4395888149738312,0.4894378781318664,-0.085917018353939,0.3114545941352844,0.479153424501419,-0.1029360517859458,0.2510662674903869,0.4955069422721863,-0.109945148229599,0.2090204209089279,0.5100324153900146,-0.1148936972022056
2023-08-01 16:06:01.410951,23,640,0.7315165400505066,0.087892085313797,-0.0283767338842153,0.6755393147468567,-0.482421875,0.85400390625,0.1640625,0.5386431217193604,0.7094550728797913,-1.047004161591758e-06,0.4273334741592407,0.6132067441940308,0.0457607544958591,0.3569252490997314,0.5303030610084534,0.0472910217940807,0.2906197905540466,0.4823315143585205,0.0360565111041069,0.2367337644100189,0.4571036398410797,0.0210547428578138,0.4804593920707702,0.3412058353424072,0.0136756151914596,0.3309110403060913,0.3126504421234131,7.185183494584635e-05,0.2588823437690735,0.3634859323501587,-0.0113247064873576,0.222613587975502,0.4139614701271057,-0.0192367266863584,0.4803305864334106,0.3570874333381653,-0.0215467158704996,0.3128894567489624,0.3187538981437683,-0.0294970795512199,0.2431319653987884,0.3724745512008667,-0.0370049178600311,0.2057284861803054,0.4309062957763672,-0.046593464910984,0.4642938375473022,0.4072539508342743,-0.052727498114109,0.3016561269760132,0.3720409870147705,-0.0604101829230785,0.2340779900550842,0.4196251034736633,-0.0643660724163055,0.1934507340192794,0.4661003649234772,-0.0719786956906318,0.4317883551120758,0.4831157624721527,-0.0796744376420974,0.304697722196579,0.4802560210227966,-0.0927668660879135,0.2454314678907394,0.5001316666603088,-0.0988827943801879,0.203879177570343,0.5176457166671753,-0.103930190205574
2023-08-01 16:06:01.478578,24,641,0.7310966849327087,0.0908800587058067,-0.0291852243244647,0.6755640506744385,-0.46826171875,0.8486328125,0.130859375,0.5275532007217407,0.6862486600875854,-1.006099068945332e-06,0.4075930714607239,0.5963428020477295,0.045378241688013,0.340454638004303,0.5202196836471558,0.0478875376284122,0.2757347226142883,0.4799728393554687,0.0377907417714595,0.223416730761528,0.4579217433929443,0.0235226340591907,0.4572974443435669,0.3262843489646911,0.0172106903046369,0.3070312738418579,0.3084639310836792,0.0055551091209053,0.2383725494146347,0.3667523860931396,-0.0056529277935624,0.2057702988386154,0.4136976301670074,-0.0145126348361372,0.4577741324901581,0.3412239551544189,-0.0176650322973728,0.2908225655555725,0.3115330636501312,-0.0266295205801725,0.2234852612018585,0.3685130774974823,-0.0350873954594135,0.1879301965236663,0.4250110387802124,-0.0449944175779819,0.4431051313877105,0.391885757446289,-0.0485845357179641,0.280692458152771,0.3639761805534363,-0.0580624751746654,0.2135110348463058,0.4124906659126282,-0.0625415071845054,0.1724690943956375,0.4548552930355072,-0.0699928104877471,0.4140008091926574,0.4679866135120392,-0.0752427130937576,0.2878393828868866,0.4670982956886291,-0.0898543447256088,0.2276019901037216,0.4864586889743805,-0.0962536931037902,0.1844939887523651,0.4997328817844391,-0.101267285645008
2023-08-01 16:06:01.534035,25,642,0.7305430769920349,0.0923997834324836,-0.0307367574423551,0.6758877635002136,-0.470703125,0.8427734375,0.14892578125,0.5215200185775757,0.6836389899253845,-1.0651740467437776e-06,0.4173882901668548,0.5887205600738525,0.0501557439565658,0.3474164009094238,0.5116390585899353,0.0529949069023132,0.2793227434158325,0.4652673006057739,0.0429547578096389,0.2250738590955734,0.4432137608528137,0.0284112635999918,0.4590085744857788,0.3198888003826141,0.0117380451411008,0.30601567029953,0.3082925379276275,0.0059088673442602,0.2382179945707321,0.3673505783081054,0.0011435905471444,0.2054600268602371,0.4175407588481903,-0.004127312451601,0.4593881666660309,0.3329209685325622,-0.0246901735663414,0.2882603406906128,0.3096691966056824,-0.0279842093586921,0.2214456647634506,0.3696348965167999,-0.0318313054740428,0.1877582222223281,0.4308238923549652,-0.0403826236724853,0.4449324607849121,0.3841651082038879,-0.0553607903420925,0.2794489860534668,0.3568744361400604,-0.0589684769511222,0.2148166745901107,0.4112951755523681,-0.0596414618194103,0.1777364015579223,0.4609205424785614,-0.0668980330228805,0.4145054519176483,0.4646598696708679,-0.0812018364667892,0.2863943874835968,0.4655538499355316,-0.0938194841146469,0.229392260313034,0.4879562854766845,-0.0988827943801879,0.1910626143217086,0.5051144957542419,-0.1040083914995193
2023-08-01 16:06:01.602583,26,643,0.7302808165550232,0.0962598696351051,-0.0346189327538013,0.6754446625709534,-0.44677734375,0.8603515625,0.173828125,0.5288734436035156,0.6834299564361572,-1.0431348300699028e-06,0.4182204604148865,0.5937573909759521,0.0420078709721565,0.3455771803855896,0.5133800506591797,0.0422545969486236,0.278454065322876,0.4680555760860443,0.0313509106636047,0.2247186303138733,0.4444674253463745,0.0165003985166549,0.4629930555820465,0.3200219869613647,0.0049235504120588,0.3104801177978515,0.3059527277946472,-0.0068304040469229,0.2399343997240066,0.361877292394638,-0.0158389583230018,0.204940840601921,0.4125603437423706,-0.0229740981012582,0.4648852348327636,0.3343305289745331,-0.0283912476152181,0.2952155470848083,0.3056273460388183,-0.0362765304744243,0.2259393185377121,0.3632636368274688,-0.0419806092977523,0.1896649152040481,0.4235636293888092,-0.0504833534359931,0.4517232179641723,0.386380136013031,-0.0571175478398799,0.288345992565155,0.3546487689018249,-0.0653798207640647,0.2212096154689788,0.4058134853839874,-0.0677666217088699,0.1812463700771331,0.4530724287033081,-0.0744320079684257,0.4223246574401855,0.467962771654129,-0.081630527973175,0.2955984473228454,0.4678726196289062,-0.0970352068543434,0.2359088510274887,0.487051248550415,-0.1033157110214233,0.193694606423378,0.5018540024757385,-0.1082566007971763
2023-08-01 16:06:01.664841,27,644,0.729925811290741,0.1026103347539901,-0.0367267280817031,0.6747819185256958,-0.44140625,0.87841796875,0.17822265625,0.5394198894500732,0.6825451254844666,-1.0294779713149182e-06,0.4226702749729156,0.5934911966323853,0.037579458206892,0.3510762453079223,0.5146864652633667,0.032078418880701,0.2857236862182617,0.4732467830181122,0.0149193545803427,0.2340002804994583,0.4467384219169616,-0.0055258185602724,0.4779145419597626,0.3189347982406616,0.0020640259608626,0.3297651410102844,0.3030379116535187,-0.0174247696995735,0.2609183192253113,0.3599030375480652,-0.0342236012220382,0.2265427857637405,0.4132263660430908,-0.0469901636242866,0.4807890653610229,0.3344375193119049,-0.0331155247986316,0.3129622340202331,0.3012336790561676,-0.0487705916166305,0.2455470114946365,0.358604371547699,-0.0611859336495399,0.209440141916275,0.4192639291286468,-0.0747808292508125,0.468289315700531,0.3860539197921753,-0.0648533254861831,0.3079800307750702,0.3473039269447326,-0.0796614214777946,0.2402455359697342,0.3965612649917602,-0.0856697037816047,0.1989542245864868,0.4447507858276367,-0.0948646515607833,0.4402260780334472,0.4630023837089538,-0.0929967164993286,0.3155786693096161,0.4608338475227356,-0.1141954958438873,0.2529289126396179,0.4813790619373321,-0.1241868510842323,0.2073422372341156,0.498489111661911,-0.1321448385715484
2023-08-01 16:06:01.728397,28,645,0.7288907766342163,0.1084711924195289,-0.0389616414904594,0.6748586893081665,-0.482421875,0.86767578125,0.1435546875,0.5480480194091797,0.6882029175758362,-1.0581683227428584e-06,0.4330507814884186,0.5986043214797974,0.0400104597210884,0.3607386350631714,0.5174291133880615,0.036706231534481,0.2929325997829437,0.4747720956802368,0.0213517658412456,0.2381754368543625,0.4477798044681549,0.0025926488451659,0.4825952649116516,0.3236090838909149,0.0048854807391762,0.3341512680053711,0.30252206325531,-0.013232565484941,0.2652095258235931,0.3579775691032409,-0.0286234896630048,0.2297864109277725,0.4111587703227997,-0.0397069789469242,0.4854080975055694,0.339580774307251,-0.0298059433698654,0.317440003156662,0.3069999516010284,-0.0428594127297401,0.2487456798553466,0.361765444278717,-0.0539657026529312,0.2109895497560501,0.4227951169013977,-0.0667357966303825,0.4730159938335418,0.3905548751354217,-0.0607913807034492,0.3111087083816528,0.359470784664154,-0.0717521458864212,0.24374620616436,0.4062204658985138,-0.0768056735396385,0.202799379825592,0.4528798460960388,-0.0858400613069534,0.4450215697288513,0.465422660112381,-0.0881533026695251,0.3195766806602478,0.4615881443023681,-0.1047468036413192,0.2578774988651275,0.4807032942771911,-0.1126042380928993,0.2131630927324295,0.4980915784835815,-0.1194265708327293
2023-08-01 16:06:01.789492,29,646,0.7273350358009338,0.1145064979791641,-0.0426787734031677,0.6753151416778564,-0.46240234375,0.83984375,0.162109375,0.5475817918777466,0.6873427033424377,-1.0287164968758589e-06,0.4328966438770294,0.5993317365646362,0.0389929488301277,0.3584638833999634,0.5208079218864441,0.0353723019361496,0.286611795425415,0.4826570749282837,0.0200432278215885,0.2292395234107971,0.4605900049209595,0.0014994930243119,0.48381108045578,0.3260077834129333,0.0042948271147906,0.3349192142486572,0.3035536408424377,-0.012095090933144,0.2646738588809967,0.3581153750419616,-0.0253270287066698,0.2291553616523742,0.4118272662162781,-0.0350081995129585,0.4871588945388794,0.339273452758789,-0.0297042224556207,0.3190609514713287,0.3040120601654053,-0.041870467364788,0.2512297630310058,0.3594717979431152,-0.0513116270303726,0.2151221483945846,0.421476274728775,-0.0624853447079658,0.4746545255184173,0.3889123201370239,-0.0598993711173534,0.3125545382499695,0.3544946908950805,-0.0708425566554069,0.2462370842695236,0.4034240245819092,-0.0752430781722068,0.2066359221935272,0.4529431164264679,-0.0832929834723472,0.4456848502159118,0.4644902348518371,-0.0864137783646583,0.3191633820533752,0.4629757106304168,-0.1043976992368698,0.2578925788402557,0.4844932556152344,-0.1127716302871704,0.2145054638385772,0.5054210424423218,-0.1191907227039337
2023-08-01 16:06:01.861712,30,647,0.7254747152328491,0.1231337413191795,-0.0472385883331298,0.6754946708679199,-0.41748046875,0.85595703125,0.1826171875,0.5959256887435913,0.6833285689353943,-1.0968542483169583e-06,0.4831517934799194,0.5981094837188721,0.0247350353747606,0.4095227718353271,0.5169857740402222,0.0131882121786475,0.3432132303714752,0.4728925228118896,-0.0070847119204699,0.2894688546657562,0.4426083266735077,-0.0289286412298679,0.5359079241752625,0.326248824596405,-0.0186484493315219,0.3925225138664245,0.2877904772758484,-0.052452802658081,0.3183758854866028,0.3405030369758606,-0.0750286132097244,0.2782896757125854,0.3932872414588928,-0.0887858793139457,0.5408456921577454,0.3432047665119171,-0.0485131181776523,0.3709850311279297,0.2946861982345581,-0.079153336584568,0.3001423478126526,0.354785144329071,-0.0921397879719734,0.2626873254776001,0.4167190194129944,-0.101833164691925,0.5290010571479797,0.3930187821388244,-0.0765465572476387,0.3680209219455719,0.3487536907196045,-0.1027689799666404,0.2995904386043548,0.3974961936473846,-0.1073604375123977,0.2591327726840973,0.4439457058906555,-0.1112195029854774,0.5021721720695496,0.4655071794986725,-0.1019387245178222,0.3836880326271057,0.454001635313034,-0.1288158148527145,0.3174080848693847,0.469963014125824,-0.1396632939577102,0.2683517932891845,0.4826814234256744,-0.1458940804004669
2023-08-01 16:06:01.933815,31,648,0.7242910861968994,0.1338885128498077,-0.0503569580614566,0.6744927763938904,-0.45458984375,0.88037109375,0.15625,0.6082620620727539,0.6779464483261108,-9.996379048970994e-07,0.4930632412433624,0.5984238386154175,0.027678370475769,0.4228910803794861,0.5192919969558716,0.016179159283638,0.3567054867744446,0.4758298993110657,-0.0050434889271855,0.3007086217403412,0.4448653161525726,-0.028508385643363,0.5481104850769043,0.3252373933792114,-0.0126764243468642,0.4069735705852508,0.2837787866592407,-0.0440787822008132,0.3325256109237671,0.3335850536823272,-0.0660510286688804,0.291928768157959,0.3871399164199829,-0.0791886374354362,0.5519216060638428,0.3414961993694305,-0.0437063947319984,0.3855278789997101,0.2891919910907745,-0.0687774196267128,0.3140618205070495,0.3483567535877228,-0.0794672220945358,0.2772800922393799,0.4117076992988586,-0.0885554254055023,0.5396377444267273,0.3913218379020691,-0.0729226991534233,0.3792470693588257,0.3495146334171295,-0.0934893488883972,0.3105331063270569,0.3963142335414886,-0.0962620973587036,0.2704829573631286,0.4428383409976959,-0.1004404947161674,0.5115871429443359,0.4623353779315948,-0.0995677858591079,0.3938309848308563,0.451921284198761,-0.1198744922876358,0.3313357234001159,0.4679880142211914,-0.1268297284841537,0.2861308455467224,0.4822204113006592,-0.1315731257200241
2023-08-01 16:06:01.994991,32,649,0.7225657105445862,0.1444116234779358,-0.0534313134849071,0.6739356517791748,-0.46044921875,0.861328125,0.115234375,0.6199042201042175,0.6793757677078247,-9.999159829021664e-07,0.5060706734657288,0.6000831127166748,0.0291154868900775,0.4362482130527496,0.5191609859466553,0.0198494046926498,0.3708777129650116,0.4743572175502777,0.0006694074836559,0.3162656128406524,0.4426172971725464,-0.0210522208362817,0.5632195472717285,0.3270970284938812,-0.0090382564812898,0.421822041273117,0.2841060757637024,-0.0389850810170173,0.34651780128479,0.3296957314014435,-0.0606779046356678,0.3075774908065796,0.3798993825912475,-0.0739075616002082,0.5657308101654053,0.3450835943222046,-0.0402644015848636,0.3998639583587646,0.2898681759834289,-0.0652099698781967,0.3274202644824981,0.3462914228439331,-0.0778424367308616,0.2907188236713409,0.4088086783885956,-0.088047556579113,0.5526235103607178,0.3949607014656067,-0.0695075541734695,0.3923332989215851,0.3493175208568573,-0.0901095122098922,0.3220323920249939,0.3944068551063537,-0.0949855893850326,0.280828595161438,0.4412203133106231,-0.1001802310347557,0.5246220231056213,0.4665706157684326,-0.0960157886147499,0.4086834192276001,0.4514169096946716,-0.115625113248825,0.3474514484405517,0.4640557169914245,-0.1234383955597877,0.3030076026916504,0.4764254093170166,-0.1288933008909225
2023-08-01 16:06:02.055709,33,650,0.7204551696777344,0.1540771126747131,-0.058438517153263,0.6736389994621277,-0.40283203125,0.8623046875,0.12939453125,0.6720282435417175,0.6753726005554199,-1.00982754247525e-06,0.5529516935348511,0.5878211855888367,0.0203986205160617,0.4841707646846771,0.5004014372825623,0.0082581005990505,0.4219208359718323,0.445152997970581,-0.0127173122018575,0.3705451190471649,0.4040409028530121,-0.035528291016817,0.6061954498291016,0.3187388777732849,-0.012309668585658,0.4694271683692932,0.2732040882110595,-0.0492288954555988,0.3940879702568054,0.3027844727039337,-0.0764071717858314,0.3517925143241882,0.344014823436737,-0.0928460359573364,0.62127685546875,0.3358681201934814,-0.0420513860881328,0.4617553949356079,0.2839410305023193,-0.0743885710835456,0.3914203643798828,0.3338193893432617,-0.0939285308122634,0.3523871004581451,0.388134241104126,-0.1077896952629089,0.6194376945495605,0.3834178447723388,-0.0710012316703796,0.4692624807357788,0.3368737399578094,-0.1007455140352249,0.3977367877960205,0.3856512904167175,-0.1115724518895149,0.3527285456657409,0.4337032735347748,-0.1185341328382492,0.6008762717247009,0.455035388469696,-0.0975944176316261,0.4876806437969208,0.4542025029659271,-0.1249672248959541,0.4244287014007568,0.4689531028270721,-0.1377226859331131,0.3752327859401703,0.4802989065647125,-0.1449865251779556
2023-08-01 16:06:02.114199,34,651,0.7193901538848877,0.1626967489719391,-0.0599006228148937,0.6726212501525879,-0.47021484375,0.8671875,0.09619140625,0.6877014636993408,0.6709683537483215,-9.912589575833408e-07,0.5718808174133301,0.5780199766159058,0.0210538525134325,0.5015108585357666,0.4927725493907928,0.0073807244189083,0.4408203363418579,0.4403354227542877,-0.0156144704669713,0.3910454511642456,0.3956263959407806,-0.0411070883274078,0.6242035031318665,0.3103078603744507,-0.0162480250000953,0.4802730679512024,0.2738625109195709,-0.0555481947958469,0.4003127813339233,0.301500141620636,-0.0850850567221641,0.3521111011505127,0.3385096192359924,-0.1035346835851669,0.6401243805885315,0.3316060602664947,-0.0481011681258678,0.4758879840373993,0.2849459648132324,-0.0826175659894943,0.4004462957382202,0.3351790010929107,-0.105128489434719,0.3558927774429321,0.3861605823040008,-0.1226989850401878,0.6394006609916687,0.3843369781970978,-0.0787927210330963,0.4880851507186889,0.340507447719574,-0.1104559674859047,0.4146706461906433,0.3924461007118225,-0.1228611841797828,0.3679231703281402,0.4407692849636078,-0.1319494843482971,0.622377336025238,0.4589414000511169,-0.1070853844285011,0.50733482837677,0.4519339799880981,-0.1369479894638061,0.4419997930526733,0.4647608995437622,-0.1518860459327697,0.392153799533844,0.4735526740550995,-0.1615467667579651
2023-08-01 16:06:02.173763,35,652,0.7182257771492004,0.1710975915193557,-0.0632294118404388,0.6714755296707153,-0.43603515625,0.83984375,0.09375,0.701129138469696,0.6706691980361938,-9.913753729051678e-07,0.5888481736183167,0.5775116682052612,0.0201703365892171,0.5199480652809143,0.4935831725597381,0.0060513610951602,0.4576673805713653,0.4466613233089447,-0.0177303906530141,0.4050744473934173,0.4062367081642151,-0.0441709943115711,0.6465279459953308,0.3097243905067444,-0.0083058327436447,0.5080626606941223,0.2830145359039306,-0.0468607656657695,0.4307936728000641,0.3089239597320556,-0.078043594956398,0.3832552433013916,0.3415758311748504,-0.0981847941875457,0.6597086191177368,0.3311391472816467,-0.0403313152492046,0.5015741586685181,0.2894917130470276,-0.0772232860326767,0.4279204308986664,0.3431420028209686,-0.1035662218928337,0.3817139565944671,0.3963005840778351,-0.1223798617720604,0.6568703651428223,0.382394939661026,-0.0715984255075454,0.5095280408859253,0.3375207781791687,-0.1049514859914779,0.4370461404323578,0.3869531750679016,-0.1190725862979888,0.3884520828723907,0.4330422580242157,-0.1281396001577377,0.6375613808631897,0.455941379070282,-0.1005042567849159,0.5219396352767944,0.4471174776554107,-0.1300466954708099,0.4587657749652862,0.4584369361400604,-0.1439854502677917,0.4103192090988159,0.4651933014392853,-0.1524657607078552
2023-08-01 16:06:02.235935,36,653,0.7173412442207336,0.178790271282196,-0.0659200102090835,0.670156717300415,-0.40283203125,0.87744140625,0.13427734375,0.7564518451690674,0.678139328956604,-1.0732890132203463e-06,0.6416851878166199,0.5840681791305542,0.0113733373582363,0.5674792528152466,0.5018856525421143,-0.0039992230013012,0.5056419372558594,0.4581075608730316,-0.0273526646196842,0.4640897214412689,0.4159295856952667,-0.0516123995184898,0.7075520753860474,0.3099223673343658,-0.0063600861467421,0.5770955085754395,0.2883062064647674,-0.0435332506895065,0.5043869614601135,0.3287958800792694,-0.0751616358757019,0.4629129767417907,0.3721797168254852,-0.0960225909948349,0.727379322052002,0.3268879950046539,-0.0342697091400623,0.5756611227989197,0.2895936667919159,-0.0691181719303131,0.5012785792350769,0.3459128439426422,-0.0942778289318084,0.4566908180713653,0.4033357203006744,-0.111747995018959,0.7307577133178711,0.3754826784133911,-0.0630206540226936,0.5896568298339844,0.3355558812618255,-0.0951525494456291,0.5146550536155701,0.3794967532157898,-0.1079429686069488,0.4654372930526733,0.4242868721485138,-0.1155448108911514,0.716785192489624,0.4489242434501648,-0.0904567316174507,0.5991973876953125,0.4484755098819732,-0.1195448786020279,0.5351472496986389,0.4616473615169525,-0.1311171650886535,0.4867999851703644,0.4704009592533111,-0.1367446035146713
2023-08-01 16:06:02.300670,37,654,0.7171775102615356,0.1852560937404632,-0.0652506202459335,0.668639600276947,-0.46630859375,0.8955078125,0.0888671875,0.769464910030365,0.6765525341033936,-9.86364057098399e-07,0.6578471064567566,0.5846120715141296,0.0094660446047782,0.5830724239349365,0.5019303560256958,-0.0067415474914014,0.5248403549194336,0.4535762667655945,-0.0303029660135507,0.4864864647388458,0.4144197106361389,-0.0544135197997093,0.719687819480896,0.3162112534046173,-0.0102185616269707,0.5949228405952454,0.291129320859909,-0.0503483042120933,0.5236579775810242,0.3289440870285034,-0.0840969681739807,0.4785493016242981,0.372098445892334,-0.1053922399878501,0.7397720217704773,0.3337754905223846,-0.0370213873684406,0.5897974967956543,0.2934918403625488,-0.0731003955006599,0.5184291005134583,0.3452186584472656,-0.0982468873262405,0.4750353097915649,0.3994289934635162,-0.114909790456295,0.7437257766723633,0.3820401728153229,-0.0648694112896919,0.603684663772583,0.3428210914134979,-0.0967336371541023,0.5295461416244507,0.3823943138122558,-0.1091387644410133,0.4793596267700195,0.4229428470134735,-0.1158070117235183,0.7299866676330566,0.456017404794693,-0.0917360112071037,0.614230215549469,0.4506019055843353,-0.1195379719138145,0.5512166023254395,0.4610375463962555,-0.1302075088024139,0.5037493705749512,0.4698373675346374,-0.1347682923078537
2023-08-01 16:06:02.359938,38,655,0.7162004709243774,0.1925367712974548,-0.0655622780323028,0.6675986647605896,-0.45703125,0.88623046875,0.095703125,0.7777005434036255,0.6782082319259644,-9.980013828680967e-07,0.6710291504859924,0.5880383253097534,0.0073569831438362,0.5958537459373474,0.5055187940597534,-0.0093508940190076,0.5379207134246826,0.4569994807243347,-0.0329229161143302,0.4996589124202728,0.4137755632400512,-0.0567487180233001,0.7325591444969177,0.3225544095039367,-0.0126008875668048,0.6095662117004395,0.2945324778556824,-0.0541488267481327,0.5386878848075867,0.3318103849887848,-0.0880593061447143,0.4944421052932739,0.3748340010643005,-0.10895686596632,0.7534447312355042,0.3403351008892059,-0.0383960977196693,0.6053471565246582,0.2977383732795715,-0.07678684592247,0.5338426828384399,0.3488731980323791,-0.1026151403784751,0.4906092882156372,0.4034940600395202,-0.1189638972282409,0.7584198117256165,0.3870360255241394,-0.065476194024086,0.6191299557685852,0.3485007584095001,-0.0992346033453941,0.5454773902893066,0.3885402679443359,-0.112754113972187,0.4963315725326538,0.4295498728752136,-0.1194359362125396,0.7462449073791504,0.4575998783111572,-0.091652326285839,0.6326978206634521,0.4512870609760284,-0.1205823123455047,0.5692412853240967,0.4622828960418701,-0.1324259936809539,0.5211971998214722,0.4717576503753662,-0.1374689638614654
2023-08-01 16:06:02.416607,39,656,0.7147676348686218,0.1982535421848297,-0.0670012906193733,0.6673181056976318,-0.40673828125,0.88720703125,0.12060546875,0.7869690656661987,0.6814076900482178,-9.906597142617102e-07,0.6800788640975952,0.5912632942199707,0.0032010246068239,0.6062372922897339,0.5079982876777649,-0.0160567872226238,0.5491601824760437,0.4597341418266296,-0.0419798269867897,0.5118699669837952,0.4174395501613617,-0.0679164677858352,0.7399104237556458,0.3255897164344787,-0.0126997241750359,0.6203569173812866,0.2956145405769348,-0.0589764229953289,0.5485838055610657,0.3302804827690124,-0.0975008383393287,0.5009528398513794,0.3739071488380432,-0.1211470514535904,0.7639021873474121,0.3420912027359009,-0.0385151356458663,0.6192202568054199,0.2980915307998657,-0.0814941674470901,0.5470133423805237,0.3516414761543274,-0.1117584109306335,0.5023908019065857,0.4059592187404632,-0.1304192692041397,0.7718957662582397,0.387631207704544,-0.0664570331573486,0.6362972855567932,0.3438058793544769,-0.1038080602884292,0.562173068523407,0.3881838321685791,-0.1193628385663032,0.5125964879989624,0.4313389658927917,-0.1266099661588668,0.7620692253112793,0.4583387672901153,-0.0939881727099418,0.6480135917663574,0.4520813226699829,-0.1255343556404113,0.5847837328910828,0.4647219777107239,-0.1383096724748611,0.5377516746520996,0.4750590920448303,-0.1434391289949417
2023-08-01 16:06:02.491500,40,657,0.7135867476463318,0.2043188065290451,-0.0693226382136344,0.6665148735046387,-0.42431640625,0.8671875,0.11572265625,0.8203511238098145,0.6954436302185059,-1.0754350796560177e-06,0.7241567373275757,0.6041913628578186,0.003373286454007,0.6546441912651062,0.5165120959281921,-0.013510338962078,0.595299243927002,0.4662528336048126,-0.0373160764575004,0.5529407858848572,0.4223864376544952,-0.0613513402640819,0.7828677296638489,0.3366262018680572,-0.0078469421714544,0.6642581224441528,0.3044332861900329,-0.0513379499316215,0.592749834060669,0.3408215343952179,-0.0871856063604354,0.5506410598754883,0.3838536441326141,-0.1094612181186676,0.8098433017730713,0.3528885841369629,-0.0334641262888908,0.6697521209716797,0.3068782985210418,-0.075195163488388,0.5950964093208313,0.3605328798294067,-0.103583738207817,0.5497238636016846,0.4156336486339569,-0.1202015131711959,0.8208011984825134,0.3989553153514862,-0.0615363456308841,0.6888538599014282,0.351284384727478,-0.1011093333363533,0.6135677695274353,0.3940623998641968,-0.1155331283807754,0.5646875500679016,0.436212420463562,-0.1206759661436081,0.8135393261909485,0.4685456156730652,-0.0889736413955688,0.7003098726272583,0.4623906016349792,-0.1237984895706176,0.6367542147636414,0.4746586382389068,-0.1363528370857238,0.5895962119102478,0.4845344126224518,-0.140220507979393
2023-08-01 16:06:02.586534,41,658,0.7125107645988464,0.2126082628965377,-0.0703244432806968,0.6649666428565979,-0.443359375,0.88330078125,0.0703125,0.8373066782951355,0.692961573600769,-9.709863206808222e-07,0.7350881695747375,0.6016235947608948,0.0028365082107484,0.6649379134178162,0.5175985097885132,-0.0154049089178442,0.6084362268447876,0.4710602164268493,-0.040803987532854,0.5690479278564453,0.4254958927631378,-0.0667755454778671,0.792332112789154,0.336349219083786,-0.0055263615213334,0.6769304871559143,0.3086123764514923,-0.0525959059596061,0.6056888699531555,0.33675616979599,-0.0938231796026229,0.5543079972267151,0.375651478767395,-0.1187033280730247,0.8197359442710876,0.3533229231834411,-0.0311863925307989,0.6803281307220459,0.3083417415618896,-0.0738517269492149,0.6053429841995239,0.3539766669273376,-0.1073247119784355,0.5550358295440674,0.4040139317512512,-0.1280620396137237,0.8306177854537964,0.3985481560230255,-0.059614036232233,0.7024999856948853,0.3540433049201965,-0.0992291569709777,0.6267040967941284,0.3941607475280761,-0.1177857592701911,0.5743513107299805,0.4353870749473572,-0.125864952802658,0.8220794796943665,0.4672566652297973,-0.0875234305858612,0.7121887803077698,0.4568880200386047,-0.1202764883637428,0.6510006189346313,0.468790739774704,-0.1331789642572403,0.604605495929718,0.4797475337982178,-0.1376873105764389
2023-08-01 16:06:02.674303,42,659,0.7114274501800537,0.2180627286434173,-0.0710112899541854,0.664286732673645,-0.41943359375,0.88330078125,0.07861328125,0.861806333065033,0.6986145973205566,-9.837991683525615e-07,0.7700037956237793,0.6027371883392334,0.0010709295747801,0.7019771933555603,0.5153033137321472,-0.0157274063676595,0.6432593464851379,0.4656858444213867,-0.0391161665320396,0.6025176048278809,0.4176289141178131,-0.0625471994280815,0.823418140411377,0.345896452665329,-0.0028782102745026,0.716485857963562,0.3169106841087341,-0.0470718890428543,0.6480937004089355,0.3423002958297729,-0.0855996236205101,0.6021909713745117,0.3751317262649536,-0.1097271740436554,0.8523730039596558,0.3612728714942932,-0.0270640477538108,0.7238677144050598,0.3176189661026001,-0.0695936679840087,0.6521972417831421,0.362579345703125,-0.102173164486885,0.605951726436615,0.4105030000209808,-0.1217734441161155,0.8669191598892212,0.4042117595672607,-0.0542992204427719,0.7444201707839966,0.3607856035232544,-0.0954314842820167,0.6709092855453491,0.3980889320373535,-0.113745778799057,0.6215130686759949,0.4361427128314972,-0.1209223717451095,0.8636557459831238,0.4708698689937591,-0.0810307636857032,0.7565690875053406,0.4622995555400848,-0.1162924617528915,0.6970763206481934,0.4712235033512115,-0.130197525024414,0.6527904272079468,0.4782316386699676,-0.1347860693931579
2023-08-01 16:06:02.747743,43,660,0.710564911365509,0.2227841019630432,-0.0712659135460853,0.6636158227920532,-0.4228515625,0.8828125,0.07275390625,0.8706520795822144,0.6994701623916626,-9.733709021020331e-07,0.775423526763916,0.6049299240112305,0.0074586062692105,0.7081339359283447,0.5195724368095398,-0.0089021855965256,0.652319073677063,0.471622109413147,-0.0342833846807479,0.6143534183502197,0.4199047684669494,-0.0602739229798316,0.8372055888175964,0.3459275364875793,0.0056235259398818,0.7270804643630981,0.3162351846694946,-0.0397458784282207,0.6575809717178345,0.338473230600357,-0.0812879055738449,0.6066832542419434,0.3722075223922729,-0.1071987077593803,0.8660561442375183,0.3618985116481781,-0.0228631868958473,0.7305195331573486,0.3193557262420654,-0.0656718388199806,0.6583680510520935,0.3616531491279602,-0.101431094110012,0.6110451817512512,0.406357079744339,-0.1240410655736923,0.8783550262451172,0.4038324952125549,-0.0544364862143993,0.752090573310852,0.3623506426811218,-0.0949740409851074,0.677625834941864,0.3988721966743469,-0.1159385293722152,0.627470850944519,0.4378364980220794,-0.1254839599132537,0.8717917203903198,0.4676605761051178,-0.0852949321269989,0.7644141316413879,0.4540169537067413,-0.1191343665122985,0.7033454179763794,0.4647779762744903,-0.1342099606990814,0.6575148701667786,0.4777471721172333,-0.1403669416904449
2023-08-01 16:06:02.816834,44,661,0.7101183533668518,0.2249973267316818,-0.0716305375099182,0.6633078455924988,-0.4326171875,0.86767578125,0.09375,0.8841246366500854,0.6980429291725159,-9.36209914925712e-07,0.7966089248657227,0.6045147180557251,-0.0014868507860228,0.7299681305885315,0.5185821056365967,-0.0189851894974708,0.6734562516212463,0.4690816700458526,-0.0424726866185665,0.6380999684333801,0.4176351428031921,-0.0658779740333557,0.8577735424041748,0.3526164293289184,-0.0043756123632192,0.7571476697921753,0.3170771300792694,-0.0483027249574661,0.6910251379013062,0.3417967855930328,-0.0863190740346908,0.647498369216919,0.3746066093444824,-0.1101978719234466,0.8880288600921631,0.3695925176143646,-0.0264619570225477,0.7623862624168396,0.3175054788589477,-0.0706231594085693,0.6927504539489746,0.3634814620018005,-0.1039588749408721,0.6504143476486206,0.4120429456233978,-0.1230284944176673,0.9029155969619752,0.4121122658252716,-0.0516105964779853,0.7840021252632141,0.3637650609016418,-0.0948427468538284,0.7107649445533752,0.4008857905864715,-0.1140402406454086,0.6617098450660706,0.4398030340671539,-0.1205979213118553,0.8984173536300659,0.4762170910835266,-0.0762050151824951,0.7940918803215027,0.4640326499938965,-0.1138174161314964,0.7357349991798401,0.4744725227355957,-0.128622755408287,0.6925048828125,0.4843270778656006,-0.1327559500932693
2023-08-01 16:06:02.868737,45,662,0.7098085880279541,0.2269445210695266,-0.0722018927335739,0.6629139184951782,-0.412109375,0.87451171875,0.07763671875,0.8964962363243103,0.6941774487495422,-9.093091648537666e-07,0.8040311336517334,0.6051010489463806,-0.0016030147671699,0.7354512214660645,0.5194975733757019,-0.0222122371196746,0.6803741455078125,0.4721961915493011,-0.049758642911911,0.6446423530578613,0.4187788367271423,-0.077403038740158,0.8658074736595154,0.3518898785114288,-0.0084319841116666,0.761436402797699,0.3126834630966186,-0.0588151775300502,0.6937185525894165,0.333907812833786,-0.1017996668815612,0.6453200578689575,0.3694048225879669,-0.1278344541788101,0.8947296142578125,0.3708638250827789,-0.0335733778774738,0.7650560736656189,0.3158316612243652,-0.0830872356891632,0.6937642097473145,0.3609764575958252,-0.1201375946402549,0.6502214670181274,0.409574419260025,-0.1414791345596313,0.9077702760696412,0.4135467112064361,-0.0622644796967506,0.7903593182563782,0.3645283877849579,-0.1090781465172767,0.7154951095581055,0.4005384743213653,-0.1319913417100906,0.6667743921279907,0.440296471118927,-0.1409122496843338,0.9015527963638306,0.4758585691452026,-0.0904964581131935,0.7999953031539917,0.4605531692504883,-0.1293426305055618,0.7384492754936218,0.470403105020523,-0.1463046073913574,0.6930264830589294,0.4822125732898712,-0.1524506509304046
2023-08-01 16:06:02.933451,46,663,0.7097916603088379,0.2287633419036865,-0.0720407664775848,0.6623241901397705,-0.419921875,0.88916015625,0.09423828125,0.8931095004081726,0.6962449550628662,-9.3634423592448e-07,0.8047335743904114,0.6062647104263306,-0.0077073755674064,0.739739716053009,0.5193031430244446,-0.0288124457001686,0.6856576204299927,0.4705483615398407,-0.0545581579208374,0.6514019966125488,0.4180645048618316,-0.0798021256923675,0.8705838918685913,0.3504412770271301,-0.0140115227550268,0.7657079100608826,0.3183854222297668,-0.063726969063282,0.6971601843833923,0.3425999879837036,-0.1058344021439552,0.6490509510040283,0.3783291280269623,-0.1312142014503479,0.9007576704025269,0.3693150579929352,-0.03428291156888,0.7694855332374573,0.3194294571876526,-0.0814002379775047,0.696994423866272,0.3639188706874847,-0.1161204278469085,0.6525968313217163,0.4113329350948334,-0.1364697068929672,0.9149032831192015,0.4131968021392822,-0.0582653135061264,0.7936030626296997,0.3665802180767059,-0.1039223968982696,0.7195529937744141,0.4032466113567352,-0.1245284229516983,0.6720888018608093,0.4419335722923279,-0.1320235729217529,0.9094673991203308,0.4780482947826385,-0.0822154805064201,0.8028026819229126,0.4624441862106323,-0.1206810548901557,0.7420060038566589,0.4728148579597473,-0.1360508948564529,0.69819575548172,0.484193742275238,-0.140818178653717
2023-08-01 16:06:02.995030,47,664,0.7094683051109314,0.2301029562950134,-0.0718163475394249,0.662230908870697,-0.41796875,0.89892578125,0.07861328125,0.9082427620887756,0.699091911315918,-9.146086199507408e-07,0.819631814956665,0.6102861166000366,-0.0066956109367311,0.7556703686714172,0.5225592255592346,-0.0253730695694684,0.7016228437423706,0.4706250429153442,-0.0489993952214717,0.6669806838035583,0.4166447520256042,-0.0718949213624,0.8809970021247864,0.3580156564712524,-0.0080239921808242,0.7828620076179504,0.3197262287139892,-0.0541408434510231,0.7179170250892639,0.3409512639045715,-0.0935501009225845,0.6729848980903625,0.3740750849246979,-0.1176652535796165,0.9112341403961182,0.3768130242824554,-0.0278479941189289,0.7875701785087585,0.3235295712947845,-0.0729944631457328,0.7175310254096985,0.365142822265625,-0.1065365001559257,0.6739693284034729,0.4108077585697174,-0.1256833225488662,0.9266130328178406,0.4190595746040344,-0.0515544600784778,0.8115407824516296,0.3724784255027771,-0.0967703312635421,0.7373321056365967,0.4068705439567566,-0.1175733879208564,0.6881629824638367,0.4434264302253723,-0.1247366070747375,0.922160267829895,0.4815354645252228,-0.0751931220293045,0.8188934922218323,0.4683871865272522,-0.1137178987264633,0.7574504613876343,0.4790413975715637,-0.1295000612735748,0.7115445137023926,0.4899134039878845,-0.1343109756708145
2023-08-01 16:06:03.061963,48,665,0.7091826796531677,0.2314181327819824,-0.0719056949019432,0.662068784236908,-0.43505859375,0.8916015625,0.09375,0.9102834463119508,0.7050870060920715,-9.12825612431334e-07,0.8229014277458191,0.6150457859039307,-0.0061225341632962,0.7581768035888672,0.5261468291282654,-0.0262642223387956,0.7034350633621216,0.4766014814376831,-0.0520143955945968,0.6704229116439819,0.4249686598777771,-0.0771148800849914,0.8854037523269653,0.3590691983699798,-0.0064737689681351,0.7854251265525818,0.3227537870407104,-0.0563337840139865,0.7168463468551636,0.3453991711139679,-0.0995645299553871,0.6676036715507507,0.3825693130493164,-0.1253581047058105,0.9141005277633668,0.3772957324981689,-0.0279770456254482,0.7877057790756226,0.3222816586494446,-0.0755408108234405,0.7160665392875671,0.3656166791915893,-0.1120768934488296,0.6718640923500061,0.4139072000980377,-0.1326313763856887,0.9288833737373352,0.4194075763225555,-0.0534918121993541,0.8129924535751343,0.371025800704956,-0.0993349850177764,0.7382089495658875,0.407631367444992,-0.1209654659032821,0.6894108057022095,0.4474079310894012,-0.1280860602855682,0.9247280955314636,0.4826074838638305,-0.0789942443370819,0.8216537237167358,0.4652255475521087,-0.1163788139820098,0.7614209651947021,0.4768184125423431,-0.1310422122478485,0.7172330617904663,0.4909704327583313,-0.1347838342189788
2023-08-01 16:06:03.121569,49,666,0.7090063691139221,0.232071578502655,-0.072148710489273,0.6620025038719177,-0.42138671875,0.87548828125,0.09716796875,0.9100579023361206,0.7043510675430298,-9.26318080018973e-07,0.823320209980011,0.6131047606468201,-0.0052810949273407,0.7591087222099304,0.526543140411377,-0.024988479912281,0.70567786693573,0.4765356183052063,-0.0507420971989631,0.6721706986427307,0.4237223267555237,-0.0759117901325225,0.8873672485351562,0.3606577515602112,-0.0042277448810637,0.7885425686836243,0.3233258128166199,-0.0525274649262428,0.7209799885749817,0.3475567698478699,-0.0951714217662811,0.6731190085411072,0.3846811652183532,-0.1206598058342933,0.9168782830238342,0.3788748383522033,-0.0249580238014459,0.7919384837150574,0.3280567526817322,-0.0707229822874069,0.7207109332084656,0.3716939687728882,-0.1070405840873718,0.6767097115516663,0.4179548025131225,-0.12805737555027,0.9313907027244568,0.4199680089950561,-0.0496433824300766,0.8169219493865967,0.3730131387710571,-0.0928638204932212,0.7425518035888672,0.4086534976959228,-0.1143407002091407,0.6936504244804382,0.4479449689388275,-0.1222166419029235,0.9269102215766908,0.4811631739139557,-0.0744005665183067,0.8246685862541199,0.4630220532417297,-0.1094207167625427,0.7650824785232544,0.4742298424243927,-0.1238958835601806,0.7215937972068787,0.4883494973182678,-0.1280448138713836
2023-08-01 16:06:03.179641,50,667,0.7090169191360474,0.2321819216012954,-0.0719644650816917,0.6619725823402405,-0.42333984375,0.86962890625,0.076171875,0.9136961698532104,0.7044453620910645,-9.335013828604132e-07,0.8270443677902222,0.6159787178039551,-0.0047558424994349,0.7635549306869507,0.5277042984962463,-0.0227480772882699,0.71030193567276,0.4773916006088257,-0.0470327697694301,0.6763889789581299,0.4247091710567474,-0.0706795379519462,0.8902038931846619,0.3622950911521911,-0.0012975855497643,0.7938413023948669,0.3231687545776367,-0.0491740964353084,0.7261140942573547,0.3462973833084106,-0.0913608819246292,0.6776605844497681,0.3831316530704498,-0.1165835335850715,0.9195467233657836,0.380021333694458,-0.0223712362349033,0.7962116003036499,0.3256041407585144,-0.0684380605816841,0.7245886325836182,0.3700587749481201,-0.104682371020317,0.6807186603546143,0.4172366559505462,-0.125067338347435,0.9336562156677246,0.4205358326435089,-0.0476349778473377,0.8198595643043518,0.3713014125823974,-0.0916480273008346,0.7446255683898926,0.4074178040027618,-0.1135144457221031,0.6952869892120361,0.4467737972736358,-0.1210522577166557,0.9283928275108336,0.4812303185462951,-0.0729236602783203,0.8258949518203735,0.4622491896152496,-0.1084944307804107,0.7649562954902649,0.4719867706298828,-0.1235156506299972,0.7202405333518982,0.4848179519176483,-0.1278498768806457
2023-08-01 16:06:03.239083,51,668,0.7090499401092529,0.231877714395523,-0.0716386437416076,0.6620792150497437,-0.41796875,0.87255859375,0.06396484375,0.9195873737335204,0.7039169073104858,-9.514851058156636e-07,0.8320220112800598,0.6158432960510254,-0.0018310450250282,0.7684552073478699,0.526881992816925,-0.0190212614834308,0.7155508995056152,0.4761910438537597,-0.0432013384997844,0.681119978427887,0.4203685224056244,-0.0669528469443321,0.8960608243942261,0.3632111549377441,0.0005963778821751,0.7994856834411621,0.3209340870380401,-0.0469858087599277,0.7326577305793762,0.343328446149826,-0.0886032208800315,0.6857323050498962,0.3795672953128814,-0.1137216165661811,0.9261924624443054,0.380451500415802,-0.0224845465272665,0.8027952909469604,0.3234525322914123,-0.069343976676464,0.7325731515884399,0.3686099946498871,-0.105684757232666,0.6902549266815186,0.4165387451648712,-0.1261202991008758,0.941016972064972,0.4197736382484436,-0.0496457032859325,0.8257153034210205,0.3675960898399353,-0.0945813134312629,0.7509531378746033,0.4048124849796295,-0.1168930828571319,0.702116847038269,0.4449804723262787,-0.1247611865401268,0.9371715784072876,0.4789068400859833,-0.0765698701143264,0.8336865305900574,0.4599660634994507,-0.1133590042591095,0.7723233699798584,0.4693975448608398,-0.1296482980251312,0.7270487546920776,0.4804523885250091,-0.1350107789039611
